"Onset","Duration","Participant","date_time","Target_Mapping","Order_Instruction","Running","Trial","Event","Type","InstructionCondition","Accuracy","RT","Post_Trial","TaskPerf"
71.9972175000003,0.5,"IA6LI11","2022_Jan_05_1023","circle","relaxed_first","Practice",0,"Fixation","Go","relaxed",0,NA,NA,98.015873015873
72.4866100000072,0.1,"IA6LI11","2022_Jan_05_1023","circle","relaxed_first","Practice",0,"Target","Go","relaxed",0,NA,NA,98.015873015873
72.5867285999993,1.5,"IA6LI11","2022_Jan_05_1023","circle","relaxed_first","Practice",0,"ITI","Go","relaxed",0,NA,NA,98.015873015873
74.0900678000035,0.5,"IA6LI11","2022_Jan_05_1023","circle","relaxed_first","Practice",1,"Fixation","NoGo","relaxed",1,NA,"post_error_inh",98.015873015873
74.5884379000054,0.1,"IA6LI11","2022_Jan_05_1023","circle","relaxed_first","Practice",1,"Target","NoGo","relaxed",1,NA,"post_error_inh",98.015873015873
74.6886583000014,1.5,"IA6LI11","2022_Jan_05_1023","circle","relaxed_first","Practice",1,"ITI","NoGo","relaxed",1,NA,"post_error_inh",98.015873015873
76.1917810000014,0.5,"IA6LI11","2022_Jan_05_1023","circle","relaxed_first","Practice",2,"Fixation","Go","relaxed",0,NA,"post_correct_inh",98.015873015873
76.6734501000028,0.1,"IA6LI11","2022_Jan_05_1023","circle","relaxed_first","Practice",2,"Target","Go","relaxed",0,NA,"post_correct_inh",98.015873015873
76.7736730000033,1.5,"IA6LI11","2022_Jan_05_1023","circle","relaxed_first","Practice",2,"ITI","Go","relaxed",0,NA,"post_correct_inh",98.015873015873
78.2751629999984,0.5,"IA6LI11","2022_Jan_05_1023","circle","relaxed_first","Practice",3,"Fixation","Go","relaxed",1,0.314559300008113,"post_error_inh",98.015873015873
78.7585459000111,0.1,"IA6LI11","2022_Jan_05_1023","circle","relaxed_first","Practice",3,"Target","Go","relaxed",1,0.314559300008113,"post_error_inh",98.015873015873
78.858744600002,1.21455930000811,"IA6LI11","2022_Jan_05_1023","circle","relaxed_first","Practice",3,"ITI","Go","relaxed",1,0.314559300008113,"post_error_inh",98.015873015873
79.0731052000192,0,"IA6LI11","2022_Jan_05_1023","circle","relaxed_first","Practice",3,"Response","Go","relaxed",1,0.314559300008113,"post_error_inh",98.015873015873
80.1116782000026,0.5,"IA6LI11","2022_Jan_05_1023","circle","relaxed_first","Practice",4,"Fixation","NoGo","relaxed",1,NA,"post_correct_resp",98.015873015873
80.6100617000047,0.1,"IA6LI11","2022_Jan_05_1023","circle","relaxed_first","Practice",4,"Target","NoGo","relaxed",1,NA,"post_correct_resp",98.015873015873
80.7101457000099,1.5,"IA6LI11","2022_Jan_05_1023","circle","relaxed_first","Practice",4,"ITI","NoGo","relaxed",1,NA,"post_correct_resp",98.015873015873
82.2134286000073,0.5,"IA6LI11","2022_Jan_05_1023","circle","relaxed_first","Practice",5,"Fixation","Go","relaxed",1,0.351492999994662,"post_correct_inh",98.015873015873
82.6952353000088,0.1,"IA6LI11","2022_Jan_05_1023","circle","relaxed_first","Practice",5,"Target","Go","relaxed",1,0.351492999994662,"post_correct_inh",98.015873015873
82.7951637000078,1.25149299999466,"IA6LI11","2022_Jan_05_1023","circle","relaxed_first","Practice",5,"ITI","Go","relaxed",1,0.351492999994662,"post_correct_inh",98.015873015873
83.0467283000035,0,"IA6LI11","2022_Jan_05_1023","circle","relaxed_first","Practice",5,"Response","Go","relaxed",1,0.351492999994662,"post_correct_inh",98.015873015873
84.0818212000013,0.5,"IA6LI11","2022_Jan_05_1023","circle","relaxed_first","Practice",6,"Fixation","NoGo","relaxed",1,NA,"post_correct_resp",98.015873015873
84.5633363000088,0.1,"IA6LI11","2022_Jan_05_1023","circle","relaxed_first","Practice",6,"Target","NoGo","relaxed",1,NA,"post_correct_resp",98.015873015873
84.6633657000057,1.5,"IA6LI11","2022_Jan_05_1023","circle","relaxed_first","Practice",6,"ITI","NoGo","relaxed",1,NA,"post_correct_resp",98.015873015873
86.1650634000107,0.5,"IA6LI11","2022_Jan_05_1023","circle","relaxed_first","Practice",7,"Fixation","NoGo","relaxed",1,NA,"post_correct_inh",98.015873015873
86.6485520999995,0.1,"IA6LI11","2022_Jan_05_1023","circle","relaxed_first","Practice",7,"Target","NoGo","relaxed",1,NA,"post_correct_inh",98.015873015873
86.7486600999982,1.5,"IA6LI11","2022_Jan_05_1023","circle","relaxed_first","Practice",7,"ITI","NoGo","relaxed",1,NA,"post_correct_inh",98.015873015873
88.2496687000094,0.5,"IA6LI11","2022_Jan_05_1023","circle","relaxed_first","Practice",8,"Fixation","Go","relaxed",1,0.293313699992723,"post_correct_inh",98.015873015873
88.7334881999996,0.1,"IA6LI11","2022_Jan_05_1023","circle","relaxed_first","Practice",8,"Target","Go","relaxed",1,0.293313699992723,"post_correct_inh",98.015873015873
88.8335128000035,1.19331369999272,"IA6LI11","2022_Jan_05_1023","circle","relaxed_first","Practice",8,"ITI","Go","relaxed",1,0.293313699992723,"post_correct_inh",98.015873015873
89.0268018999923,0,"IA6LI11","2022_Jan_05_1023","circle","relaxed_first","Practice",8,"Response","Go","relaxed",1,0.293313699992723,"post_correct_inh",98.015873015873
90.068107900006,0.5,"IA6LI11","2022_Jan_05_1023","circle","relaxed_first","Practice",9,"Fixation","Go","relaxed",1,0.379828699995414,"post_correct_resp",98.015873015873
90.5518210000009,0.1,"IA6LI11","2022_Jan_05_1023","circle","relaxed_first","Practice",9,"Target","Go","relaxed",1,0.379828699995414,"post_correct_resp",98.015873015873
90.6516925000033,1.27982869999541,"IA6LI11","2022_Jan_05_1023","circle","relaxed_first","Practice",9,"ITI","Go","relaxed",1,0.379828699995414,"post_correct_resp",98.015873015873
90.9316496999963,0,"IA6LI11","2022_Jan_05_1023","circle","relaxed_first","Practice",9,"Response","Go","relaxed",1,0.379828699995414,"post_correct_resp",98.015873015873
91.9698651000072,0.5,"IA6LI11","2022_Jan_05_1023","circle","relaxed_first","Practice",10,"Fixation","Go","relaxed",1,0.494572800002061,"post_correct_resp",98.015873015873
92.4531967000075,0.1,"IA6LI11","2022_Jan_05_1023","circle","relaxed_first","Practice",10,"Target","Go","relaxed",1,0.494572800002061,"post_correct_resp",98.015873015873
92.5533751000039,1.39457280000206,"IA6LI11","2022_Jan_05_1023","circle","relaxed_first","Practice",10,"ITI","Go","relaxed",1,0.494572800002061,"post_correct_resp",98.015873015873
92.9477695000096,0,"IA6LI11","2022_Jan_05_1023","circle","relaxed_first","Practice",10,"Response","Go","relaxed",1,0.494572800002061,"post_correct_resp",98.015873015873
93.9881274000072,0.5,"IA6LI11","2022_Jan_05_1023","circle","relaxed_first","Practice",11,"Fixation","Go","relaxed",1,0.353084899994428,"post_correct_resp",98.015873015873
94.4717428000004,0.1,"IA6LI11","2022_Jan_05_1023","circle","relaxed_first","Practice",11,"Target","Go","relaxed",1,0.353084899994428,"post_correct_resp",98.015873015873
94.5716613000113,1.25308489999443,"IA6LI11","2022_Jan_05_1023","circle","relaxed_first","Practice",11,"ITI","Go","relaxed",1,0.353084899994428,"post_correct_resp",98.015873015873
94.8248276999948,0,"IA6LI11","2022_Jan_05_1023","circle","relaxed_first","Practice",11,"Response","Go","relaxed",1,0.353084899994428,"post_correct_resp",98.015873015873
95.8563995000004,0.5,"IA6LI11","2022_Jan_05_1023","circle","relaxed_first","Practice",12,"Fixation","Go","relaxed",1,0.458110299994587,"post_correct_resp",98.015873015873
96.3397645000077,0.1,"IA6LI11","2022_Jan_05_1023","circle","relaxed_first","Practice",12,"Target","Go","relaxed",1,0.458110299994587,"post_correct_resp",98.015873015873
96.4398921000102,1.35811029999459,"IA6LI11","2022_Jan_05_1023","circle","relaxed_first","Practice",12,"ITI","Go","relaxed",1,0.458110299994587,"post_correct_resp",98.015873015873
96.7978748000023,0,"IA6LI11","2022_Jan_05_1023","circle","relaxed_first","Practice",12,"Response","Go","relaxed",1,0.458110299994587,"post_correct_resp",98.015873015873
97.8414532000024,0.5,"IA6LI11","2022_Jan_05_1023","circle","relaxed_first","Practice",13,"Fixation","Go","relaxed",1,0.515276200007065,"post_correct_resp",98.015873015873
98.3247885000019,0.1,"IA6LI11","2022_Jan_05_1023","circle","relaxed_first","Practice",13,"Target","Go","relaxed",1,0.515276200007065,"post_correct_resp",98.015873015873
98.4248755000008,1.41527620000707,"IA6LI11","2022_Jan_05_1023","circle","relaxed_first","Practice",13,"ITI","Go","relaxed",1,0.515276200007065,"post_correct_resp",98.015873015873
98.840064700009,0,"IA6LI11","2022_Jan_05_1023","circle","relaxed_first","Practice",13,"Response","Go","relaxed",1,0.515276200007065,"post_correct_resp",98.015873015873
99.8781645999989,0.5,"IA6LI11","2022_Jan_05_1023","circle","relaxed_first","Practice",14,"Fixation","NoGo","relaxed",1,NA,"post_correct_resp",98.015873015873
100.359839199999,0.1,"IA6LI11","2022_Jan_05_1023","circle","relaxed_first","Practice",14,"Target","NoGo","relaxed",1,NA,"post_correct_resp",98.015873015873
100.459864900011,1.5,"IA6LI11","2022_Jan_05_1023","circle","relaxed_first","Practice",14,"ITI","NoGo","relaxed",1,NA,"post_correct_resp",98.015873015873
110.969196800012,0.5,"IA6LI11","2022_Jan_05_1023","circle","relaxed_first","MainTask",0,"Fixation","Go","relaxed",1,0.397012500005076,"post_correct_inh",98.015873015873
111.469183699999,0.1,"IA6LI11","2022_Jan_05_1023","circle","relaxed_first","MainTask",0,"Target","Go","relaxed",1,0.397012500005076,"post_correct_inh",98.015873015873
111.56915190001,1.29701250000508,"IA6LI11","2022_Jan_05_1023","circle","relaxed_first","MainTask",0,"ITI","Go","relaxed",1,0.397012500005076,"post_correct_inh",98.015873015873
111.866196200004,0,"IA6LI11","2022_Jan_05_1023","circle","relaxed_first","MainTask",0,"Response","Go","relaxed",1,0.397012500005076,"post_correct_inh",98.015873015873
112.925716500002,0.5,"IA6LI11","2022_Jan_05_1023","circle","relaxed_first","MainTask",1,"Fixation","Go","relaxed",1,0.243243600009009,"post_correct_resp",98.015873015873
113.420656400005,0.1,"IA6LI11","2022_Jan_05_1023","circle","relaxed_first","MainTask",1,"Target","Go","relaxed",1,0.243243600009009,"post_correct_resp",98.015873015873
113.520751400007,1.14324360000901,"IA6LI11","2022_Jan_05_1023","circle","relaxed_first","MainTask",1,"ITI","Go","relaxed",1,0.243243600009009,"post_correct_resp",98.015873015873
113.663900000014,0,"IA6LI11","2022_Jan_05_1023","circle","relaxed_first","MainTask",1,"Response","Go","relaxed",1,0.243243600009009,"post_correct_resp",98.015873015873
114.709056500011,0.5,"IA6LI11","2022_Jan_05_1023","circle","relaxed_first","MainTask",2,"Fixation","NoGo","relaxed",1,NA,"post_correct_resp",98.015873015873
115.2058732,0.1,"IA6LI11","2022_Jan_05_1023","circle","relaxed_first","MainTask",2,"Target","NoGo","relaxed",1,NA,"post_correct_resp",98.015873015873
115.305738300012,1.5,"IA6LI11","2022_Jan_05_1023","circle","relaxed_first","MainTask",2,"ITI","NoGo","relaxed",1,NA,"post_correct_resp",98.015873015873
116.8255832,0.5,"IA6LI11","2022_Jan_05_1023","circle","relaxed_first","MainTask",3,"Fixation","Go","relaxed",1,0.262415100005455,"post_correct_inh",98.015873015873
117.323858800009,0.1,"IA6LI11","2022_Jan_05_1023","circle","relaxed_first","MainTask",3,"Target","Go","relaxed",1,0.262415100005455,"post_correct_inh",98.015873015873
117.424113700006,1.16241510000546,"IA6LI11","2022_Jan_05_1023","circle","relaxed_first","MainTask",3,"ITI","Go","relaxed",1,0.262415100005455,"post_correct_inh",98.015873015873
117.586273900015,0,"IA6LI11","2022_Jan_05_1023","circle","relaxed_first","MainTask",3,"Response","Go","relaxed",1,0.262415100005455,"post_correct_inh",98.015873015873
118.632036200011,0.5,"IA6LI11","2022_Jan_05_1023","circle","relaxed_first","MainTask",4,"Fixation","Go","relaxed",1,0.310490499992738,"post_correct_resp",98.015873015873
119.1254052,0.1,"IA6LI11","2022_Jan_05_1023","circle","relaxed_first","MainTask",4,"Target","Go","relaxed",1,0.310490499992738,"post_correct_resp",98.015873015873
119.22566750001,1.21049049999274,"IA6LI11","2022_Jan_05_1023","circle","relaxed_first","MainTask",4,"ITI","Go","relaxed",1,0.310490499992738,"post_correct_resp",98.015873015873
119.435895699993,0,"IA6LI11","2022_Jan_05_1023","circle","relaxed_first","MainTask",4,"Response","Go","relaxed",1,0.310490499992738,"post_correct_resp",98.015873015873
120.482737099999,0.5,"IA6LI11","2022_Jan_05_1023","circle","relaxed_first","MainTask",5,"Fixation","Go","relaxed",1,0.275976999997511,"post_correct_resp",98.015873015873
120.976923599999,0.1,"IA6LI11","2022_Jan_05_1023","circle","relaxed_first","MainTask",5,"Target","Go","relaxed",1,0.275976999997511,"post_correct_resp",98.015873015873
121.077408199999,1.17597699999751,"IA6LI11","2022_Jan_05_1023","circle","relaxed_first","MainTask",5,"ITI","Go","relaxed",1,0.275976999997511,"post_correct_resp",98.015873015873
121.252900599997,0,"IA6LI11","2022_Jan_05_1023","circle","relaxed_first","MainTask",5,"Response","Go","relaxed",1,0.275976999997511,"post_correct_resp",98.015873015873
122.302534900009,0.5,"IA6LI11","2022_Jan_05_1023","circle","relaxed_first","MainTask",6,"Fixation","Go","relaxed",1,0.285449999995762,"post_correct_resp",98.015873015873
122.778459000008,0.1,"IA6LI11","2022_Jan_05_1023","circle","relaxed_first","MainTask",6,"Target","Go","relaxed",1,0.285449999995762,"post_correct_resp",98.015873015873
122.878542900013,1.18544999999576,"IA6LI11","2022_Jan_05_1023","circle","relaxed_first","MainTask",6,"ITI","Go","relaxed",1,0.285449999995762,"post_correct_resp",98.015873015873
123.063909000004,0,"IA6LI11","2022_Jan_05_1023","circle","relaxed_first","MainTask",6,"Response","Go","relaxed",1,0.285449999995762,"post_correct_resp",98.015873015873
124.106359400001,0.5,"IA6LI11","2022_Jan_05_1023","circle","relaxed_first","MainTask",7,"Fixation","NoGo","relaxed",1,NA,"post_correct_resp",98.015873015873
124.596737600004,0.1,"IA6LI11","2022_Jan_05_1023","circle","relaxed_first","MainTask",7,"Target","NoGo","relaxed",1,NA,"post_correct_resp",98.015873015873
124.696762200008,1.5,"IA6LI11","2022_Jan_05_1023","circle","relaxed_first","MainTask",7,"ITI","NoGo","relaxed",1,NA,"post_correct_resp",98.015873015873
126.225034600007,0.5,"IA6LI11","2022_Jan_05_1023","circle","relaxed_first","MainTask",8,"Fixation","Go","relaxed",1,0.296712900002603,"post_correct_inh",98.015873015873
126.715083000003,0.1,"IA6LI11","2022_Jan_05_1023","circle","relaxed_first","MainTask",8,"Target","Go","relaxed",1,0.296712900002603,"post_correct_inh",98.015873015873
126.815288000013,1.1967129000026,"IA6LI11","2022_Jan_05_1023","circle","relaxed_first","MainTask",8,"ITI","Go","relaxed",1,0.296712900002603,"post_correct_inh",98.015873015873
127.011795900005,0,"IA6LI11","2022_Jan_05_1023","circle","relaxed_first","MainTask",8,"Response","Go","relaxed",1,0.296712900002603,"post_correct_inh",98.015873015873
128.056591600005,0.5,"IA6LI11","2022_Jan_05_1023","circle","relaxed_first","MainTask",9,"Fixation","Go","relaxed",1,0.330155000003288,"post_correct_resp",98.015873015873
128.550033600011,0.1,"IA6LI11","2022_Jan_05_1023","circle","relaxed_first","MainTask",9,"Target","Go","relaxed",1,0.330155000003288,"post_correct_resp",98.015873015873
128.650137900011,1.23015500000329,"IA6LI11","2022_Jan_05_1023","circle","relaxed_first","MainTask",9,"ITI","Go","relaxed",1,0.330155000003288,"post_correct_resp",98.015873015873
128.880188600015,0,"IA6LI11","2022_Jan_05_1023","circle","relaxed_first","MainTask",9,"Response","Go","relaxed",1,0.330155000003288,"post_correct_resp",98.015873015873
129.923731000003,0.5,"IA6LI11","2022_Jan_05_1023","circle","relaxed_first","MainTask",10,"Fixation","Go","relaxed",1,0.265096999995876,"post_correct_resp",98.015873015873
130.418140500013,0.1,"IA6LI11","2022_Jan_05_1023","circle","relaxed_first","MainTask",10,"Target","Go","relaxed",1,0.265096999995876,"post_correct_resp",98.015873015873
130.518139500011,1.16509699999588,"IA6LI11","2022_Jan_05_1023","circle","relaxed_first","MainTask",10,"ITI","Go","relaxed",1,0.265096999995876,"post_correct_resp",98.015873015873
130.683237500009,0,"IA6LI11","2022_Jan_05_1023","circle","relaxed_first","MainTask",10,"Response","Go","relaxed",1,0.265096999995876,"post_correct_resp",98.015873015873
131.725404500001,0.5,"IA6LI11","2022_Jan_05_1023","circle","relaxed_first","MainTask",11,"Fixation","Go","relaxed",1,0.31375850000768,"post_correct_resp",98.015873015873
132.21951190001,0.1,"IA6LI11","2022_Jan_05_1023","circle","relaxed_first","MainTask",11,"Target","Go","relaxed",1,0.31375850000768,"post_correct_resp",98.015873015873
132.319723200009,1.21375850000768,"IA6LI11","2022_Jan_05_1023","circle","relaxed_first","MainTask",11,"ITI","Go","relaxed",1,0.31375850000768,"post_correct_resp",98.015873015873
132.533270400017,0,"IA6LI11","2022_Jan_05_1023","circle","relaxed_first","MainTask",11,"Response","Go","relaxed",1,0.31375850000768,"post_correct_resp",98.015873015873
133.577271400005,0.5,"IA6LI11","2022_Jan_05_1023","circle","relaxed_first","MainTask",12,"Fixation","Go","relaxed",1,0.368742400009069,"post_correct_resp",98.015873015873
134.071148700008,0.1,"IA6LI11","2022_Jan_05_1023","circle","relaxed_first","MainTask",12,"Target","Go","relaxed",1,0.368742400009069,"post_correct_resp",98.015873015873
134.171663100002,1.26874240000907,"IA6LI11","2022_Jan_05_1023","circle","relaxed_first","MainTask",12,"ITI","Go","relaxed",1,0.368742400009069,"post_correct_resp",98.015873015873
134.439891100017,0,"IA6LI11","2022_Jan_05_1023","circle","relaxed_first","MainTask",12,"Response","Go","relaxed",1,0.368742400009069,"post_correct_resp",98.015873015873
135.479943099999,0.5,"IA6LI11","2022_Jan_05_1023","circle","relaxed_first","MainTask",13,"Fixation","NoGo","relaxed",1,NA,"post_correct_resp",98.015873015873
135.972550400009,0.1,"IA6LI11","2022_Jan_05_1023","circle","relaxed_first","MainTask",13,"Target","NoGo","relaxed",1,NA,"post_correct_resp",98.015873015873
136.072688700006,1.5,"IA6LI11","2022_Jan_05_1023","circle","relaxed_first","MainTask",13,"ITI","NoGo","relaxed",1,NA,"post_correct_resp",98.015873015873
137.601468400011,0.5,"IA6LI11","2022_Jan_05_1023","circle","relaxed_first","MainTask",14,"Fixation","Go","relaxed",1,0.42357839999022,"post_correct_inh",98.015873015873
138.091169700012,0.1,"IA6LI11","2022_Jan_05_1023","circle","relaxed_first","MainTask",14,"Target","Go","relaxed",1,0.42357839999022,"post_correct_inh",98.015873015873
138.191280700004,1.32357839999022,"IA6LI11","2022_Jan_05_1023","circle","relaxed_first","MainTask",14,"ITI","Go","relaxed",1,0.42357839999022,"post_correct_inh",98.015873015873
138.514748100002,0,"IA6LI11","2022_Jan_05_1023","circle","relaxed_first","MainTask",14,"Response","Go","relaxed",1,0.42357839999022,"post_correct_inh",98.015873015873
139.5654584,0.5,"IA6LI11","2022_Jan_05_1023","circle","relaxed_first","MainTask",15,"Fixation","Go","relaxed",1,0.378362899995409,"post_correct_resp",98.015873015873
140.059544100004,0.1,"IA6LI11","2022_Jan_05_1023","circle","relaxed_first","MainTask",15,"Target","Go","relaxed",1,0.378362899995409,"post_correct_resp",98.015873015873
140.159711400003,1.27836289999541,"IA6LI11","2022_Jan_05_1023","circle","relaxed_first","MainTask",15,"ITI","Go","relaxed",1,0.378362899995409,"post_correct_resp",98.015873015873
140.437907,0,"IA6LI11","2022_Jan_05_1023","circle","relaxed_first","MainTask",15,"Response","Go","relaxed",1,0.378362899995409,"post_correct_resp",98.015873015873
141.48405340001,0.5,"IA6LI11","2022_Jan_05_1023","circle","relaxed_first","MainTask",16,"Fixation","Go","relaxed",1,0.335940999997547,"post_break",98.015873015873
141.977757000001,0.1,"IA6LI11","2022_Jan_05_1023","circle","relaxed_first","MainTask",16,"Target","Go","relaxed",1,0.335940999997547,"post_break",98.015873015873
142.077809400012,1.23594099999755,"IA6LI11","2022_Jan_05_1023","circle","relaxed_first","MainTask",16,"ITI","Go","relaxed",1,0.335940999997547,"post_break",98.015873015873
142.313697999998,0,"IA6LI11","2022_Jan_05_1023","circle","relaxed_first","MainTask",16,"Response","Go","relaxed",1,0.335940999997547,"post_break",98.015873015873
143.369892100003,0.5,"IA6LI11","2022_Jan_05_1023","circle","relaxed_first","MainTask",17,"Fixation","Go","relaxed",1,0.314045199993416,"post_correct_resp",98.015873015873
143.846051400003,0.1,"IA6LI11","2022_Jan_05_1023","circle","relaxed_first","MainTask",17,"Target","Go","relaxed",1,0.314045199993416,"post_correct_resp",98.015873015873
143.946180600004,1.21404519999342,"IA6LI11","2022_Jan_05_1023","circle","relaxed_first","MainTask",17,"ITI","Go","relaxed",1,0.314045199993416,"post_correct_resp",98.015873015873
144.160096599997,0,"IA6LI11","2022_Jan_05_1023","circle","relaxed_first","MainTask",17,"Response","Go","relaxed",1,0.314045199993416,"post_correct_resp",98.015873015873
145.199161000011,0.5,"IA6LI11","2022_Jan_05_1023","circle","relaxed_first","MainTask",18,"Fixation","Go","relaxed",1,0.513772999998764,"post_correct_resp",98.015873015873
145.697447500002,0.1,"IA6LI11","2022_Jan_05_1023","circle","relaxed_first","MainTask",18,"Target","Go","relaxed",1,0.513772999998764,"post_correct_resp",98.015873015873
145.797757799999,1.41377299999876,"IA6LI11","2022_Jan_05_1023","circle","relaxed_first","MainTask",18,"ITI","Go","relaxed",1,0.513772999998764,"post_correct_resp",98.015873015873
146.211220500001,0,"IA6LI11","2022_Jan_05_1023","circle","relaxed_first","MainTask",18,"Response","Go","relaxed",1,0.513772999998764,"post_correct_resp",98.015873015873
147.2552363,0.5,"IA6LI11","2022_Jan_05_1023","circle","relaxed_first","MainTask",19,"Fixation","Go","relaxed",1,0.356578899998567,"post_correct_resp",98.015873015873
147.749186400004,0.1,"IA6LI11","2022_Jan_05_1023","circle","relaxed_first","MainTask",19,"Target","Go","relaxed",1,0.356578899998567,"post_correct_resp",98.015873015873
147.849393900004,1.25657889999857,"IA6LI11","2022_Jan_05_1023","circle","relaxed_first","MainTask",19,"ITI","Go","relaxed",1,0.356578899998567,"post_correct_resp",98.015873015873
148.105765300003,0,"IA6LI11","2022_Jan_05_1023","circle","relaxed_first","MainTask",19,"Response","Go","relaxed",1,0.356578899998567,"post_correct_resp",98.015873015873
149.15269480001,0.5,"IA6LI11","2022_Jan_05_1023","circle","relaxed_first","MainTask",20,"Fixation","Go","relaxed",1,0.337130600004457,"post_correct_resp",98.015873015873
149.650756800009,0.1,"IA6LI11","2022_Jan_05_1023","circle","relaxed_first","MainTask",20,"Target","Go","relaxed",1,0.337130600004457,"post_correct_resp",98.015873015873
149.750667400003,1.23713060000446,"IA6LI11","2022_Jan_05_1023","circle","relaxed_first","MainTask",20,"ITI","Go","relaxed",1,0.337130600004457,"post_correct_resp",98.015873015873
149.987887400013,0,"IA6LI11","2022_Jan_05_1023","circle","relaxed_first","MainTask",20,"Response","Go","relaxed",1,0.337130600004457,"post_correct_resp",98.015873015873
151.042616600011,0.5,"IA6LI11","2022_Jan_05_1023","circle","relaxed_first","MainTask",21,"Fixation","NoGo","relaxed",1,NA,"post_correct_resp",98.015873015873
151.535873800007,0.1,"IA6LI11","2022_Jan_05_1023","circle","relaxed_first","MainTask",21,"Target","NoGo","relaxed",1,NA,"post_correct_resp",98.015873015873
151.635793100009,1.5,"IA6LI11","2022_Jan_05_1023","circle","relaxed_first","MainTask",21,"ITI","NoGo","relaxed",1,NA,"post_correct_resp",98.015873015873
153.156000600007,0.5,"IA6LI11","2022_Jan_05_1023","circle","relaxed_first","MainTask",22,"Fixation","Go","relaxed",1,0.393969000011566,"post_correct_inh",98.015873015873
153.654063200011,0.1,"IA6LI11","2022_Jan_05_1023","circle","relaxed_first","MainTask",22,"Target","Go","relaxed",1,0.393969000011566,"post_correct_inh",98.015873015873
153.754151900008,1.29396900001157,"IA6LI11","2022_Jan_05_1023","circle","relaxed_first","MainTask",22,"ITI","Go","relaxed",1,0.393969000011566,"post_correct_inh",98.015873015873
154.048032200022,0,"IA6LI11","2022_Jan_05_1023","circle","relaxed_first","MainTask",22,"Response","Go","relaxed",1,0.393969000011566,"post_correct_inh",98.015873015873
155.096407200006,0.5,"IA6LI11","2022_Jan_05_1023","circle","relaxed_first","MainTask",23,"Fixation","NoGo","relaxed",1,NA,"post_correct_resp",98.015873015873
155.572394000003,0.1,"IA6LI11","2022_Jan_05_1023","circle","relaxed_first","MainTask",23,"Target","NoGo","relaxed",1,NA,"post_correct_resp",98.015873015873
155.6724235,1.5,"IA6LI11","2022_Jan_05_1023","circle","relaxed_first","MainTask",23,"ITI","NoGo","relaxed",1,NA,"post_correct_resp",98.015873015873
157.197488200007,0.5,"IA6LI11","2022_Jan_05_1023","circle","relaxed_first","MainTask",24,"Fixation","NoGo","relaxed",1,NA,"post_correct_inh",98.015873015873
157.690758900004,0.1,"IA6LI11","2022_Jan_05_1023","circle","relaxed_first","MainTask",24,"Target","NoGo","relaxed",1,NA,"post_correct_inh",98.015873015873
157.790870600002,1.5,"IA6LI11","2022_Jan_05_1023","circle","relaxed_first","MainTask",24,"ITI","NoGo","relaxed",1,NA,"post_correct_inh",98.015873015873
159.314941300006,0.5,"IA6LI11","2022_Jan_05_1023","circle","relaxed_first","MainTask",25,"Fixation","NoGo","relaxed",1,NA,"post_correct_inh",98.015873015873
159.809210000007,0.1,"IA6LI11","2022_Jan_05_1023","circle","relaxed_first","MainTask",25,"Target","NoGo","relaxed",1,NA,"post_correct_inh",98.015873015873
159.909326500012,1.5,"IA6LI11","2022_Jan_05_1023","circle","relaxed_first","MainTask",25,"ITI","NoGo","relaxed",1,NA,"post_correct_inh",98.015873015873
161.434656400001,0.5,"IA6LI11","2022_Jan_05_1023","circle","relaxed_first","MainTask",26,"Fixation","Go","relaxed",1,0.368999900005292,"post_correct_inh",98.015873015873
161.9278146,0.1,"IA6LI11","2022_Jan_05_1023","circle","relaxed_first","MainTask",26,"Target","Go","relaxed",1,0.368999900005292,"post_correct_inh",98.015873015873
162.027879000001,1.26899990000529,"IA6LI11","2022_Jan_05_1023","circle","relaxed_first","MainTask",26,"ITI","Go","relaxed",1,0.368999900005292,"post_correct_inh",98.015873015873
162.296814500005,0,"IA6LI11","2022_Jan_05_1023","circle","relaxed_first","MainTask",26,"Response","Go","relaxed",1,0.368999900005292,"post_correct_inh",98.015873015873
163.352659700002,0.5,"IA6LI11","2022_Jan_05_1023","circle","relaxed_first","MainTask",27,"Fixation","Go","relaxed",1,0.354901400001836,"post_correct_resp",98.015873015873
163.8459363,0.1,"IA6LI11","2022_Jan_05_1023","circle","relaxed_first","MainTask",27,"Target","Go","relaxed",1,0.354901400001836,"post_correct_resp",98.015873015873
163.946027800004,1.25490140000184,"IA6LI11","2022_Jan_05_1023","circle","relaxed_first","MainTask",27,"ITI","Go","relaxed",1,0.354901400001836,"post_correct_resp",98.015873015873
164.200837700002,0,"IA6LI11","2022_Jan_05_1023","circle","relaxed_first","MainTask",27,"Response","Go","relaxed",1,0.354901400001836,"post_correct_resp",98.015873015873
165.253973800005,0.5,"IA6LI11","2022_Jan_05_1023","circle","relaxed_first","MainTask",28,"Fixation","Go","relaxed",1,0.298684299996239,"post_correct_resp",98.015873015873
165.747467300011,0.1,"IA6LI11","2022_Jan_05_1023","circle","relaxed_first","MainTask",28,"Target","Go","relaxed",1,0.298684299996239,"post_correct_resp",98.015873015873
165.8477633,1.19868429999624,"IA6LI11","2022_Jan_05_1023","circle","relaxed_first","MainTask",28,"ITI","Go","relaxed",1,0.298684299996239,"post_correct_resp",98.015873015873
166.046151600007,0,"IA6LI11","2022_Jan_05_1023","circle","relaxed_first","MainTask",28,"Response","Go","relaxed",1,0.298684299996239,"post_correct_resp",98.015873015873
167.089915500008,0.5,"IA6LI11","2022_Jan_05_1023","circle","relaxed_first","MainTask",29,"Fixation","NoGo","relaxed",1,NA,"post_correct_resp",98.015873015873
167.5824307,0.1,"IA6LI11","2022_Jan_05_1023","circle","relaxed_first","MainTask",29,"Target","NoGo","relaxed",1,NA,"post_correct_resp",98.015873015873
167.682432200003,1.5,"IA6LI11","2022_Jan_05_1023","circle","relaxed_first","MainTask",29,"ITI","NoGo","relaxed",1,NA,"post_correct_resp",98.015873015873
169.20713190001,0.5,"IA6LI11","2022_Jan_05_1023","circle","relaxed_first","MainTask",30,"Fixation","NoGo","relaxed",1,NA,"post_correct_inh",98.015873015873
169.701182200006,0.1,"IA6LI11","2022_Jan_05_1023","circle","relaxed_first","MainTask",30,"Target","NoGo","relaxed",1,NA,"post_correct_inh",98.015873015873
169.801023600012,1.5,"IA6LI11","2022_Jan_05_1023","circle","relaxed_first","MainTask",30,"ITI","NoGo","relaxed",1,NA,"post_correct_inh",98.015873015873
171.321412200006,0.5,"IA6LI11","2022_Jan_05_1023","circle","relaxed_first","MainTask",31,"Fixation","Go","relaxed",1,0.364764000012656,"post_correct_inh",98.015873015873
171.819411500008,0.1,"IA6LI11","2022_Jan_05_1023","circle","relaxed_first","MainTask",31,"Target","Go","relaxed",1,0.364764000012656,"post_correct_inh",98.015873015873
171.919403500011,1.26476400001266,"IA6LI11","2022_Jan_05_1023","circle","relaxed_first","MainTask",31,"ITI","Go","relaxed",1,0.364764000012656,"post_correct_inh",98.015873015873
172.184175500021,0,"IA6LI11","2022_Jan_05_1023","circle","relaxed_first","MainTask",31,"Response","Go","relaxed",1,0.364764000012656,"post_correct_inh",98.015873015873
173.226964500005,0.5,"IA6LI11","2022_Jan_05_1023","circle","relaxed_first","MainTask",32,"Fixation","Go","relaxed",1,0.333463900009519,"post_correct_resp",98.015873015873
173.72075800001,0.1,"IA6LI11","2022_Jan_05_1023","circle","relaxed_first","MainTask",32,"Target","Go","relaxed",1,0.333463900009519,"post_correct_resp",98.015873015873
173.821034600012,1.23346390000952,"IA6LI11","2022_Jan_05_1023","circle","relaxed_first","MainTask",32,"ITI","Go","relaxed",1,0.333463900009519,"post_correct_resp",98.015873015873
174.05422190002,0,"IA6LI11","2022_Jan_05_1023","circle","relaxed_first","MainTask",32,"Response","Go","relaxed",1,0.333463900009519,"post_correct_resp",98.015873015873
175.094612900008,0.5,"IA6LI11","2022_Jan_05_1023","circle","relaxed_first","MainTask",33,"Fixation","Go","relaxed",1,0.288784899996244,"post_correct_resp",98.015873015873
175.589007200004,0.1,"IA6LI11","2022_Jan_05_1023","circle","relaxed_first","MainTask",33,"Target","Go","relaxed",1,0.288784899996244,"post_correct_resp",98.015873015873
175.689122299998,1.18878489999624,"IA6LI11","2022_Jan_05_1023","circle","relaxed_first","MainTask",33,"ITI","Go","relaxed",1,0.288784899996244,"post_correct_resp",98.015873015873
175.8777921,0,"IA6LI11","2022_Jan_05_1023","circle","relaxed_first","MainTask",33,"Response","Go","relaxed",1,0.288784899996244,"post_correct_resp",98.015873015873
176.92932380001,0.5,"IA6LI11","2022_Jan_05_1023","circle","relaxed_first","MainTask",34,"Fixation","Go","relaxed",1,0.30090729999938,"post_correct_resp",98.015873015873
177.423886200006,0.1,"IA6LI11","2022_Jan_05_1023","circle","relaxed_first","MainTask",34,"Target","Go","relaxed",1,0.30090729999938,"post_correct_resp",98.015873015873
177.524086000005,1.20090729999938,"IA6LI11","2022_Jan_05_1023","circle","relaxed_first","MainTask",34,"ITI","Go","relaxed",1,0.30090729999938,"post_correct_resp",98.015873015873
177.724793500005,0,"IA6LI11","2022_Jan_05_1023","circle","relaxed_first","MainTask",34,"Response","Go","relaxed",1,0.30090729999938,"post_correct_resp",98.015873015873
178.765148700011,0.5,"IA6LI11","2022_Jan_05_1023","circle","relaxed_first","MainTask",35,"Fixation","Go","relaxed",1,0.291765999994823,"post_correct_resp",98.015873015873
179.258967800008,0.1,"IA6LI11","2022_Jan_05_1023","circle","relaxed_first","MainTask",35,"Target","Go","relaxed",1,0.291765999994823,"post_correct_resp",98.015873015873
179.358985700004,1.19176599999482,"IA6LI11","2022_Jan_05_1023","circle","relaxed_first","MainTask",35,"ITI","Go","relaxed",1,0.291765999994823,"post_correct_resp",98.015873015873
179.550733800002,0,"IA6LI11","2022_Jan_05_1023","circle","relaxed_first","MainTask",35,"Response","Go","relaxed",1,0.291765999994823,"post_correct_resp",98.015873015873
180.599468500004,0.5,"IA6LI11","2022_Jan_05_1023","circle","relaxed_first","MainTask",36,"Fixation","Go","relaxed",1,0.372357000000193,"post_correct_resp",98.015873015873
181.093548000004,0.1,"IA6LI11","2022_Jan_05_1023","circle","relaxed_first","MainTask",36,"Target","Go","relaxed",1,0.372357000000193,"post_correct_resp",98.015873015873
181.193754000007,1.27235700000019,"IA6LI11","2022_Jan_05_1023","circle","relaxed_first","MainTask",36,"ITI","Go","relaxed",1,0.372357000000193,"post_correct_resp",98.015873015873
181.465905000005,0,"IA6LI11","2022_Jan_05_1023","circle","relaxed_first","MainTask",36,"Response","Go","relaxed",1,0.372357000000193,"post_correct_resp",98.015873015873
182.521866100011,0.5,"IA6LI11","2022_Jan_05_1023","circle","relaxed_first","MainTask",37,"Fixation","NoGo","relaxed",1,NA,"post_correct_resp",98.015873015873
183.011863200009,0.1,"IA6LI11","2022_Jan_05_1023","circle","relaxed_first","MainTask",37,"Target","NoGo","relaxed",1,NA,"post_correct_resp",98.015873015873
183.111955500004,1.5,"IA6LI11","2022_Jan_05_1023","circle","relaxed_first","MainTask",37,"ITI","NoGo","relaxed",1,NA,"post_correct_resp",98.015873015873
184.637999900006,0.5,"IA6LI11","2022_Jan_05_1023","circle","relaxed_first","MainTask",38,"Fixation","Go","relaxed",1,0.3026869000023,"post_correct_inh",98.015873015873
185.130281999998,0.1,"IA6LI11","2022_Jan_05_1023","circle","relaxed_first","MainTask",38,"Target","Go","relaxed",1,0.3026869000023,"post_correct_inh",98.015873015873
185.229887400012,1.2026869000023,"IA6LI11","2022_Jan_05_1023","circle","relaxed_first","MainTask",38,"ITI","Go","relaxed",1,0.3026869000023,"post_correct_inh",98.015873015873
185.432968900001,0,"IA6LI11","2022_Jan_05_1023","circle","relaxed_first","MainTask",38,"Response","Go","relaxed",1,0.3026869000023,"post_correct_inh",98.015873015873
186.48780860001,0.5,"IA6LI11","2022_Jan_05_1023","circle","relaxed_first","MainTask",39,"Fixation","Go","relaxed",1,0.290048800001387,"post_correct_resp",98.015873015873
186.981712000008,0.1,"IA6LI11","2022_Jan_05_1023","circle","relaxed_first","MainTask",39,"Target","Go","relaxed",1,0.290048800001387,"post_correct_resp",98.015873015873
187.0819701,1.19004880000139,"IA6LI11","2022_Jan_05_1023","circle","relaxed_first","MainTask",39,"ITI","Go","relaxed",1,0.290048800001387,"post_correct_resp",98.015873015873
187.271760800009,0,"IA6LI11","2022_Jan_05_1023","circle","relaxed_first","MainTask",39,"Response","Go","relaxed",1,0.290048800001387,"post_correct_resp",98.015873015873
188.31788480001,0.5,"IA6LI11","2022_Jan_05_1023","circle","relaxed_first","MainTask",40,"Fixation","NoGo","relaxed",1,NA,"post_correct_resp",98.015873015873
188.800015500005,0.1,"IA6LI11","2022_Jan_05_1023","circle","relaxed_first","MainTask",40,"Target","NoGo","relaxed",1,NA,"post_correct_resp",98.015873015873
188.900258599999,1.5,"IA6LI11","2022_Jan_05_1023","circle","relaxed_first","MainTask",40,"ITI","NoGo","relaxed",1,NA,"post_correct_resp",98.015873015873
190.420678900002,0.5,"IA6LI11","2022_Jan_05_1023","circle","relaxed_first","MainTask",41,"Fixation","Go","relaxed",1,0.318167899997206,"post_correct_inh",98.015873015873
190.91861790001,0.1,"IA6LI11","2022_Jan_05_1023","circle","relaxed_first","MainTask",41,"Target","Go","relaxed",1,0.318167899997206,"post_correct_inh",98.015873015873
191.018531900001,1.21816789999721,"IA6LI11","2022_Jan_05_1023","circle","relaxed_first","MainTask",41,"ITI","Go","relaxed",1,0.318167899997206,"post_correct_inh",98.015873015873
191.236785800007,0,"IA6LI11","2022_Jan_05_1023","circle","relaxed_first","MainTask",41,"Response","Go","relaxed",1,0.318167899997206,"post_correct_inh",98.015873015873
192.276137600013,0.5,"IA6LI11","2022_Jan_05_1023","circle","relaxed_first","MainTask",42,"Fixation","Go","relaxed",1,0.327832800001488,"post_correct_resp",98.015873015873
192.770002000005,0.1,"IA6LI11","2022_Jan_05_1023","circle","relaxed_first","MainTask",42,"Target","Go","relaxed",1,0.327832800001488,"post_correct_resp",98.015873015873
192.870128200011,1.22783280000149,"IA6LI11","2022_Jan_05_1023","circle","relaxed_first","MainTask",42,"ITI","Go","relaxed",1,0.327832800001488,"post_correct_resp",98.015873015873
193.097834800006,0,"IA6LI11","2022_Jan_05_1023","circle","relaxed_first","MainTask",42,"Response","Go","relaxed",1,0.327832800001488,"post_correct_resp",98.015873015873
194.148322400011,0.5,"IA6LI11","2022_Jan_05_1023","circle","relaxed_first","MainTask",43,"Fixation","NoGo","relaxed",1,NA,"post_correct_resp",98.015873015873
194.638343400002,0.1,"IA6LI11","2022_Jan_05_1023","circle","relaxed_first","MainTask",43,"Target","NoGo","relaxed",1,NA,"post_correct_resp",98.015873015873
194.738441599999,1.5,"IA6LI11","2022_Jan_05_1023","circle","relaxed_first","MainTask",43,"ITI","NoGo","relaxed",1,NA,"post_correct_resp",98.015873015873
196.263183000003,0.5,"IA6LI11","2022_Jan_05_1023","circle","relaxed_first","MainTask",44,"Fixation","NoGo","relaxed",1,NA,"post_correct_inh",98.015873015873
196.75663660001,0.1,"IA6LI11","2022_Jan_05_1023","circle","relaxed_first","MainTask",44,"Target","NoGo","relaxed",1,NA,"post_correct_inh",98.015873015873
196.856854000012,1.5,"IA6LI11","2022_Jan_05_1023","circle","relaxed_first","MainTask",44,"ITI","NoGo","relaxed",1,NA,"post_correct_inh",98.015873015873
198.3806492,0.5,"IA6LI11","2022_Jan_05_1023","circle","relaxed_first","MainTask",45,"Fixation","Go","relaxed",1,0.369763100010459,"post_correct_inh",98.015873015873
198.875199400005,0.1,"IA6LI11","2022_Jan_05_1023","circle","relaxed_first","MainTask",45,"Target","Go","relaxed",1,0.369763100010459,"post_correct_inh",98.015873015873
198.975273400007,1.26976310001046,"IA6LI11","2022_Jan_05_1023","circle","relaxed_first","MainTask",45,"ITI","Go","relaxed",1,0.369763100010459,"post_correct_inh",98.015873015873
199.244962500015,0,"IA6LI11","2022_Jan_05_1023","circle","relaxed_first","MainTask",45,"Response","Go","relaxed",1,0.369763100010459,"post_correct_inh",98.015873015873
200.299513500009,0.5,"IA6LI11","2022_Jan_05_1023","circle","relaxed_first","MainTask",46,"Fixation","Go","relaxed",1,0.313418199992157,"post_correct_resp",98.015873015873
200.793213500001,0.1,"IA6LI11","2022_Jan_05_1023","circle","relaxed_first","MainTask",46,"Target","Go","relaxed",1,0.313418199992157,"post_correct_resp",98.015873015873
200.893404600007,1.21341819999216,"IA6LI11","2022_Jan_05_1023","circle","relaxed_first","MainTask",46,"ITI","Go","relaxed",1,0.313418199992157,"post_correct_resp",98.015873015873
201.106631699993,0,"IA6LI11","2022_Jan_05_1023","circle","relaxed_first","MainTask",46,"Response","Go","relaxed",1,0.313418199992157,"post_correct_resp",98.015873015873
202.151626400009,0.5,"IA6LI11","2022_Jan_05_1023","circle","relaxed_first","MainTask",47,"Fixation","Go","relaxed",1,0.301935999988928,"post_correct_resp",98.015873015873
202.644834700011,0.1,"IA6LI11","2022_Jan_05_1023","circle","relaxed_first","MainTask",47,"Target","Go","relaxed",1,0.301935999988928,"post_correct_resp",98.015873015873
202.745062600006,1.20193599998893,"IA6LI11","2022_Jan_05_1023","circle","relaxed_first","MainTask",47,"ITI","Go","relaxed",1,0.301935999988928,"post_correct_resp",98.015873015873
202.9467707,0,"IA6LI11","2022_Jan_05_1023","circle","relaxed_first","MainTask",47,"Response","Go","relaxed",1,0.301935999988928,"post_correct_resp",98.015873015873
203.985773799999,0.5,"IA6LI11","2022_Jan_05_1023","circle","relaxed_first","MainTask",48,"Fixation","Go","relaxed",1,0.369274399999995,"post_correct_resp",98.015873015873
204.479672900008,0.1,"IA6LI11","2022_Jan_05_1023","circle","relaxed_first","MainTask",48,"Target","Go","relaxed",1,0.369274399999995,"post_correct_resp",98.015873015873
204.579944800003,1.26927439999999,"IA6LI11","2022_Jan_05_1023","circle","relaxed_first","MainTask",48,"ITI","Go","relaxed",1,0.369274399999995,"post_correct_resp",98.015873015873
204.848947300008,0,"IA6LI11","2022_Jan_05_1023","circle","relaxed_first","MainTask",48,"Response","Go","relaxed",1,0.369274399999995,"post_correct_resp",98.015873015873
205.908113199999,0.5,"IA6LI11","2022_Jan_05_1023","circle","relaxed_first","MainTask",49,"Fixation","NoGo","relaxed",1,NA,"post_correct_resp",98.015873015873
206.398121200007,0.1,"IA6LI11","2022_Jan_05_1023","circle","relaxed_first","MainTask",49,"Target","NoGo","relaxed",1,NA,"post_correct_resp",98.015873015873
206.498029300012,1.5,"IA6LI11","2022_Jan_05_1023","circle","relaxed_first","MainTask",49,"ITI","NoGo","relaxed",1,NA,"post_correct_resp",98.015873015873
208.026356000002,0.5,"IA6LI11","2022_Jan_05_1023","circle","relaxed_first","MainTask",50,"Fixation","Go","relaxed",1,0.468498400005046,"post_correct_inh",98.015873015873
208.516415500009,0.1,"IA6LI11","2022_Jan_05_1023","circle","relaxed_first","MainTask",50,"Target","Go","relaxed",1,0.468498400005046,"post_correct_inh",98.015873015873
208.616499900003,1.36849840000505,"IA6LI11","2022_Jan_05_1023","circle","relaxed_first","MainTask",50,"ITI","Go","relaxed",1,0.468498400005046,"post_correct_inh",98.015873015873
208.984913900014,0,"IA6LI11","2022_Jan_05_1023","circle","relaxed_first","MainTask",50,"Response","Go","relaxed",1,0.468498400005046,"post_correct_inh",98.015873015873
210.028581600011,0.5,"IA6LI11","2022_Jan_05_1023","circle","relaxed_first","MainTask",51,"Fixation","NoGo","relaxed",1,NA,"post_correct_resp",98.015873015873
210.518077800007,0.1,"IA6LI11","2022_Jan_05_1023","circle","relaxed_first","MainTask",51,"Target","NoGo","relaxed",1,NA,"post_correct_resp",98.015873015873
210.6180246,1.5,"IA6LI11","2022_Jan_05_1023","circle","relaxed_first","MainTask",51,"ITI","NoGo","relaxed",1,NA,"post_correct_resp",98.015873015873
212.138399800009,0.5,"IA6LI11","2022_Jan_05_1023","circle","relaxed_first","MainTask",52,"Fixation","Go","relaxed",1,0.28160289999505,"post_correct_inh",98.015873015873
212.636430300001,0.1,"IA6LI11","2022_Jan_05_1023","circle","relaxed_first","MainTask",52,"Target","Go","relaxed",1,0.28160289999505,"post_correct_inh",98.015873015873
212.736732600009,1.18160289999505,"IA6LI11","2022_Jan_05_1023","circle","relaxed_first","MainTask",52,"ITI","Go","relaxed",1,0.28160289999505,"post_correct_inh",98.015873015873
212.918033199996,0,"IA6LI11","2022_Jan_05_1023","circle","relaxed_first","MainTask",52,"Response","Go","relaxed",1,0.28160289999505,"post_correct_inh",98.015873015873
213.964720200005,0.5,"IA6LI11","2022_Jan_05_1023","circle","relaxed_first","MainTask",53,"Fixation","NoGo","relaxed",1,NA,"post_correct_resp",98.015873015873
214.454687200006,0.1,"IA6LI11","2022_Jan_05_1023","circle","relaxed_first","MainTask",53,"Target","NoGo","relaxed",1,NA,"post_correct_resp",98.015873015873
214.554930400001,1.5,"IA6LI11","2022_Jan_05_1023","circle","relaxed_first","MainTask",53,"ITI","NoGo","relaxed",1,NA,"post_correct_resp",98.015873015873
216.078510700012,0.5,"IA6LI11","2022_Jan_05_1023","circle","relaxed_first","MainTask",54,"Fixation","NoGo","relaxed",1,NA,"post_correct_inh",98.015873015873
216.573201300009,0.1,"IA6LI11","2022_Jan_05_1023","circle","relaxed_first","MainTask",54,"Target","NoGo","relaxed",1,NA,"post_correct_inh",98.015873015873
216.673252600012,1.5,"IA6LI11","2022_Jan_05_1023","circle","relaxed_first","MainTask",54,"ITI","NoGo","relaxed",1,NA,"post_correct_inh",98.015873015873
218.198985200012,0.5,"IA6LI11","2022_Jan_05_1023","circle","relaxed_first","MainTask",55,"Fixation","Go","relaxed",1,0.3612562000053,"post_correct_inh",98.015873015873
218.691502900008,0.1,"IA6LI11","2022_Jan_05_1023","circle","relaxed_first","MainTask",55,"Target","Go","relaxed",1,0.3612562000053,"post_correct_inh",98.015873015873
218.791656300004,1.2612562000053,"IA6LI11","2022_Jan_05_1023","circle","relaxed_first","MainTask",55,"ITI","Go","relaxed",1,0.3612562000053,"post_correct_inh",98.015873015873
219.052759100014,0,"IA6LI11","2022_Jan_05_1023","circle","relaxed_first","MainTask",55,"Response","Go","relaxed",1,0.3612562000053,"post_correct_inh",98.015873015873
220.099058100008,0.5,"IA6LI11","2022_Jan_05_1023","circle","relaxed_first","MainTask",56,"Fixation","Go","relaxed",1,0.348973800006206,"post_correct_resp",98.015873015873
220.59306900001,0.1,"IA6LI11","2022_Jan_05_1023","circle","relaxed_first","MainTask",56,"Target","Go","relaxed",1,0.348973800006206,"post_correct_resp",98.015873015873
220.693243100002,1.24897380000621,"IA6LI11","2022_Jan_05_1023","circle","relaxed_first","MainTask",56,"ITI","Go","relaxed",1,0.348973800006206,"post_correct_resp",98.015873015873
220.942042800016,0,"IA6LI11","2022_Jan_05_1023","circle","relaxed_first","MainTask",56,"Response","Go","relaxed",1,0.348973800006206,"post_correct_resp",98.015873015873
221.9847419,0.5,"IA6LI11","2022_Jan_05_1023","circle","relaxed_first","MainTask",57,"Fixation","Go","relaxed",1,0.311953299999004,"post_correct_resp",98.015873015873
222.4779423,0.1,"IA6LI11","2022_Jan_05_1023","circle","relaxed_first","MainTask",57,"Target","Go","relaxed",1,0.311953299999004,"post_correct_resp",98.015873015873
222.57808430001,1.211953299999,"IA6LI11","2022_Jan_05_1023","circle","relaxed_first","MainTask",57,"ITI","Go","relaxed",1,0.311953299999004,"post_correct_resp",98.015873015873
222.789895599999,0,"IA6LI11","2022_Jan_05_1023","circle","relaxed_first","MainTask",57,"Response","Go","relaxed",1,0.311953299999004,"post_correct_resp",98.015873015873
223.831395800007,0.5,"IA6LI11","2022_Jan_05_1023","circle","relaxed_first","MainTask",58,"Fixation","Go","relaxed",1,0.280645200007712,"post_correct_resp",98.015873015873
224.3295316,0.1,"IA6LI11","2022_Jan_05_1023","circle","relaxed_first","MainTask",58,"Target","Go","relaxed",1,0.280645200007712,"post_correct_resp",98.015873015873
224.429718800006,1.18064520000771,"IA6LI11","2022_Jan_05_1023","circle","relaxed_first","MainTask",58,"ITI","Go","relaxed",1,0.280645200007712,"post_correct_resp",98.015873015873
224.610176800008,0,"IA6LI11","2022_Jan_05_1023","circle","relaxed_first","MainTask",58,"Response","Go","relaxed",1,0.280645200007712,"post_correct_resp",98.015873015873
225.654540300005,0.5,"IA6LI11","2022_Jan_05_1023","circle","relaxed_first","MainTask",59,"Fixation","NoGo","relaxed",1,NA,"post_correct_resp",98.015873015873
226.13112630001,0.1,"IA6LI11","2022_Jan_05_1023","circle","relaxed_first","MainTask",59,"Target","NoGo","relaxed",1,NA,"post_correct_resp",98.015873015873
226.231278200008,1.5,"IA6LI11","2022_Jan_05_1023","circle","relaxed_first","MainTask",59,"ITI","NoGo","relaxed",1,NA,"post_correct_resp",98.015873015873
227.756009500008,0.5,"IA6LI11","2022_Jan_05_1023","circle","relaxed_first","MainTask",60,"Fixation","NoGo","relaxed",1,NA,"post_correct_inh",98.015873015873
228.249464000008,0.1,"IA6LI11","2022_Jan_05_1023","circle","relaxed_first","MainTask",60,"Target","NoGo","relaxed",1,NA,"post_correct_inh",98.015873015873
228.349508300002,1.5,"IA6LI11","2022_Jan_05_1023","circle","relaxed_first","MainTask",60,"ITI","NoGo","relaxed",1,NA,"post_correct_inh",98.015873015873
229.874766699999,0.5,"IA6LI11","2022_Jan_05_1023","circle","relaxed_first","MainTask",61,"Fixation","NoGo","relaxed",1,NA,"post_correct_inh",98.015873015873
230.367836200006,0.1,"IA6LI11","2022_Jan_05_1023","circle","relaxed_first","MainTask",61,"Target","NoGo","relaxed",1,NA,"post_correct_inh",98.015873015873
230.468037600003,1.5,"IA6LI11","2022_Jan_05_1023","circle","relaxed_first","MainTask",61,"ITI","NoGo","relaxed",1,NA,"post_correct_inh",98.015873015873
231.992237900005,0.5,"IA6LI11","2022_Jan_05_1023","circle","relaxed_first","MainTask",62,"Fixation","NoGo","relaxed",1,NA,"post_correct_inh",98.015873015873
232.486337200011,0.1,"IA6LI11","2022_Jan_05_1023","circle","relaxed_first","MainTask",62,"Target","NoGo","relaxed",1,NA,"post_correct_inh",98.015873015873
232.586534600006,1.5,"IA6LI11","2022_Jan_05_1023","circle","relaxed_first","MainTask",62,"ITI","NoGo","relaxed",1,NA,"post_correct_inh",98.015873015873
234.110193800007,0.5,"IA6LI11","2022_Jan_05_1023","circle","relaxed_first","MainTask",63,"Fixation","NoGo","relaxed",1,NA,"post_correct_inh",98.015873015873
234.60465590001,0.1,"IA6LI11","2022_Jan_05_1023","circle","relaxed_first","MainTask",63,"Target","NoGo","relaxed",1,NA,"post_correct_inh",98.015873015873
234.704904500002,1.5,"IA6LI11","2022_Jan_05_1023","circle","relaxed_first","MainTask",63,"ITI","NoGo","relaxed",1,NA,"post_correct_inh",98.015873015873
236.2321562,0.5,"IA6LI11","2022_Jan_05_1023","circle","relaxed_first","MainTask",64,"Fixation","Go","relaxed",1,0.373931100009941,"post_correct_inh",98.015873015873
236.723248599999,0.1,"IA6LI11","2022_Jan_05_1023","circle","relaxed_first","MainTask",64,"Target","Go","relaxed",1,0.373931100009941,"post_correct_inh",98.015873015873
236.823196700003,1.27393110000994,"IA6LI11","2022_Jan_05_1023","circle","relaxed_first","MainTask",64,"ITI","Go","relaxed",1,0.373931100009941,"post_correct_inh",98.015873015873
237.097179700009,0,"IA6LI11","2022_Jan_05_1023","circle","relaxed_first","MainTask",64,"Response","Go","relaxed",1,0.373931100009941,"post_correct_inh",98.015873015873
238.14880580001,0.5,"IA6LI11","2022_Jan_05_1023","circle","relaxed_first","MainTask",65,"Fixation","NoGo","relaxed",1,NA,"post_correct_resp",98.015873015873
238.641600400006,0.1,"IA6LI11","2022_Jan_05_1023","circle","relaxed_first","MainTask",65,"Target","NoGo","relaxed",1,NA,"post_correct_resp",98.015873015873
238.741800300006,1.5,"IA6LI11","2022_Jan_05_1023","circle","relaxed_first","MainTask",65,"ITI","NoGo","relaxed",1,NA,"post_correct_resp",98.015873015873
240.266110000011,0.5,"IA6LI11","2022_Jan_05_1023","circle","relaxed_first","MainTask",66,"Fixation","NoGo","relaxed",1,NA,"post_correct_inh",98.015873015873
240.759888300003,0.1,"IA6LI11","2022_Jan_05_1023","circle","relaxed_first","MainTask",66,"Target","NoGo","relaxed",1,NA,"post_correct_inh",98.015873015873
240.859706100004,1.5,"IA6LI11","2022_Jan_05_1023","circle","relaxed_first","MainTask",66,"ITI","NoGo","relaxed",1,NA,"post_correct_inh",98.015873015873
242.386665500002,0.5,"IA6LI11","2022_Jan_05_1023","circle","relaxed_first","MainTask",67,"Fixation","Go","relaxed",1,0.319528799998807,"post_correct_inh",98.015873015873
242.878411500002,0.1,"IA6LI11","2022_Jan_05_1023","circle","relaxed_first","MainTask",67,"Target","Go","relaxed",1,0.319528799998807,"post_correct_inh",98.015873015873
242.978301399999,1.21952879999881,"IA6LI11","2022_Jan_05_1023","circle","relaxed_first","MainTask",67,"ITI","Go","relaxed",1,0.319528799998807,"post_correct_inh",98.015873015873
243.1979403,0,"IA6LI11","2022_Jan_05_1023","circle","relaxed_first","MainTask",67,"Response","Go","relaxed",1,0.319528799998807,"post_correct_inh",98.015873015873
244.252392900002,0.5,"IA6LI11","2022_Jan_05_1023","circle","relaxed_first","MainTask",68,"Fixation","Go","relaxed",1,0.365656699999818,"post_correct_resp",98.015873015873
244.746603500011,0.1,"IA6LI11","2022_Jan_05_1023","circle","relaxed_first","MainTask",68,"Target","Go","relaxed",1,0.365656699999818,"post_correct_resp",98.015873015873
244.846623000005,1.26565669999982,"IA6LI11","2022_Jan_05_1023","circle","relaxed_first","MainTask",68,"ITI","Go","relaxed",1,0.365656699999818,"post_correct_resp",98.015873015873
245.11226020001,0,"IA6LI11","2022_Jan_05_1023","circle","relaxed_first","MainTask",68,"Response","Go","relaxed",1,0.365656699999818,"post_correct_resp",98.015873015873
246.15488300001,0.5,"IA6LI11","2022_Jan_05_1023","circle","relaxed_first","MainTask",69,"Fixation","Go","relaxed",1,0.325307400009478,"post_correct_resp",98.015873015873
246.631503900004,0.1,"IA6LI11","2022_Jan_05_1023","circle","relaxed_first","MainTask",69,"Target","Go","relaxed",1,0.325307400009478,"post_correct_resp",98.015873015873
246.731650800008,1.22530740000948,"IA6LI11","2022_Jan_05_1023","circle","relaxed_first","MainTask",69,"ITI","Go","relaxed",1,0.325307400009478,"post_correct_resp",98.015873015873
246.956811300013,0,"IA6LI11","2022_Jan_05_1023","circle","relaxed_first","MainTask",69,"Response","Go","relaxed",1,0.325307400009478,"post_correct_resp",98.015873015873
248.009773199999,0.5,"IA6LI11","2022_Jan_05_1023","circle","relaxed_first","MainTask",70,"Fixation","NoGo","relaxed",1,NA,"post_correct_resp",98.015873015873
248.499931700004,0.1,"IA6LI11","2022_Jan_05_1023","circle","relaxed_first","MainTask",70,"Target","NoGo","relaxed",1,NA,"post_correct_resp",98.015873015873
248.599655500002,1.5,"IA6LI11","2022_Jan_05_1023","circle","relaxed_first","MainTask",70,"ITI","NoGo","relaxed",1,NA,"post_correct_resp",98.015873015873
250.119848900009,0.5,"IA6LI11","2022_Jan_05_1023","circle","relaxed_first","MainTask",71,"Fixation","Go","relaxed",1,0.29478250000102,"post_correct_inh",98.015873015873
250.618089700001,0.1,"IA6LI11","2022_Jan_05_1023","circle","relaxed_first","MainTask",71,"Target","Go","relaxed",1,0.29478250000102,"post_correct_inh",98.015873015873
250.718269400008,1.19478250000102,"IA6LI11","2022_Jan_05_1023","circle","relaxed_first","MainTask",71,"ITI","Go","relaxed",1,0.29478250000102,"post_correct_inh",98.015873015873
250.912872200002,0,"IA6LI11","2022_Jan_05_1023","circle","relaxed_first","MainTask",71,"Response","Go","relaxed",1,0.29478250000102,"post_correct_inh",98.015873015873
251.962998500007,0.5,"IA6LI11","2022_Jan_05_1023","circle","relaxed_first","MainTask",72,"Fixation","NoGo","relaxed",1,NA,"post_correct_resp",98.015873015873
252.453083400003,0.1,"IA6LI11","2022_Jan_05_1023","circle","relaxed_first","MainTask",72,"Target","NoGo","relaxed",1,NA,"post_correct_resp",98.015873015873
252.553195400003,1.5,"IA6LI11","2022_Jan_05_1023","circle","relaxed_first","MainTask",72,"ITI","NoGo","relaxed",1,NA,"post_correct_resp",98.015873015873
254.078167900007,0.5,"IA6LI11","2022_Jan_05_1023","circle","relaxed_first","MainTask",73,"Fixation","NoGo","relaxed",1,NA,"post_correct_inh",98.015873015873
254.571170200012,0.1,"IA6LI11","2022_Jan_05_1023","circle","relaxed_first","MainTask",73,"Target","NoGo","relaxed",1,NA,"post_correct_inh",98.015873015873
254.671969300005,1.5,"IA6LI11","2022_Jan_05_1023","circle","relaxed_first","MainTask",73,"ITI","NoGo","relaxed",1,NA,"post_correct_inh",98.015873015873
256.198255300013,0.5,"IA6LI11","2022_Jan_05_1023","circle","relaxed_first","MainTask",74,"Fixation","Go","relaxed",1,0.354422000003979,"post_correct_inh",98.015873015873
256.689332300011,0.1,"IA6LI11","2022_Jan_05_1023","circle","relaxed_first","MainTask",74,"Target","Go","relaxed",1,0.354422000003979,"post_correct_inh",98.015873015873
256.789875100003,1.25442200000398,"IA6LI11","2022_Jan_05_1023","circle","relaxed_first","MainTask",74,"ITI","Go","relaxed",1,0.354422000003979,"post_correct_inh",98.015873015873
257.043754300015,0,"IA6LI11","2022_Jan_05_1023","circle","relaxed_first","MainTask",74,"Response","Go","relaxed",1,0.354422000003979,"post_correct_inh",98.015873015873
258.096319500008,0.5,"IA6LI11","2022_Jan_05_1023","circle","relaxed_first","MainTask",75,"Fixation","Go","relaxed",1,0.365718100001686,"post_correct_resp",98.015873015873
258.591292199999,0.1,"IA6LI11","2022_Jan_05_1023","circle","relaxed_first","MainTask",75,"Target","Go","relaxed",1,0.365718100001686,"post_correct_resp",98.015873015873
258.691961500008,1.26571810000169,"IA6LI11","2022_Jan_05_1023","circle","relaxed_first","MainTask",75,"ITI","Go","relaxed",1,0.365718100001686,"post_correct_resp",98.015873015873
258.957010300001,0,"IA6LI11","2022_Jan_05_1023","circle","relaxed_first","MainTask",75,"Response","Go","relaxed",1,0.365718100001686,"post_correct_resp",98.015873015873
259.997899400012,0.5,"IA6LI11","2022_Jan_05_1023","circle","relaxed_first","MainTask",76,"Fixation","Go","relaxed",1,0.356082300000708,"post_correct_resp",98.015873015873
260.492967300001,0.1,"IA6LI11","2022_Jan_05_1023","circle","relaxed_first","MainTask",76,"Target","Go","relaxed",1,0.356082300000708,"post_correct_resp",98.015873015873
260.5928021,1.25608230000071,"IA6LI11","2022_Jan_05_1023","circle","relaxed_first","MainTask",76,"ITI","Go","relaxed",1,0.356082300000708,"post_correct_resp",98.015873015873
260.849049600001,0,"IA6LI11","2022_Jan_05_1023","circle","relaxed_first","MainTask",76,"Response","Go","relaxed",1,0.356082300000708,"post_correct_resp",98.015873015873
261.900848400008,0.5,"IA6LI11","2022_Jan_05_1023","circle","relaxed_first","MainTask",77,"Fixation","Go","relaxed",1,0.339365599997109,"post_correct_resp",98.015873015873
262.394683300008,0.1,"IA6LI11","2022_Jan_05_1023","circle","relaxed_first","MainTask",77,"Target","Go","relaxed",1,0.339365599997109,"post_correct_resp",98.015873015873
262.49470190001,1.23936559999711,"IA6LI11","2022_Jan_05_1023","circle","relaxed_first","MainTask",77,"ITI","Go","relaxed",1,0.339365599997109,"post_correct_resp",98.015873015873
262.734048900005,0,"IA6LI11","2022_Jan_05_1023","circle","relaxed_first","MainTask",77,"Response","Go","relaxed",1,0.339365599997109,"post_correct_resp",98.015873015873
263.785525500003,0.5,"IA6LI11","2022_Jan_05_1023","circle","relaxed_first","MainTask",78,"Fixation","Go","relaxed",1,0.307497100002365,"post_correct_resp",98.015873015873
264.279437300007,0.1,"IA6LI11","2022_Jan_05_1023","circle","relaxed_first","MainTask",78,"Target","Go","relaxed",1,0.307497100002365,"post_correct_resp",98.015873015873
264.379691200011,1.20749710000237,"IA6LI11","2022_Jan_05_1023","circle","relaxed_first","MainTask",78,"ITI","Go","relaxed",1,0.307497100002365,"post_correct_resp",98.015873015873
264.586934400009,0,"IA6LI11","2022_Jan_05_1023","circle","relaxed_first","MainTask",78,"Response","Go","relaxed",1,0.307497100002365,"post_correct_resp",98.015873015873
265.632960900009,0.5,"IA6LI11","2022_Jan_05_1023","circle","relaxed_first","MainTask",79,"Fixation","Go","relaxed",1,0.30486319999909,"post_correct_resp",98.015873015873
266.13099060001,0.1,"IA6LI11","2022_Jan_05_1023","circle","relaxed_first","MainTask",79,"Target","Go","relaxed",1,0.30486319999909,"post_correct_resp",98.015873015873
266.231153100001,1.20486319999909,"IA6LI11","2022_Jan_05_1023","circle","relaxed_first","MainTask",79,"ITI","Go","relaxed",1,0.30486319999909,"post_correct_resp",98.015873015873
266.435853800009,0,"IA6LI11","2022_Jan_05_1023","circle","relaxed_first","MainTask",79,"Response","Go","relaxed",1,0.30486319999909,"post_correct_resp",98.015873015873
267.490141700007,0.5,"IA6LI11","2022_Jan_05_1023","circle","relaxed_first","MainTask",80,"Fixation","Go","relaxed",1,0.28402430001006,"post_correct_resp",98.015873015873
267.965824300001,0.1,"IA6LI11","2022_Jan_05_1023","circle","relaxed_first","MainTask",80,"Target","Go","relaxed",1,0.28402430001006,"post_correct_resp",98.015873015873
268.065959800006,1.18402430001006,"IA6LI11","2022_Jan_05_1023","circle","relaxed_first","MainTask",80,"ITI","Go","relaxed",1,0.28402430001006,"post_correct_resp",98.015873015873
268.249848600011,0,"IA6LI11","2022_Jan_05_1023","circle","relaxed_first","MainTask",80,"Response","Go","relaxed",1,0.28402430001006,"post_correct_resp",98.015873015873
269.285492200012,0.5,"IA6LI11","2022_Jan_05_1023","circle","relaxed_first","MainTask",81,"Fixation","Go","relaxed",1,0.292453800007934,"post_correct_resp",98.015873015873
269.767321600011,0.1,"IA6LI11","2022_Jan_05_1023","circle","relaxed_first","MainTask",81,"Target","Go","relaxed",1,0.292453800007934,"post_correct_resp",98.015873015873
269.867503000001,1.19245380000793,"IA6LI11","2022_Jan_05_1023","circle","relaxed_first","MainTask",81,"ITI","Go","relaxed",1,0.292453800007934,"post_correct_resp",98.015873015873
270.059775400019,0,"IA6LI11","2022_Jan_05_1023","circle","relaxed_first","MainTask",81,"Response","Go","relaxed",1,0.292453800007934,"post_correct_resp",98.015873015873
271.112995500007,0.5,"IA6LI11","2022_Jan_05_1023","circle","relaxed_first","MainTask",82,"Fixation","NoGo","relaxed",1,NA,"post_correct_resp",98.015873015873
271.602266100002,0.1,"IA6LI11","2022_Jan_05_1023","circle","relaxed_first","MainTask",82,"Target","NoGo","relaxed",1,NA,"post_correct_resp",98.015873015873
271.702227900008,1.5,"IA6LI11","2022_Jan_05_1023","circle","relaxed_first","MainTask",82,"ITI","NoGo","relaxed",1,NA,"post_correct_resp",98.015873015873
273.222236700007,0.5,"IA6LI11","2022_Jan_05_1023","circle","relaxed_first","MainTask",83,"Fixation","Go","relaxed",1,0.306298700001207,"post_correct_inh",98.015873015873
273.720646600006,0.1,"IA6LI11","2022_Jan_05_1023","circle","relaxed_first","MainTask",83,"Target","Go","relaxed",1,0.306298700001207,"post_correct_inh",98.015873015873
273.820697800009,1.20629870000121,"IA6LI11","2022_Jan_05_1023","circle","relaxed_first","MainTask",83,"ITI","Go","relaxed",1,0.306298700001207,"post_correct_inh",98.015873015873
274.026945300007,0,"IA6LI11","2022_Jan_05_1023","circle","relaxed_first","MainTask",83,"Response","Go","relaxed",1,0.306298700001207,"post_correct_inh",98.015873015873
275.079764499998,0.5,"IA6LI11","2022_Jan_05_1023","circle","relaxed_first","MainTask",84,"Fixation","NoGo","relaxed",1,NA,"post_correct_resp",98.015873015873
275.572182400007,0.1,"IA6LI11","2022_Jan_05_1023","circle","relaxed_first","MainTask",84,"Target","NoGo","relaxed",1,NA,"post_correct_resp",98.015873015873
275.672312200011,1.5,"IA6LI11","2022_Jan_05_1023","circle","relaxed_first","MainTask",84,"ITI","NoGo","relaxed",1,NA,"post_correct_resp",98.015873015873
277.191832100012,0.5,"IA6LI11","2022_Jan_05_1023","circle","relaxed_first","MainTask",85,"Fixation","NoGo","relaxed",1,NA,"post_correct_inh",98.015873015873
277.690540399999,0.1,"IA6LI11","2022_Jan_05_1023","circle","relaxed_first","MainTask",85,"Target","NoGo","relaxed",1,NA,"post_correct_inh",98.015873015873
277.790674100004,1.5,"IA6LI11","2022_Jan_05_1023","circle","relaxed_first","MainTask",85,"ITI","NoGo","relaxed",1,NA,"post_correct_inh",98.015873015873
279.3161999,0.5,"IA6LI11","2022_Jan_05_1023","circle","relaxed_first","MainTask",86,"Fixation","Go","relaxed",1,0.330576799999108,"post_correct_inh",98.015873015873
279.792339000007,0.1,"IA6LI11","2022_Jan_05_1023","circle","relaxed_first","MainTask",86,"Target","Go","relaxed",1,0.330576799999108,"post_correct_inh",98.015873015873
279.892560699998,1.23057679999911,"IA6LI11","2022_Jan_05_1023","circle","relaxed_first","MainTask",86,"ITI","Go","relaxed",1,0.330576799999108,"post_correct_inh",98.015873015873
280.122915800006,0,"IA6LI11","2022_Jan_05_1023","circle","relaxed_first","MainTask",86,"Response","Go","relaxed",1,0.330576799999108,"post_correct_inh",98.015873015873
281.167518900009,0.5,"IA6LI11","2022_Jan_05_1023","circle","relaxed_first","MainTask",87,"Fixation","NoGo","relaxed",1,NA,"post_correct_resp",98.015873015873
281.660562000005,0.1,"IA6LI11","2022_Jan_05_1023","circle","relaxed_first","MainTask",87,"Target","NoGo","relaxed",1,NA,"post_correct_resp",98.015873015873
281.760586300006,1.5,"IA6LI11","2022_Jan_05_1023","circle","relaxed_first","MainTask",87,"ITI","NoGo","relaxed",1,NA,"post_correct_resp",98.015873015873
283.281401900007,0.5,"IA6LI11","2022_Jan_05_1023","circle","relaxed_first","MainTask",88,"Fixation","Go","relaxed",1,0.406074099999387,"post_correct_inh",98.015873015873
283.778996100009,0.1,"IA6LI11","2022_Jan_05_1023","circle","relaxed_first","MainTask",88,"Target","Go","relaxed",1,0.406074099999387,"post_correct_inh",98.015873015873
283.879198499999,1.30607409999939,"IA6LI11","2022_Jan_05_1023","circle","relaxed_first","MainTask",88,"ITI","Go","relaxed",1,0.406074099999387,"post_correct_inh",98.015873015873
284.185070200008,0,"IA6LI11","2022_Jan_05_1023","circle","relaxed_first","MainTask",88,"Response","Go","relaxed",1,0.406074099999387,"post_correct_inh",98.015873015873
285.232452000011,0.5,"IA6LI11","2022_Jan_05_1023","circle","relaxed_first","MainTask",89,"Fixation","Go","relaxed",1,0.344134700004361,"post_correct_resp",98.015873015873
285.73064020001,0.1,"IA6LI11","2022_Jan_05_1023","circle","relaxed_first","MainTask",89,"Target","Go","relaxed",1,0.344134700004361,"post_correct_resp",98.015873015873
285.830817800001,1.24413470000436,"IA6LI11","2022_Jan_05_1023","circle","relaxed_first","MainTask",89,"ITI","Go","relaxed",1,0.344134700004361,"post_correct_resp",98.015873015873
286.074774900015,0,"IA6LI11","2022_Jan_05_1023","circle","relaxed_first","MainTask",89,"Response","Go","relaxed",1,0.344134700004361,"post_correct_resp",98.015873015873
287.121901300008,0.5,"IA6LI11","2022_Jan_05_1023","circle","relaxed_first","MainTask",90,"Fixation","Go","relaxed",1,0.361124500006554,"post_correct_resp",98.015873015873
287.615633900001,0.1,"IA6LI11","2022_Jan_05_1023","circle","relaxed_first","MainTask",90,"Target","Go","relaxed",1,0.361124500006554,"post_correct_resp",98.015873015873
287.715731500008,1.26112450000655,"IA6LI11","2022_Jan_05_1023","circle","relaxed_first","MainTask",90,"ITI","Go","relaxed",1,0.361124500006554,"post_correct_resp",98.015873015873
287.976758400007,0,"IA6LI11","2022_Jan_05_1023","circle","relaxed_first","MainTask",90,"Response","Go","relaxed",1,0.361124500006554,"post_correct_resp",98.015873015873
289.016223500003,0.5,"IA6LI11","2022_Jan_05_1023","circle","relaxed_first","MainTask",91,"Fixation","Go","relaxed",1,0.28633030000492,"post_correct_resp",98.015873015873
289.500364600011,0.1,"IA6LI11","2022_Jan_05_1023","circle","relaxed_first","MainTask",91,"Target","Go","relaxed",1,0.28633030000492,"post_correct_resp",98.015873015873
289.600628100001,1.18633030000492,"IA6LI11","2022_Jan_05_1023","circle","relaxed_first","MainTask",91,"ITI","Go","relaxed",1,0.28633030000492,"post_correct_resp",98.015873015873
289.786694900016,0,"IA6LI11","2022_Jan_05_1023","circle","relaxed_first","MainTask",91,"Response","Go","relaxed",1,0.28633030000492,"post_correct_resp",98.015873015873
290.8415313,0.5,"IA6LI11","2022_Jan_05_1023","circle","relaxed_first","MainTask",92,"Fixation","Go","relaxed",1,0.277629699994577,"post_correct_resp",98.015873015873
291.335266200011,0.1,"IA6LI11","2022_Jan_05_1023","circle","relaxed_first","MainTask",92,"Target","Go","relaxed",1,0.277629699994577,"post_correct_resp",98.015873015873
291.4354513,1.17762969999458,"IA6LI11","2022_Jan_05_1023","circle","relaxed_first","MainTask",92,"ITI","Go","relaxed",1,0.277629699994577,"post_correct_resp",98.015873015873
291.612895900005,0,"IA6LI11","2022_Jan_05_1023","circle","relaxed_first","MainTask",92,"Response","Go","relaxed",1,0.277629699994577,"post_correct_resp",98.015873015873
292.6550498,0.5,"IA6LI11","2022_Jan_05_1023","circle","relaxed_first","MainTask",93,"Fixation","Go","relaxed",1,0.329929400002584,"post_correct_resp",98.015873015873
293.153450400001,0.1,"IA6LI11","2022_Jan_05_1023","circle","relaxed_first","MainTask",93,"Target","Go","relaxed",1,0.329929400002584,"post_correct_resp",98.015873015873
293.253527400011,1.22992940000258,"IA6LI11","2022_Jan_05_1023","circle","relaxed_first","MainTask",93,"ITI","Go","relaxed",1,0.329929400002584,"post_correct_resp",98.015873015873
293.483379800004,0,"IA6LI11","2022_Jan_05_1023","circle","relaxed_first","MainTask",93,"Response","Go","relaxed",1,0.329929400002584,"post_correct_resp",98.015873015873
294.523001300011,0.5,"IA6LI11","2022_Jan_05_1023","circle","relaxed_first","MainTask",94,"Fixation","Go","relaxed",1,0.289801300008548,"post_correct_resp",98.015873015873
295.0049784,0.1,"IA6LI11","2022_Jan_05_1023","circle","relaxed_first","MainTask",94,"Target","Go","relaxed",1,0.289801300008548,"post_correct_resp",98.015873015873
295.105073300001,1.18980130000855,"IA6LI11","2022_Jan_05_1023","circle","relaxed_first","MainTask",94,"ITI","Go","relaxed",1,0.289801300008548,"post_correct_resp",98.015873015873
295.294779700009,0,"IA6LI11","2022_Jan_05_1023","circle","relaxed_first","MainTask",94,"Response","Go","relaxed",1,0.289801300008548,"post_correct_resp",98.015873015873
296.3439812,0.5,"IA6LI11","2022_Jan_05_1023","circle","relaxed_first","MainTask",95,"Fixation","Go","relaxed",1,0.307089699999779,"post_correct_resp",98.015873015873
296.839754500004,0.1,"IA6LI11","2022_Jan_05_1023","circle","relaxed_first","MainTask",95,"Target","Go","relaxed",1,0.307089699999779,"post_correct_resp",98.015873015873
296.939862200001,1.20708969999978,"IA6LI11","2022_Jan_05_1023","circle","relaxed_first","MainTask",95,"ITI","Go","relaxed",1,0.307089699999779,"post_correct_resp",98.015873015873
297.146844200004,0,"IA6LI11","2022_Jan_05_1023","circle","relaxed_first","MainTask",95,"Response","Go","relaxed",1,0.307089699999779,"post_correct_resp",98.015873015873
298.2008546,0.5,"IA6LI11","2022_Jan_05_1023","circle","relaxed_first","MainTask",96,"Fixation","NoGo","relaxed",1,NA,"post_correct_resp",98.015873015873
298.691004600012,0.1,"IA6LI11","2022_Jan_05_1023","circle","relaxed_first","MainTask",96,"Target","NoGo","relaxed",1,NA,"post_correct_resp",98.015873015873
298.791579900004,1.5,"IA6LI11","2022_Jan_05_1023","circle","relaxed_first","MainTask",96,"ITI","NoGo","relaxed",1,NA,"post_correct_resp",98.015873015873
300.317510400011,0.5,"IA6LI11","2022_Jan_05_1023","circle","relaxed_first","MainTask",97,"Fixation","Go","relaxed",1,0.414090099991881,"post_correct_inh",98.015873015873
300.809952900003,0.1,"IA6LI11","2022_Jan_05_1023","circle","relaxed_first","MainTask",97,"Target","Go","relaxed",1,0.414090099991881,"post_correct_inh",98.015873015873
300.909978399999,1.31409009999188,"IA6LI11","2022_Jan_05_1023","circle","relaxed_first","MainTask",97,"ITI","Go","relaxed",1,0.414090099991881,"post_correct_inh",98.015873015873
301.224042999995,0,"IA6LI11","2022_Jan_05_1023","circle","relaxed_first","MainTask",97,"Response","Go","relaxed",1,0.414090099991881,"post_correct_inh",98.015873015873
302.263478100009,0.5,"IA6LI11","2022_Jan_05_1023","circle","relaxed_first","MainTask",98,"Fixation","Go","relaxed",1,0.382336800001212,"post_correct_resp",98.015873015873
302.761574200005,0.1,"IA6LI11","2022_Jan_05_1023","circle","relaxed_first","MainTask",98,"Target","Go","relaxed",1,0.382336800001212,"post_correct_resp",98.015873015873
302.8615173,1.28233680000121,"IA6LI11","2022_Jan_05_1023","circle","relaxed_first","MainTask",98,"ITI","Go","relaxed",1,0.382336800001212,"post_correct_resp",98.015873015873
303.143911000006,0,"IA6LI11","2022_Jan_05_1023","circle","relaxed_first","MainTask",98,"Response","Go","relaxed",1,0.382336800001212,"post_correct_resp",98.015873015873
304.186004800009,0.5,"IA6LI11","2022_Jan_05_1023","circle","relaxed_first","MainTask",99,"Fixation","Go","relaxed",1,0.318050700007007,"post_correct_resp",98.015873015873
304.679809900001,0.1,"IA6LI11","2022_Jan_05_1023","circle","relaxed_first","MainTask",99,"Target","Go","relaxed",1,0.318050700007007,"post_correct_resp",98.015873015873
304.779718900012,1.21805070000701,"IA6LI11","2022_Jan_05_1023","circle","relaxed_first","MainTask",99,"ITI","Go","relaxed",1,0.318050700007007,"post_correct_resp",98.015873015873
304.997860600008,0,"IA6LI11","2022_Jan_05_1023","circle","relaxed_first","MainTask",99,"Response","Go","relaxed",1,0.318050700007007,"post_correct_resp",98.015873015873
306.0376923,0.5,"IA6LI11","2022_Jan_05_1023","circle","relaxed_first","MainTask",100,"Fixation","Go","relaxed",1,0.349906700008432,"post_correct_resp",98.015873015873
306.531236300012,0.1,"IA6LI11","2022_Jan_05_1023","circle","relaxed_first","MainTask",100,"Target","Go","relaxed",1,0.349906700008432,"post_correct_resp",98.015873015873
306.631462200006,1.24990670000843,"IA6LI11","2022_Jan_05_1023","circle","relaxed_first","MainTask",100,"ITI","Go","relaxed",1,0.349906700008432,"post_correct_resp",98.015873015873
306.881143000021,0,"IA6LI11","2022_Jan_05_1023","circle","relaxed_first","MainTask",100,"Response","Go","relaxed",1,0.349906700008432,"post_correct_resp",98.015873015873
307.922656700001,0.5,"IA6LI11","2022_Jan_05_1023","circle","relaxed_first","MainTask",101,"Fixation","NoGo","relaxed",1,NA,"post_correct_resp",98.015873015873
308.399533000003,0.1,"IA6LI11","2022_Jan_05_1023","circle","relaxed_first","MainTask",101,"Target","NoGo","relaxed",1,NA,"post_correct_resp",98.015873015873
308.49954080001,1.5,"IA6LI11","2022_Jan_05_1023","circle","relaxed_first","MainTask",101,"ITI","NoGo","relaxed",1,NA,"post_correct_resp",98.015873015873
310.024580800004,0.5,"IA6LI11","2022_Jan_05_1023","circle","relaxed_first","MainTask",102,"Fixation","NoGo","relaxed",1,NA,"post_correct_inh",98.015873015873
310.517886800008,0.1,"IA6LI11","2022_Jan_05_1023","circle","relaxed_first","MainTask",102,"Target","NoGo","relaxed",1,NA,"post_correct_inh",98.015873015873
310.618133900003,1.5,"IA6LI11","2022_Jan_05_1023","circle","relaxed_first","MainTask",102,"ITI","NoGo","relaxed",1,NA,"post_correct_inh",98.015873015873
312.144158800002,0.5,"IA6LI11","2022_Jan_05_1023","circle","relaxed_first","MainTask",103,"Fixation","Go","relaxed",1,0.296779000011156,"post_correct_inh",98.015873015873
312.636327200002,0.1,"IA6LI11","2022_Jan_05_1023","circle","relaxed_first","MainTask",103,"Target","Go","relaxed",1,0.296779000011156,"post_correct_inh",98.015873015873
312.73646320001,1.19677900001116,"IA6LI11","2022_Jan_05_1023","circle","relaxed_first","MainTask",103,"ITI","Go","relaxed",1,0.296779000011156,"post_correct_inh",98.015873015873
312.933106200013,0,"IA6LI11","2022_Jan_05_1023","circle","relaxed_first","MainTask",103,"Response","Go","relaxed",1,0.296779000011156,"post_correct_inh",98.015873015873
313.972618200001,0.5,"IA6LI11","2022_Jan_05_1023","circle","relaxed_first","MainTask",104,"Fixation","Go","relaxed",1,0.351860599999782,"post_correct_resp",98.015873015873
314.471110300001,0.1,"IA6LI11","2022_Jan_05_1023","circle","relaxed_first","MainTask",104,"Target","Go","relaxed",1,0.351860599999782,"post_correct_resp",98.015873015873
314.571058500005,1.25186059999978,"IA6LI11","2022_Jan_05_1023","circle","relaxed_first","MainTask",104,"ITI","Go","relaxed",1,0.351860599999782,"post_correct_resp",98.015873015873
314.822970900001,0,"IA6LI11","2022_Jan_05_1023","circle","relaxed_first","MainTask",104,"Response","Go","relaxed",1,0.351860599999782,"post_correct_resp",98.015873015873
315.862445100007,0.5,"IA6LI11","2022_Jan_05_1023","circle","relaxed_first","MainTask",105,"Fixation","Go","relaxed",1,0.300919699991937,"post_correct_resp",98.015873015873
316.356024100009,0.1,"IA6LI11","2022_Jan_05_1023","circle","relaxed_first","MainTask",105,"Target","Go","relaxed",1,0.300919699991937,"post_correct_resp",98.015873015873
316.456359500007,1.20091969999194,"IA6LI11","2022_Jan_05_1023","circle","relaxed_first","MainTask",105,"ITI","Go","relaxed",1,0.300919699991937,"post_correct_resp",98.015873015873
316.656943800001,0,"IA6LI11","2022_Jan_05_1023","circle","relaxed_first","MainTask",105,"Response","Go","relaxed",1,0.300919699991937,"post_correct_resp",98.015873015873
317.697319700004,0.5,"IA6LI11","2022_Jan_05_1023","circle","relaxed_first","MainTask",106,"Fixation","Go","relaxed",1,0.313360300002387,"post_correct_resp",98.015873015873
318.190887000004,0.1,"IA6LI11","2022_Jan_05_1023","circle","relaxed_first","MainTask",106,"Target","Go","relaxed",1,0.313360300002387,"post_correct_resp",98.015873015873
318.291017200012,1.21336030000239,"IA6LI11","2022_Jan_05_1023","circle","relaxed_first","MainTask",106,"ITI","Go","relaxed",1,0.313360300002387,"post_correct_resp",98.015873015873
318.504247300007,0,"IA6LI11","2022_Jan_05_1023","circle","relaxed_first","MainTask",106,"Response","Go","relaxed",1,0.313360300002387,"post_correct_resp",98.015873015873
319.551878900005,0.5,"IA6LI11","2022_Jan_05_1023","circle","relaxed_first","MainTask",107,"Fixation","NoGo","relaxed",1,NA,"post_correct_resp",98.015873015873
320.0424776,0.1,"IA6LI11","2022_Jan_05_1023","circle","relaxed_first","MainTask",107,"Target","NoGo","relaxed",1,NA,"post_correct_resp",98.015873015873
320.142502700008,1.5,"IA6LI11","2022_Jan_05_1023","circle","relaxed_first","MainTask",107,"ITI","NoGo","relaxed",1,NA,"post_correct_resp",98.015873015873
321.667659800005,0.5,"IA6LI11","2022_Jan_05_1023","circle","relaxed_first","MainTask",108,"Fixation","NoGo","relaxed",1,NA,"post_correct_inh",98.015873015873
322.160863000012,0.1,"IA6LI11","2022_Jan_05_1023","circle","relaxed_first","MainTask",108,"Target","NoGo","relaxed",1,NA,"post_correct_inh",98.015873015873
322.261176200002,1.5,"IA6LI11","2022_Jan_05_1023","circle","relaxed_first","MainTask",108,"ITI","NoGo","relaxed",1,NA,"post_correct_inh",98.015873015873
323.788049399998,0.5,"IA6LI11","2022_Jan_05_1023","circle","relaxed_first","MainTask",109,"Fixation","Go","relaxed",1,0.357382000001962,"post_correct_inh",98.015873015873
324.27933640001,0.1,"IA6LI11","2022_Jan_05_1023","circle","relaxed_first","MainTask",109,"Target","Go","relaxed",1,0.357382000001962,"post_correct_inh",98.015873015873
324.379523200012,1.25738200000196,"IA6LI11","2022_Jan_05_1023","circle","relaxed_first","MainTask",109,"ITI","Go","relaxed",1,0.357382000001962,"post_correct_inh",98.015873015873
324.636718400012,0,"IA6LI11","2022_Jan_05_1023","circle","relaxed_first","MainTask",109,"Response","Go","relaxed",1,0.357382000001962,"post_correct_inh",98.015873015873
325.682713100003,0.5,"IA6LI11","2022_Jan_05_1023","circle","relaxed_first","MainTask",110,"Fixation","Go","relaxed",1,0.351981999992859,"post_correct_resp",98.015873015873
326.180878800005,0.1,"IA6LI11","2022_Jan_05_1023","circle","relaxed_first","MainTask",110,"Target","Go","relaxed",1,0.351981999992859,"post_correct_resp",98.015873015873
326.281124300003,1.25198199999286,"IA6LI11","2022_Jan_05_1023","circle","relaxed_first","MainTask",110,"ITI","Go","relaxed",1,0.351981999992859,"post_correct_resp",98.015873015873
326.532860799998,0,"IA6LI11","2022_Jan_05_1023","circle","relaxed_first","MainTask",110,"Response","Go","relaxed",1,0.351981999992859,"post_correct_resp",98.015873015873
327.584150800001,0.5,"IA6LI11","2022_Jan_05_1023","circle","relaxed_first","MainTask",111,"Fixation","Go","relaxed",1,0.299453500003438,"post_correct_resp",98.015873015873
328.082625900002,0.1,"IA6LI11","2022_Jan_05_1023","circle","relaxed_first","MainTask",111,"Target","Go","relaxed",1,0.299453500003438,"post_correct_resp",98.015873015873
328.182715200004,1.19945350000344,"IA6LI11","2022_Jan_05_1023","circle","relaxed_first","MainTask",111,"ITI","Go","relaxed",1,0.299453500003438,"post_correct_resp",98.015873015873
328.382079400006,0,"IA6LI11","2022_Jan_05_1023","circle","relaxed_first","MainTask",111,"Response","Go","relaxed",1,0.299453500003438,"post_correct_resp",98.015873015873
329.42352180001,0.5,"IA6LI11","2022_Jan_05_1023","circle","relaxed_first","MainTask",112,"Fixation","Go","relaxed",1,0.306621900002938,"post_correct_resp",98.015873015873
329.917343400011,0.1,"IA6LI11","2022_Jan_05_1023","circle","relaxed_first","MainTask",112,"Target","Go","relaxed",1,0.306621900002938,"post_correct_resp",98.015873015873
330.017429300002,1.20662190000294,"IA6LI11","2022_Jan_05_1023","circle","relaxed_first","MainTask",112,"ITI","Go","relaxed",1,0.306621900002938,"post_correct_resp",98.015873015873
330.223965300014,0,"IA6LI11","2022_Jan_05_1023","circle","relaxed_first","MainTask",112,"Response","Go","relaxed",1,0.306621900002938,"post_correct_resp",98.015873015873
331.276762900001,0.5,"IA6LI11","2022_Jan_05_1023","circle","relaxed_first","MainTask",113,"Fixation","NoGo","relaxed",1,NA,"post_correct_resp",98.015873015873
331.768953600011,0.1,"IA6LI11","2022_Jan_05_1023","circle","relaxed_first","MainTask",113,"Target","NoGo","relaxed",1,NA,"post_correct_resp",98.015873015873
331.868974500001,1.5,"IA6LI11","2022_Jan_05_1023","circle","relaxed_first","MainTask",113,"ITI","NoGo","relaxed",1,NA,"post_correct_resp",98.015873015873
333.397021700002,0.5,"IA6LI11","2022_Jan_05_1023","circle","relaxed_first","MainTask",114,"Fixation","Go","relaxed",1,0.440371699995012,"post_correct_inh",98.015873015873
333.88745010001,0.1,"IA6LI11","2022_Jan_05_1023","circle","relaxed_first","MainTask",114,"Target","Go","relaxed",1,0.440371699995012,"post_correct_inh",98.015873015873
333.987517200003,1.34037169999501,"IA6LI11","2022_Jan_05_1023","circle","relaxed_first","MainTask",114,"ITI","Go","relaxed",1,0.440371699995012,"post_correct_inh",98.015873015873
334.327821800005,0,"IA6LI11","2022_Jan_05_1023","circle","relaxed_first","MainTask",114,"Response","Go","relaxed",1,0.440371699995012,"post_correct_inh",98.015873015873
335.379806100013,0.5,"IA6LI11","2022_Jan_05_1023","circle","relaxed_first","MainTask",115,"Fixation","NoGo","relaxed",1,NA,"post_correct_resp",98.015873015873
335.872414500001,0.1,"IA6LI11","2022_Jan_05_1023","circle","relaxed_first","MainTask",115,"Target","NoGo","relaxed",1,NA,"post_correct_resp",98.015873015873
335.972492000001,1.5,"IA6LI11","2022_Jan_05_1023","circle","relaxed_first","MainTask",115,"ITI","NoGo","relaxed",1,NA,"post_correct_resp",98.015873015873
337.502804600008,0.5,"IA6LI11","2022_Jan_05_1023","circle","relaxed_first","MainTask",116,"Fixation","NoGo","relaxed",1,NA,"post_correct_inh",98.015873015873
337.990730100006,0.1,"IA6LI11","2022_Jan_05_1023","circle","relaxed_first","MainTask",116,"Target","NoGo","relaxed",1,NA,"post_correct_inh",98.015873015873
338.073965500007,1.5,"IA6LI11","2022_Jan_05_1023","circle","relaxed_first","MainTask",116,"ITI","NoGo","relaxed",1,NA,"post_correct_inh",98.015873015873
339.614953600001,0.5,"IA6LI11","2022_Jan_05_1023","circle","relaxed_first","MainTask",117,"Fixation","NoGo","relaxed",1,NA,"post_correct_inh",98.015873015873
340.109072700012,0.1,"IA6LI11","2022_Jan_05_1023","circle","relaxed_first","MainTask",117,"Target","NoGo","relaxed",1,NA,"post_correct_inh",98.015873015873
340.2092997,1.5,"IA6LI11","2022_Jan_05_1023","circle","relaxed_first","MainTask",117,"ITI","NoGo","relaxed",1,NA,"post_correct_inh",98.015873015873
341.737341600005,0.5,"IA6LI11","2022_Jan_05_1023","circle","relaxed_first","MainTask",118,"Fixation","Go","relaxed",1,0.375236799998675,"post_correct_inh",98.015873015873
342.227561500011,0.1,"IA6LI11","2022_Jan_05_1023","circle","relaxed_first","MainTask",118,"Target","Go","relaxed",1,0.375236799998675,"post_correct_inh",98.015873015873
342.327787200004,1.27523679999867,"IA6LI11","2022_Jan_05_1023","circle","relaxed_first","MainTask",118,"ITI","Go","relaxed",1,0.375236799998675,"post_correct_inh",98.015873015873
342.602798300009,0,"IA6LI11","2022_Jan_05_1023","circle","relaxed_first","MainTask",118,"Response","Go","relaxed",1,0.375236799998675,"post_correct_inh",98.015873015873
343.652058200008,0.5,"IA6LI11","2022_Jan_05_1023","circle","relaxed_first","MainTask",119,"Fixation","Go","relaxed",1,0.365249099995708,"post_correct_resp",98.015873015873
344.145937400011,0.1,"IA6LI11","2022_Jan_05_1023","circle","relaxed_first","MainTask",119,"Target","Go","relaxed",1,0.365249099995708,"post_correct_resp",98.015873015873
344.245900800001,1.26524909999571,"IA6LI11","2022_Jan_05_1023","circle","relaxed_first","MainTask",119,"ITI","Go","relaxed",1,0.365249099995708,"post_correct_resp",98.015873015873
344.511186500007,0,"IA6LI11","2022_Jan_05_1023","circle","relaxed_first","MainTask",119,"Response","Go","relaxed",1,0.365249099995708,"post_correct_resp",98.015873015873
345.553184900011,0.5,"IA6LI11","2022_Jan_05_1023","circle","relaxed_first","MainTask",120,"Fixation","Go","relaxed",1,0.299382400000468,"post_correct_resp",98.015873015873
346.047520200009,0.1,"IA6LI11","2022_Jan_05_1023","circle","relaxed_first","MainTask",120,"Target","Go","relaxed",1,0.299382400000468,"post_correct_resp",98.015873015873
346.147640800002,1.19938240000047,"IA6LI11","2022_Jan_05_1023","circle","relaxed_first","MainTask",120,"ITI","Go","relaxed",1,0.299382400000468,"post_correct_resp",98.015873015873
346.346902600009,0,"IA6LI11","2022_Jan_05_1023","circle","relaxed_first","MainTask",120,"Response","Go","relaxed",1,0.299382400000468,"post_correct_resp",98.015873015873
347.38863500001,0.5,"IA6LI11","2022_Jan_05_1023","circle","relaxed_first","MainTask",121,"Fixation","Go","relaxed",1,0.255744900001446,"post_correct_resp",98.015873015873
347.882278600009,0.1,"IA6LI11","2022_Jan_05_1023","circle","relaxed_first","MainTask",121,"Target","Go","relaxed",1,0.255744900001446,"post_correct_resp",98.015873015873
347.982480700011,1.15574490000145,"IA6LI11","2022_Jan_05_1023","circle","relaxed_first","MainTask",121,"ITI","Go","relaxed",1,0.255744900001446,"post_correct_resp",98.015873015873
348.138023500011,0,"IA6LI11","2022_Jan_05_1023","circle","relaxed_first","MainTask",121,"Response","Go","relaxed",1,0.255744900001446,"post_correct_resp",98.015873015873
349.189370000007,0.5,"IA6LI11","2022_Jan_05_1023","circle","relaxed_first","MainTask",122,"Fixation","Go","relaxed",1,0.293260500009637,"post_correct_resp",98.015873015873
349.683743600006,0.1,"IA6LI11","2022_Jan_05_1023","circle","relaxed_first","MainTask",122,"Target","Go","relaxed",1,0.293260500009637,"post_correct_resp",98.015873015873
349.783807300002,1.19326050000964,"IA6LI11","2022_Jan_05_1023","circle","relaxed_first","MainTask",122,"ITI","Go","relaxed",1,0.293260500009637,"post_correct_resp",98.015873015873
349.977004100016,0,"IA6LI11","2022_Jan_05_1023","circle","relaxed_first","MainTask",122,"Response","Go","relaxed",1,0.293260500009637,"post_correct_resp",98.015873015873
351.024608300009,0.5,"IA6LI11","2022_Jan_05_1023","circle","relaxed_first","MainTask",123,"Fixation","Go","relaxed",1,0.351175399991916,"post_correct_resp",98.015873015873
351.518584500009,0.1,"IA6LI11","2022_Jan_05_1023","circle","relaxed_first","MainTask",123,"Target","Go","relaxed",1,0.351175399991916,"post_correct_resp",98.015873015873
351.618741500002,1.25117539999192,"IA6LI11","2022_Jan_05_1023","circle","relaxed_first","MainTask",123,"ITI","Go","relaxed",1,0.351175399991916,"post_correct_resp",98.015873015873
351.869759900001,0,"IA6LI11","2022_Jan_05_1023","circle","relaxed_first","MainTask",123,"Response","Go","relaxed",1,0.351175399991916,"post_correct_resp",98.015873015873
352.90989770001,0.5,"IA6LI11","2022_Jan_05_1023","circle","relaxed_first","MainTask",124,"Fixation","Go","relaxed",1,0.374224700004561,"post_correct_resp",98.015873015873
353.403582700004,0.1,"IA6LI11","2022_Jan_05_1023","circle","relaxed_first","MainTask",124,"Target","Go","relaxed",1,0.374224700004561,"post_correct_resp",98.015873015873
353.503565100007,1.27422470000456,"IA6LI11","2022_Jan_05_1023","circle","relaxed_first","MainTask",124,"ITI","Go","relaxed",1,0.374224700004561,"post_correct_resp",98.015873015873
353.777807400009,0,"IA6LI11","2022_Jan_05_1023","circle","relaxed_first","MainTask",124,"Response","Go","relaxed",1,0.374224700004561,"post_correct_resp",98.015873015873
354.82822190001,0.5,"IA6LI11","2022_Jan_05_1023","circle","relaxed_first","MainTask",125,"Fixation","Go","relaxed",1,0.335138599999482,"post_correct_resp",98.015873015873
355.32192300001,0.1,"IA6LI11","2022_Jan_05_1023","circle","relaxed_first","MainTask",125,"Target","Go","relaxed",1,0.335138599999482,"post_correct_resp",98.015873015873
355.421711200004,1.23513859999948,"IA6LI11","2022_Jan_05_1023","circle","relaxed_first","MainTask",125,"ITI","Go","relaxed",1,0.335138599999482,"post_correct_resp",98.015873015873
355.65706160001,0,"IA6LI11","2022_Jan_05_1023","circle","relaxed_first","MainTask",125,"Response","Go","relaxed",1,0.335138599999482,"post_correct_resp",98.015873015873
356.743806900005,22.232010599997,"IA6LI11","2022_Jan_05_1023","circle","relaxed_first","MainTask",125,"Break",NA,NA,NA,NA,NA,98.015873015873
380.970952400006,0.5,"IA6LI11","2022_Jan_05_1023","circle","relaxed_first","MainTask",126,"Fixation","NoGo","relaxed",1,NA,"post_break",98.015873015873
381.460105500009,0.1,"IA6LI11","2022_Jan_05_1023","circle","relaxed_first","MainTask",126,"Target","NoGo","relaxed",1,NA,"post_break",98.015873015873
381.560256299999,1.5,"IA6LI11","2022_Jan_05_1023","circle","relaxed_first","MainTask",126,"ITI","NoGo","relaxed",1,NA,"post_break",98.015873015873
383.095663600005,0.5,"IA6LI11","2022_Jan_05_1023","circle","relaxed_first","MainTask",127,"Fixation","Go","relaxed",1,0.385315799998352,"post_correct_inh",98.015873015873
383.595470300002,0.1,"IA6LI11","2022_Jan_05_1023","circle","relaxed_first","MainTask",127,"Target","Go","relaxed",1,0.385315799998352,"post_correct_inh",98.015873015873
383.695389600005,1.28531579999835,"IA6LI11","2022_Jan_05_1023","circle","relaxed_first","MainTask",127,"ITI","Go","relaxed",1,0.385315799998352,"post_correct_inh",98.015873015873
383.980786100001,0,"IA6LI11","2022_Jan_05_1023","circle","relaxed_first","MainTask",127,"Response","Go","relaxed",1,0.385315799998352,"post_correct_inh",98.015873015873
385.023626400012,0.5,"IA6LI11","2022_Jan_05_1023","circle","relaxed_first","MainTask",128,"Fixation","NoGo","relaxed",1,NA,"post_correct_resp",98.015873015873
385.513646700012,0.1,"IA6LI11","2022_Jan_05_1023","circle","relaxed_first","MainTask",128,"Target","NoGo","relaxed",1,NA,"post_correct_resp",98.015873015873
385.613821000006,1.5,"IA6LI11","2022_Jan_05_1023","circle","relaxed_first","MainTask",128,"ITI","NoGo","relaxed",1,NA,"post_correct_resp",98.015873015873
387.142911900009,0.5,"IA6LI11","2022_Jan_05_1023","circle","relaxed_first","MainTask",129,"Fixation","Go","relaxed",1,0.329282800012152,"post_correct_inh",98.015873015873
387.632140400005,0.1,"IA6LI11","2022_Jan_05_1023","circle","relaxed_first","MainTask",129,"Target","Go","relaxed",1,0.329282800012152,"post_correct_inh",98.015873015873
387.732005000013,1.22928280001215,"IA6LI11","2022_Jan_05_1023","circle","relaxed_first","MainTask",129,"ITI","Go","relaxed",1,0.329282800012152,"post_correct_inh",98.015873015873
387.961423200017,0,"IA6LI11","2022_Jan_05_1023","circle","relaxed_first","MainTask",129,"Response","Go","relaxed",1,0.329282800012152,"post_correct_inh",98.015873015873
389.002066700006,0.5,"IA6LI11","2022_Jan_05_1023","circle","relaxed_first","MainTask",130,"Fixation","Go","relaxed",1,0.473590499997954,"post_correct_resp",98.015873015873
389.500215799999,0.1,"IA6LI11","2022_Jan_05_1023","circle","relaxed_first","MainTask",130,"Target","Go","relaxed",1,0.473590499997954,"post_correct_resp",98.015873015873
389.600468400007,1.37359049999795,"IA6LI11","2022_Jan_05_1023","circle","relaxed_first","MainTask",130,"ITI","Go","relaxed",1,0.473590499997954,"post_correct_resp",98.015873015873
389.973806299997,0,"IA6LI11","2022_Jan_05_1023","circle","relaxed_first","MainTask",130,"Response","Go","relaxed",1,0.473590499997954,"post_correct_resp",98.015873015873
391.027952900011,0.5,"IA6LI11","2022_Jan_05_1023","circle","relaxed_first","MainTask",131,"Fixation","NoGo","relaxed",1,NA,"post_correct_resp",98.015873015873
391.518563800011,0.1,"IA6LI11","2022_Jan_05_1023","circle","relaxed_first","MainTask",131,"Target","NoGo","relaxed",1,NA,"post_correct_resp",98.015873015873
391.618800200013,1.5,"IA6LI11","2022_Jan_05_1023","circle","relaxed_first","MainTask",131,"ITI","NoGo","relaxed",1,NA,"post_correct_resp",98.015873015873
393.141765799999,0.5,"IA6LI11","2022_Jan_05_1023","circle","relaxed_first","MainTask",132,"Fixation","NoGo","relaxed",1,NA,"post_correct_inh",98.015873015873
393.636975000001,0.1,"IA6LI11","2022_Jan_05_1023","circle","relaxed_first","MainTask",132,"Target","NoGo","relaxed",1,NA,"post_correct_inh",98.015873015873
393.736993400002,1.5,"IA6LI11","2022_Jan_05_1023","circle","relaxed_first","MainTask",132,"ITI","NoGo","relaxed",1,NA,"post_correct_inh",98.015873015873
395.265599800012,0.5,"IA6LI11","2022_Jan_05_1023","circle","relaxed_first","MainTask",133,"Fixation","Go","relaxed",1,0.341750499996124,"post_correct_inh",98.015873015873
395.755086400008,0.1,"IA6LI11","2022_Jan_05_1023","circle","relaxed_first","MainTask",133,"Target","Go","relaxed",1,0.341750499996124,"post_correct_inh",98.015873015873
395.855877800001,1.24175049999612,"IA6LI11","2022_Jan_05_1023","circle","relaxed_first","MainTask",133,"ITI","Go","relaxed",1,0.341750499996124,"post_correct_inh",98.015873015873
396.096836900004,0,"IA6LI11","2022_Jan_05_1023","circle","relaxed_first","MainTask",133,"Response","Go","relaxed",1,0.341750499996124,"post_correct_inh",98.015873015873
397.150515700007,0.5,"IA6LI11","2022_Jan_05_1023","circle","relaxed_first","MainTask",134,"Fixation","NoGo","relaxed",1,NA,"post_correct_resp",98.015873015873
397.640233500002,0.1,"IA6LI11","2022_Jan_05_1023","circle","relaxed_first","MainTask",134,"Target","NoGo","relaxed",1,NA,"post_correct_resp",98.015873015873
397.740619700009,1.5,"IA6LI11","2022_Jan_05_1023","circle","relaxed_first","MainTask",134,"ITI","NoGo","relaxed",1,NA,"post_correct_resp",98.015873015873
399.264865000005,0.5,"IA6LI11","2022_Jan_05_1023","circle","relaxed_first","MainTask",135,"Fixation","NoGo","relaxed",1,NA,"post_correct_inh",98.015873015873
399.758707600005,0.1,"IA6LI11","2022_Jan_05_1023","circle","relaxed_first","MainTask",135,"Target","NoGo","relaxed",1,NA,"post_correct_inh",98.015873015873
399.858993100002,1.5,"IA6LI11","2022_Jan_05_1023","circle","relaxed_first","MainTask",135,"ITI","NoGo","relaxed",1,NA,"post_correct_inh",98.015873015873
401.386621400001,0.5,"IA6LI11","2022_Jan_05_1023","circle","relaxed_first","MainTask",136,"Fixation","Go","relaxed",1,0.349861800001236,"post_correct_inh",98.015873015873
401.877323000008,0.1,"IA6LI11","2022_Jan_05_1023","circle","relaxed_first","MainTask",136,"Target","Go","relaxed",1,0.349861800001236,"post_correct_inh",98.015873015873
401.977400100004,1.24986180000124,"IA6LI11","2022_Jan_05_1023","circle","relaxed_first","MainTask",136,"ITI","Go","relaxed",1,0.349861800001236,"post_correct_inh",98.015873015873
402.227184800009,0,"IA6LI11","2022_Jan_05_1023","circle","relaxed_first","MainTask",136,"Response","Go","relaxed",1,0.349861800001236,"post_correct_inh",98.015873015873
403.268364600008,0.5,"IA6LI11","2022_Jan_05_1023","circle","relaxed_first","MainTask",137,"Fixation","Go","relaxed",1,0.387622599999304,"post_correct_resp",98.015873015873
403.762191400005,0.1,"IA6LI11","2022_Jan_05_1023","circle","relaxed_first","MainTask",137,"Target","Go","relaxed",1,0.387622599999304,"post_correct_resp",98.015873015873
403.862328700008,1.2876225999993,"IA6LI11","2022_Jan_05_1023","circle","relaxed_first","MainTask",137,"ITI","Go","relaxed",1,0.387622599999304,"post_correct_resp",98.015873015873
404.149814000004,0,"IA6LI11","2022_Jan_05_1023","circle","relaxed_first","MainTask",137,"Response","Go","relaxed",1,0.387622599999304,"post_correct_resp",98.015873015873
405.2042181,0.5,"IA6LI11","2022_Jan_05_1023","circle","relaxed_first","MainTask",138,"Fixation","NoGo","relaxed",1,NA,"post_correct_resp",98.015873015873
405.697116399999,0.1,"IA6LI11","2022_Jan_05_1023","circle","relaxed_first","MainTask",138,"Target","NoGo","relaxed",1,NA,"post_correct_resp",98.015873015873
405.797241600012,1.5,"IA6LI11","2022_Jan_05_1023","circle","relaxed_first","MainTask",138,"ITI","NoGo","relaxed",1,NA,"post_correct_resp",98.015873015873
407.324647100002,0.5,"IA6LI11","2022_Jan_05_1023","circle","relaxed_first","MainTask",139,"Fixation","Go","relaxed",1,0.346760799991898,"post_correct_inh",98.015873015873
407.815446699999,0.1,"IA6LI11","2022_Jan_05_1023","circle","relaxed_first","MainTask",139,"Target","Go","relaxed",1,0.346760799991898,"post_correct_inh",98.015873015873
407.91565960001,1.2467607999919,"IA6LI11","2022_Jan_05_1023","circle","relaxed_first","MainTask",139,"ITI","Go","relaxed",1,0.346760799991898,"post_correct_inh",98.015873015873
408.16220749999,0,"IA6LI11","2022_Jan_05_1023","circle","relaxed_first","MainTask",139,"Response","Go","relaxed",1,0.346760799991898,"post_correct_inh",98.015873015873
409.206199200009,0.5,"IA6LI11","2022_Jan_05_1023","circle","relaxed_first","MainTask",140,"Fixation","Go","relaxed",1,0.333301999999094,"post_correct_resp",98.015873015873
409.700795700002,0.1,"IA6LI11","2022_Jan_05_1023","circle","relaxed_first","MainTask",140,"Target","Go","relaxed",1,0.333301999999094,"post_correct_resp",98.015873015873
409.800421899999,1.23330199999909,"IA6LI11","2022_Jan_05_1023","circle","relaxed_first","MainTask",140,"ITI","Go","relaxed",1,0.333301999999094,"post_correct_resp",98.015873015873
410.034097700001,0,"IA6LI11","2022_Jan_05_1023","circle","relaxed_first","MainTask",140,"Response","Go","relaxed",1,0.333301999999094,"post_correct_resp",98.015873015873
411.0745188,0.5,"IA6LI11","2022_Jan_05_1023","circle","relaxed_first","MainTask",141,"Fixation","Go","relaxed",1,0.314503499990678,"post_correct_resp",98.015873015873
411.568559000007,0.1,"IA6LI11","2022_Jan_05_1023","circle","relaxed_first","MainTask",141,"Target","Go","relaxed",1,0.314503499990678,"post_correct_resp",98.015873015873
411.668763000009,1.21450349999068,"IA6LI11","2022_Jan_05_1023","circle","relaxed_first","MainTask",141,"ITI","Go","relaxed",1,0.314503499990678,"post_correct_resp",98.015873015873
411.883062499997,0,"IA6LI11","2022_Jan_05_1023","circle","relaxed_first","MainTask",141,"Response","Go","relaxed",1,0.314503499990678,"post_correct_resp",98.015873015873
412.925898800007,0.5,"IA6LI11","2022_Jan_05_1023","circle","relaxed_first","MainTask",142,"Fixation","Go","relaxed",1,0.238795800003572,"post_correct_resp",98.015873015873
413.420154799998,0.1,"IA6LI11","2022_Jan_05_1023","circle","relaxed_first","MainTask",142,"Target","Go","relaxed",1,0.238795800003572,"post_correct_resp",98.015873015873
413.520281400008,1.13879580000357,"IA6LI11","2022_Jan_05_1023","circle","relaxed_first","MainTask",142,"ITI","Go","relaxed",1,0.238795800003572,"post_correct_resp",98.015873015873
413.658950600002,0,"IA6LI11","2022_Jan_05_1023","circle","relaxed_first","MainTask",142,"Response","Go","relaxed",1,0.238795800003572,"post_correct_resp",98.015873015873
414.711593,0.5,"IA6LI11","2022_Jan_05_1023","circle","relaxed_first","MainTask",143,"Fixation","Go","relaxed",1,0.329603299993323,"post_correct_resp",98.015873015873
415.204840800012,0.1,"IA6LI11","2022_Jan_05_1023","circle","relaxed_first","MainTask",143,"Target","Go","relaxed",1,0.329603299993323,"post_correct_resp",98.015873015873
415.304717700012,1.22960329999332,"IA6LI11","2022_Jan_05_1023","circle","relaxed_first","MainTask",143,"ITI","Go","relaxed",1,0.329603299993323,"post_correct_resp",98.015873015873
415.534444100005,0,"IA6LI11","2022_Jan_05_1023","circle","relaxed_first","MainTask",143,"Response","Go","relaxed",1,0.329603299993323,"post_correct_resp",98.015873015873
416.57675220001,0.5,"IA6LI11","2022_Jan_05_1023","circle","relaxed_first","MainTask",144,"Fixation","Go","relaxed",1,0.329253600008087,"post_correct_resp",98.015873015873
417.073125100011,0.1,"IA6LI11","2022_Jan_05_1023","circle","relaxed_first","MainTask",144,"Target","Go","relaxed",1,0.329253600008087,"post_correct_resp",98.015873015873
417.173392199998,1.22925360000809,"IA6LI11","2022_Jan_05_1023","circle","relaxed_first","MainTask",144,"ITI","Go","relaxed",1,0.329253600008087,"post_correct_resp",98.015873015873
417.402378700019,0,"IA6LI11","2022_Jan_05_1023","circle","relaxed_first","MainTask",144,"Response","Go","relaxed",1,0.329253600008087,"post_correct_resp",98.015873015873
418.442913800012,0.5,"IA6LI11","2022_Jan_05_1023","circle","relaxed_first","MainTask",145,"Fixation","Go","relaxed",1,0.377687800006242,"post_correct_resp",98.015873015873
418.9243078,0.1,"IA6LI11","2022_Jan_05_1023","circle","relaxed_first","MainTask",145,"Target","Go","relaxed",1,0.377687800006242,"post_correct_resp",98.015873015873
419.024923600009,1.27768780000624,"IA6LI11","2022_Jan_05_1023","circle","relaxed_first","MainTask",145,"ITI","Go","relaxed",1,0.377687800006242,"post_correct_resp",98.015873015873
419.301995600006,0,"IA6LI11","2022_Jan_05_1023","circle","relaxed_first","MainTask",145,"Response","Go","relaxed",1,0.377687800006242,"post_correct_resp",98.015873015873
420.349808800005,0.5,"IA6LI11","2022_Jan_05_1023","circle","relaxed_first","MainTask",146,"Fixation","Go","relaxed",1,0.403932499990333,"post_correct_resp",98.015873015873
420.842927100006,0.1,"IA6LI11","2022_Jan_05_1023","circle","relaxed_first","MainTask",146,"Target","Go","relaxed",1,0.403932499990333,"post_correct_resp",98.015873015873
420.943014600009,1.30393249999033,"IA6LI11","2022_Jan_05_1023","circle","relaxed_first","MainTask",146,"ITI","Go","relaxed",1,0.403932499990333,"post_correct_resp",98.015873015873
421.246859599996,0,"IA6LI11","2022_Jan_05_1023","circle","relaxed_first","MainTask",146,"Response","Go","relaxed",1,0.403932499990333,"post_correct_resp",98.015873015873
422.300589999999,0.5,"IA6LI11","2022_Jan_05_1023","circle","relaxed_first","MainTask",147,"Fixation","Go","relaxed",1,0.335392900000443,"post_correct_resp",98.015873015873
422.794515500005,0.1,"IA6LI11","2022_Jan_05_1023","circle","relaxed_first","MainTask",147,"Target","Go","relaxed",1,0.335392900000443,"post_correct_resp",98.015873015873
422.894760100011,1.23539290000044,"IA6LI11","2022_Jan_05_1023","circle","relaxed_first","MainTask",147,"ITI","Go","relaxed",1,0.335392900000443,"post_correct_resp",98.015873015873
