Instruction_Condition,MarkCondition,Type,Letter,CorrectResponse,Condition,RandomizeBlocks.thisRepN,RandomizeBlocks.thisTrialN,RandomizeBlocks.thisN,RandomizeBlocks.thisIndex,Practice.thisRepN,Practice.thisTrialN,Practice.thisN,Practice.thisIndex,Trials.thisRepN,Trials.thisTrialN,Trials.thisN,Trials.thisIndex,Target_Mapping,Fixation_practice.started,Fixation_practice.stopped,Target_practice.started,Target_practice.stopped,Target_resp_practice.keys,Target_resp_practice.corr,Target_resp_practice.started,Target_resp_practice.stopped,ITI_resp_practice.started,ITI_resp_practice.stopped,ITI_Duration,ITI.started,ITI.stopped,square2.started,square2.stopped,Target_resp_practice.rt,Instr_Repe.started,Instr_Repe.stopped,Trigger_Target,TriggerResp,Fixation.started,Fixation.stopped,Target.started,Target.stopped,Target_resp.keys,Target_resp.corr,Target_resp.rt,Target_resp.started,Target_resp.stopped,ITI_resp.started,ITI_resp.stopped,square1.started,square1.stopped,showReminder,ReminderErrors.started,ReminderErrors.stopped,ReminderErrorsResp.keys,ReminderErrorsResp.started,ReminderErrorsResp.stopped,break_block.started,break_block.stopped,break_block_resp.keys,break_block_resp.rt,SelfReport.started,SelfReport.stopped,anxious.response,anxious.rt,peppy.response,peppy.rt,peeved.response,peeved.rt,happy.response,happy.rt,tired.response,tired.rt,relaxed.response,relaxed.rt,sad.response,sad.rt,calm.response,calm.rt,exhausted.response,exhausted.rt,irritated.response,irritated.rt,break_cond.started,break_cond.stopped,break_cond_resp.keys,break_cond_resp.rt,participant,session,EEGPort,LogFilesFolder,date,expName,psychopyVersion,frameRate,
IN DIESEM BLOCK KÖNNEN SIE EINFACH ENTSPANNT AN DIE AUFGABE HERANGEHEN. SIE SOLLEN SICH NICHT VERAUSGABEN.,100,Go,go,4,0,0,0,0,0,0,0,0,1,,,,,circle,71.99721750000026,72.50358290001168,72.4866100000072,72.58672859999933,None,0,72.4866100000072,None,72.58672859999933,None,0.9,73.18741189999855,None,73.18741189999855,None,,,,,,,,,,,,,,,,,,,,,,,,,,,,,,,,,,,,,,,,,,,,,,,,,,,,,,,IA6LI11,1,Serial_COM3,C:\Users\EEG\Desktop\FINALCoScienceTasksLogfiles\,2022_Jan_05_1023,GoNoGo,2020.1.3,60.00373223087607,
IN DIESEM BLOCK KÖNNEN SIE EINFACH ENTSPANNT AN DIE AUFGABE HERANGEHEN. SIE SOLLEN SICH NICHT VERAUSGABEN.,100,NoGo,nogo,None,0,0,0,0,0,0,1,1,2,,,,,,74.09006780000345,74.60520669999823,74.58843790000537,74.6886583000014,None,1,74.58843790000537,None,74.6886583000014,None,0.9,75.28934810000646,None,75.28934810000646,None,,,,,,,,,,,,,,,,,,,,,,,,,,,,,,,,,,,,,,,,,,,,,,,,,,,,,,,IA6LI11,1,Serial_COM3,C:\Users\EEG\Desktop\FINALCoScienceTasksLogfiles\,2022_Jan_05_1023,GoNoGo,2020.1.3,60.00373223087607,
IN DIESEM BLOCK KÖNNEN SIE EINFACH ENTSPANNT AN DIE AUFGABE HERANGEHEN. SIE SOLLEN SICH NICHT VERAUSGABEN.,100,Go,go,4,0,0,0,0,0,0,2,2,1,,,,,,76.19178100000136,76.70681980000518,76.67345010000281,76.77367300000333,None,0,76.67345010000281,None,76.77367300000333,None,0.9,77.37432830000762,None,77.37432830000762,None,,,,,,,,,,,,,,,,,,,,,,,,,,,,,,,,,,,,,,,,,,,,,,,,,,,,,,,IA6LI11,1,Serial_COM3,C:\Users\EEG\Desktop\FINALCoScienceTasksLogfiles\,2022_Jan_05_1023,GoNoGo,2020.1.3,60.00373223087607,
IN DIESEM BLOCK KÖNNEN SIE EINFACH ENTSPANNT AN DIE AUFGABE HERANGEHEN. SIE SOLLEN SICH NICHT VERAUSGABEN.,100,Go,go,4,0,0,0,0,0,1,0,3,0,,,,,,78.27516299999843,78.7754402999999,78.75854590001109,78.85874460000196,4,1,78.75854590001109,None,78.85874460000196,None,1,79.09406220000528,None,79.09406220000528,None,0.3145593000081135,,,,,,,,,,,,,,,,,,,,,,,,,,,,,,,,,,,,,,,,,,,,,,,,,,,,,,IA6LI11,1,Serial_COM3,C:\Users\EEG\Desktop\FINALCoScienceTasksLogfiles\,2022_Jan_05_1023,GoNoGo,2020.1.3,60.00373223087607,
IN DIESEM BLOCK KÖNNEN SIE EINFACH ENTSPANNT AN DIE AUFGABE HERANGEHEN. SIE SOLLEN SICH NICHT VERAUSGABEN.,100,NoGo,nogo,None,0,0,0,0,0,1,1,4,2,,,,,,80.11167820000264,80.62712489999831,80.61006170000474,80.71014570000989,None,1,80.61006170000474,None,80.71014570000989,None,0.9,81.3113466000068,None,81.3113466000068,None,,,,,,,,,,,,,,,,,,,,,,,,,,,,,,,,,,,,,,,,,,,,,,,,,,,,,,,IA6LI11,1,Serial_COM3,C:\Users\EEG\Desktop\FINALCoScienceTasksLogfiles\,2022_Jan_05_1023,GoNoGo,2020.1.3,60.00373223087607,
IN DIESEM BLOCK KÖNNEN SIE EINFACH ENTSPANNT AN DIE AUFGABE HERANGEHEN. SIE SOLLEN SICH NICHT VERAUSGABEN.,100,Go,go,4,0,0,0,0,0,1,2,5,0,,,,,,82.21342860000732,82.72843820000708,82.69523530000879,82.79516370000783,4,1,82.69523530000879,None,82.79516370000783,None,1,83.06391090000398,None,83.06391090000398,None,0.35149299999466166,,,,,,,,,,,,,,,,,,,,,,,,,,,,,,,,,,,,,,,,,,,,,,,,,,,,,,IA6LI11,1,Serial_COM3,C:\Users\EEG\Desktop\FINALCoScienceTasksLogfiles\,2022_Jan_05_1023,GoNoGo,2020.1.3,60.00373223087607,
IN DIESEM BLOCK KÖNNEN SIE EINFACH ENTSPANNT AN DIE AUFGABE HERANGEHEN. SIE SOLLEN SICH NICHT VERAUSGABEN.,100,NoGo,nogo,None,0,0,0,0,0,2,0,6,2,,,,,,84.08182120000129,84.59682070001145,84.56333630000881,84.66336570000567,None,1,84.56333630000881,None,84.66336570000567,None,0.9,85.26432220000424,None,85.26432220000424,None,,,,,,,,,,,,,,,,,,,,,,,,,,,,,,,,,,,,,,,,,,,,,,,,,,,,,,,IA6LI11,1,Serial_COM3,C:\Users\EEG\Desktop\FINALCoScienceTasksLogfiles\,2022_Jan_05_1023,GoNoGo,2020.1.3,60.00373223087607,
IN DIESEM BLOCK KÖNNEN SIE EINFACH ENTSPANNT AN DIE AUFGABE HERANGEHEN. SIE SOLLEN SICH NICHT VERAUSGABEN.,100,NoGo,nogo,None,0,0,0,0,0,2,1,7,2,,,,,,86.1650634000107,86.66543040001125,86.6485520999995,86.74866009999823,None,1,86.6485520999995,None,86.74866009999823,None,0.9,87.34927840001183,None,87.34927840001183,None,,,,,,,,,,,,,,,,,,,,,,,,,,,,,,,,,,,,,,,,,,,,,,,,,,,,,,,IA6LI11,1,Serial_COM3,C:\Users\EEG\Desktop\FINALCoScienceTasksLogfiles\,2022_Jan_05_1023,GoNoGo,2020.1.3,60.00373223087607,
IN DIESEM BLOCK KÖNNEN SIE EINFACH ENTSPANNT AN DIE AUFGABE HERANGEHEN. SIE SOLLEN SICH NICHT VERAUSGABEN.,100,Go,go,4,0,0,0,0,0,2,2,8,0,,,,,,88.24966870000935,88.75052220000362,88.73348819999956,88.83351280000352,4,1,88.73348819999956,None,88.83351280000352,None,1,89.05247700000473,None,89.05247700000473,None,0.29331369999272283,,,,,,,,,,,,,,,,,,,,,,,,,,,,,,,,,,,,,,,,,,,,,,,,,,,,,,IA6LI11,1,Serial_COM3,C:\Users\EEG\Desktop\FINALCoScienceTasksLogfiles\,2022_Jan_05_1023,GoNoGo,2020.1.3,60.00373223087607,
IN DIESEM BLOCK KÖNNEN SIE EINFACH ENTSPANNT AN DIE AUFGABE HERANGEHEN. SIE SOLLEN SICH NICHT VERAUSGABEN.,100,Go,go,4,0,0,0,0,0,3,0,9,0,,,,,,90.068107900006,90.56835480000882,90.55182100000093,90.65169250000326,4,1,90.55182100000093,None,90.65169250000326,None,1,90.95389590000559,None,90.95389590000559,None,0.37982869999541435,,,,,,,,,,,,,,,,,,,,,,,,,,,,,,,,,,,,,,,,,,,,,,,,,,,,,,IA6LI11,1,Serial_COM3,C:\Users\EEG\Desktop\FINALCoScienceTasksLogfiles\,2022_Jan_05_1023,GoNoGo,2020.1.3,60.00373223087607,
IN DIESEM BLOCK KÖNNEN SIE EINFACH ENTSPANNT AN DIE AUFGABE HERANGEHEN. SIE SOLLEN SICH NICHT VERAUSGABEN.,100,Go,go,4,0,0,0,0,0,3,1,10,1,,,,,,91.96986510000715,92.4701453000016,92.45319670000754,92.5533751000039,4,1,92.45319670000754,None,92.5533751000039,None,1,92.97223090000625,None,92.97223090000625,None,0.49457280000206083,,,,,,,,,,,,,,,,,,,,,,,,,,,,,,,,,,,,,,,,,,,,,,,,,,,,,,IA6LI11,1,Serial_COM3,C:\Users\EEG\Desktop\FINALCoScienceTasksLogfiles\,2022_Jan_05_1023,GoNoGo,2020.1.3,60.00373223087607,
IN DIESEM BLOCK KÖNNEN SIE EINFACH ENTSPANNT AN DIE AUFGABE HERANGEHEN. SIE SOLLEN SICH NICHT VERAUSGABEN.,100,Go,go,4,0,0,0,0,0,3,2,11,0,,,,,,93.98812740000722,94.48859839999932,94.47174280000036,94.57166130001133,4,1,94.47174280000036,None,94.57166130001133,None,1,94.85691950000182,None,94.85691950000182,None,0.35308489999442827,,,,,,,,,,,,,,,,,,,,,,,,,,,,,,,,,,,,,,,,,,,,,,,,,,,,,,IA6LI11,1,Serial_COM3,C:\Users\EEG\Desktop\FINALCoScienceTasksLogfiles\,2022_Jan_05_1023,GoNoGo,2020.1.3,60.00373223087607,
IN DIESEM BLOCK KÖNNEN SIE EINFACH ENTSPANNT AN DIE AUFGABE HERANGEHEN. SIE SOLLEN SICH NICHT VERAUSGABEN.,100,Go,go,4,0,0,0,0,0,4,0,12,1,,,,,,95.8563995000004,96.35650059999898,96.33976450000773,96.43989210001018,4,1,96.33976450000773,None,96.43989210001018,None,1,96.82542990001093,None,96.82542990001093,None,0.45811029999458697,,,,,,,,,,,,,,,,,,,,,,,,,,,,,,,,,,,,,,,,,,,,,,,,,,,,,,IA6LI11,1,Serial_COM3,C:\Users\EEG\Desktop\FINALCoScienceTasksLogfiles\,2022_Jan_05_1023,GoNoGo,2020.1.3,60.00373223087607,
IN DIESEM BLOCK KÖNNEN SIE EINFACH ENTSPANNT AN DIE AUFGABE HERANGEHEN. SIE SOLLEN SICH NICHT VERAUSGABEN.,100,Go,go,4,0,0,0,0,0,4,1,13,1,,,,,,97.84145320000243,98.34184780000942,98.32478850000189,98.42487550000078,4,1,98.32478850000189,None,98.42487550000078,None,1,98.87138419999974,None,98.87138419999974,None,0.5152762000070652,,,,,,,,,,,,,,,,,,,,,,,,,,,,,,,,,,,,,,,,,,,,,,,,,,,,,,IA6LI11,1,Serial_COM3,C:\Users\EEG\Desktop\FINALCoScienceTasksLogfiles\,2022_Jan_05_1023,GoNoGo,2020.1.3,60.00373223087607,
IN DIESEM BLOCK KÖNNEN SIE EINFACH ENTSPANNT AN DIE AUFGABE HERANGEHEN. SIE SOLLEN SICH NICHT VERAUSGABEN.,100,NoGo,nogo,None,0,0,0,0,0,4,2,14,2,,,,,,99.87816459999885,100.39316010000766,100.35983919999853,100.45986490001087,None,1,100.35983919999853,None,100.45986490001087,None,0.9,101.0605968000018,None,101.0605968000018,None,,,,,,,,,,,,,,,,,,,,,,,,,,,,,,,,,,,,,,,,,,,,,,,,,,,,,,,IA6LI11,1,Serial_COM3,C:\Users\EEG\Desktop\FINALCoScienceTasksLogfiles\,2022_Jan_05_1023,GoNoGo,2020.1.3,60.00373223087607,
IN DIESEM BLOCK KÖNNEN SIE EINFACH ENTSPANNT AN DIE AUFGABE HERANGEHEN. SIE SOLLEN SICH NICHT VERAUSGABEN.,100,Go,go,4,1,0,0,0,0,,,,,0,0,0,1,,,,,,,,,,,,1,111.90173650000361,None,111.90173650000361,None,,102.00667470000917,None,101,111,110.96919680001156,111.46918369999912,111.46918369999912,111.56915190001018,4,1,0.3970125000050757,111.46918369999912,None,111.56915190001018,None,111.46918369999912,None,False,None,None,None,None,None,None,None,None,,,,,,,,,,,,,,,,,,,,,,,,,,,,IA6LI11,1,Serial_COM3,C:\Users\EEG\Desktop\FINALCoScienceTasksLogfiles\,2022_Jan_05_1023,GoNoGo,2020.1.3,60.00373223087607,
IN DIESEM BLOCK KÖNNEN SIE EINFACH ENTSPANNT AN DIE AUFGABE HERANGEHEN. SIE SOLLEN SICH NICHT VERAUSGABEN.,100,Go,go,4,1,0,0,0,0,,,,,0,1,1,1,,,,,,,,,,,,1,113.69987219999894,None,113.69987219999894,None,,,,101,111,112.92571650000173,113.43765490000078,113.4206564000051,113.5207514000067,4,1,0.24324360000900924,113.4206564000051,None,113.5207514000067,None,113.4206564000051,None,False,None,None,None,None,None,None,None,None,,,,,,,,,,,,,,,,,,,,,,,,,,,,IA6LI11,1,Serial_COM3,C:\Users\EEG\Desktop\FINALCoScienceTasksLogfiles\,2022_Jan_05_1023,GoNoGo,2020.1.3,60.00373223087607,
IN DIESEM BLOCK KÖNNEN SIE EINFACH ENTSPANNT AN DIE AUFGABE HERANGEHEN. SIE SOLLEN SICH NICHT VERAUSGABEN.,100,NoGo,nogo,None,2,0,0,0,0,,,,,0,2,2,2,,,,,,,,,,,,0.9,115.91722060000757,None,115.91722060000757,None,,,,102,0,114.70905650001077,115.22250200000417,115.2058732000005,115.30573830001231,None,1,,115.2058732000005,None,115.30573830001231,None,115.2058732000005,None,False,None,None,None,None,None,None,None,None,,,,,,,,,,,,,,,,,,,,,,,,,,,,IA6LI11,1,Serial_COM3,C:\Users\EEG\Desktop\FINALCoScienceTasksLogfiles\,2022_Jan_05_1023,GoNoGo,2020.1.3,60.00373223087607,
IN DIESEM BLOCK KÖNNEN SIE EINFACH ENTSPANNT AN DIE AUFGABE HERANGEHEN. SIE SOLLEN SICH NICHT VERAUSGABEN.,100,Go,go,4,1,0,0,0,0,,,,,1,0,3,0,,,,,,,,,,,,1,117.61580070000491,None,117.61580070000491,None,,,,101,111,116.82558319999953,117.34065980000014,117.32385880000948,117.42411370000627,4,1,0.2624151000054553,117.32385880000948,None,117.42411370000627,None,117.32385880000948,None,False,None,None,None,None,None,None,None,None,,,,,,,,,,,,,,,,,,,,,,,,,,,,IA6LI11,1,Serial_COM3,C:\Users\EEG\Desktop\FINALCoScienceTasksLogfiles\,2022_Jan_05_1023,GoNoGo,2020.1.3,60.00373223087607,
IN DIESEM BLOCK KÖNNEN SIE EINFACH ENTSPANNT AN DIE AUFGABE HERANGEHEN. SIE SOLLEN SICH NICHT VERAUSGABEN.,100,Go,go,4,1,0,0,0,0,,,,,1,1,4,1,,,,,,,,,,,,1,119.47285570000531,None,119.47285570000531,None,,,,101,111,118.6320362000115,119.1426247000054,119.12540520000039,119.22566750000988,4,1,0.3104904999927385,119.12540520000039,None,119.22566750000988,None,119.12540520000039,None,False,None,None,None,None,None,None,None,None,,,,,,,,,,,,,,,,,,,,,,,,,,,,IA6LI11,1,Serial_COM3,C:\Users\EEG\Desktop\FINALCoScienceTasksLogfiles\,2022_Jan_05_1023,GoNoGo,2020.1.3,60.00373223087607,
IN DIESEM BLOCK KÖNNEN SIE EINFACH ENTSPANNT AN DIE AUFGABE HERANGEHEN. SIE SOLLEN SICH NICHT VERAUSGABEN.,100,Go,go,4,1,0,0,0,0,,,,,1,2,5,0,,,,,,,,,,,,1,121.28948490000039,None,121.28948490000039,None,,,,101,111,120.48273709999921,120.993965200003,120.97692359999928,121.0774081999989,4,1,0.2759769999975106,120.97692359999928,None,121.0774081999989,None,120.97692359999928,None,False,None,None,None,None,None,None,None,None,,,,,,,,,,,,,,,,,,,,,,,,,,,,IA6LI11,1,Serial_COM3,C:\Users\EEG\Desktop\FINALCoScienceTasksLogfiles\,2022_Jan_05_1023,GoNoGo,2020.1.3,60.00373223087607,
IN DIESEM BLOCK KÖNNEN SIE EINFACH ENTSPANNT AN DIE AUFGABE HERANGEHEN. SIE SOLLEN SICH NICHT VERAUSGABEN.,100,Go,go,4,1,0,0,0,0,,,,,2,0,6,0,,,,,,,,,,,,1,123.09290390000388,None,123.09290390000388,None,,,,101,111,122.30253490000905,122.81394980000914,122.7784590000083,122.87854290001269,4,1,0.2854499999957625,122.7784590000083,None,122.87854290001269,None,122.7784590000083,None,False,None,None,None,None,None,None,None,None,,,,,,,,,,,,,,,,,,,,,,,,,,,,IA6LI11,1,Serial_COM3,C:\Users\EEG\Desktop\FINALCoScienceTasksLogfiles\,2022_Jan_05_1023,GoNoGo,2020.1.3,60.00373223087607,
IN DIESEM BLOCK KÖNNEN SIE EINFACH ENTSPANNT AN DIE AUFGABE HERANGEHEN. SIE SOLLEN SICH NICHT VERAUSGABEN.,100,NoGo,nogo,None,2,0,0,0,0,,,,,2,1,7,2,,,,,,,,,,,,0.9,125.29926970000088,None,125.29926970000088,None,,,,102,0,124.10635940000066,124.6136647000094,124.59673760000442,124.69676220000838,None,1,,124.59673760000442,None,124.69676220000838,None,124.59673760000442,None,False,None,None,None,None,None,None,None,None,,,,,,,,,,,,,,,,,,,,,,,,,,,,IA6LI11,1,Serial_COM3,C:\Users\EEG\Desktop\FINALCoScienceTasksLogfiles\,2022_Jan_05_1023,GoNoGo,2020.1.3,60.00373223087607,
IN DIESEM BLOCK KÖNNEN SIE EINFACH ENTSPANNT AN DIE AUFGABE HERANGEHEN. SIE SOLLEN SICH NICHT VERAUSGABEN.,100,Go,go,4,1,0,0,0,0,,,,,2,2,8,0,,,,,,,,,,,,1,127.04541650001192,None,127.04541650001192,None,,,,101,111,126.22503460000735,126.73204590000387,126.71508300000278,126.81528800001252,4,1,0.2967129000026034,126.71508300000278,None,126.81528800001252,None,126.71508300000278,None,False,None,None,None,None,None,None,None,None,,,,,,,,,,,,,,,,,,,,,,,,,,,,IA6LI11,1,Serial_COM3,C:\Users\EEG\Desktop\FINALCoScienceTasksLogfiles\,2022_Jan_05_1023,GoNoGo,2020.1.3,60.00373223087607,
IN DIESEM BLOCK KÖNNEN SIE EINFACH ENTSPANNT AN DIE AUFGABE HERANGEHEN. SIE SOLLEN SICH NICHT VERAUSGABEN.,100,Go,go,4,1,0,0,0,0,,,,,3,0,9,1,,,,,,,,,,,,1,128.91408060000686,None,128.91408060000686,None,,,,101,111,128.05659160000505,128.56688720000966,128.55003360001137,128.65013790001103,4,1,0.33015500000328757,128.55003360001137,None,128.65013790001103,None,128.55003360001137,None,False,None,None,None,None,None,None,None,None,,,,,,,,,,,,,,,,,,,,,,,,,,,,IA6LI11,1,Serial_COM3,C:\Users\EEG\Desktop\FINALCoScienceTasksLogfiles\,2022_Jan_05_1023,GoNoGo,2020.1.3,60.00373223087607,
IN DIESEM BLOCK KÖNNEN SIE EINFACH ENTSPANNT AN DIE AUFGABE HERANGEHEN. SIE SOLLEN SICH NICHT VERAUSGABEN.,100,Go,go,4,1,0,0,0,0,,,,,3,1,10,1,,,,,,,,,,,,1,130.7144479999988,None,130.7144479999988,None,,,,101,111,129.9237310000026,130.43512380000902,130.41814050001267,130.51813950001088,4,1,0.2650969999958761,130.41814050001267,None,130.51813950001088,None,130.41814050001267,None,False,None,None,None,None,None,None,None,None,,,,,,,,,,,,,,,,,,,,,,,,,,,,IA6LI11,1,Serial_COM3,C:\Users\EEG\Desktop\FINALCoScienceTasksLogfiles\,2022_Jan_05_1023,GoNoGo,2020.1.3,60.00373223087607,
IN DIESEM BLOCK KÖNNEN SIE EINFACH ENTSPANNT AN DIE AUFGABE HERANGEHEN. SIE SOLLEN SICH NICHT VERAUSGABEN.,100,Go,go,4,1,0,0,0,0,,,,,3,2,11,0,,,,,,,,,,,,1,132.56742730000406,None,132.56742730000406,None,,,,101,111,131.72540450000088,132.23656170000322,132.21951190000982,132.31972320000932,4,1,0.3137585000076797,132.21951190000982,None,132.31972320000932,None,132.21951190000982,None,False,None,None,None,None,None,None,None,None,,,,,,,,,,,,,,,,,,,,,,,,,,,,IA6LI11,1,Serial_COM3,C:\Users\EEG\Desktop\FINALCoScienceTasksLogfiles\,2022_Jan_05_1023,GoNoGo,2020.1.3,60.00373223087607,
IN DIESEM BLOCK KÖNNEN SIE EINFACH ENTSPANNT AN DIE AUFGABE HERANGEHEN. SIE SOLLEN SICH NICHT VERAUSGABEN.,100,Go,go,4,1,0,0,0,0,,,,,4,0,12,0,,,,,,,,,,,,1,134.46681120000721,None,134.46681120000721,None,,,,101,111,133.57727140000497,134.08816100000695,134.07114870000805,134.17166310000175,4,1,0.36874240000906866,134.07114870000805,None,134.17166310000175,None,134.07114870000805,None,False,None,None,None,None,None,None,None,None,,,,,,,,,,,,,,,,,,,,,,,,,,,,IA6LI11,1,Serial_COM3,C:\Users\EEG\Desktop\FINALCoScienceTasksLogfiles\,2022_Jan_05_1023,GoNoGo,2020.1.3,60.00373223087607,
IN DIESEM BLOCK KÖNNEN SIE EINFACH ENTSPANNT AN DIE AUFGABE HERANGEHEN. SIE SOLLEN SICH NICHT VERAUSGABEN.,100,NoGo,nogo,None,2,0,0,0,0,,,,,4,1,13,2,,,,,,,,,,,,0.9,136.68434490000072,None,136.68434490000072,None,,,,102,0,135.47994309999922,135.98981800000183,135.9725504000089,136.07268870000553,None,1,,135.9725504000089,None,136.07268870000553,None,135.9725504000089,None,False,None,None,None,None,None,None,None,None,,,,,,,,,,,,,,,,,,,,,,,,,,,,IA6LI11,1,Serial_COM3,C:\Users\EEG\Desktop\FINALCoScienceTasksLogfiles\,2022_Jan_05_1023,GoNoGo,2020.1.3,60.00373223087607,
IN DIESEM BLOCK KÖNNEN SIE EINFACH ENTSPANNT AN DIE AUFGABE HERANGEHEN. SIE SOLLEN SICH NICHT VERAUSGABEN.,100,Go,go,4,1,0,0,0,0,,,,,4,2,14,0,,,,,,,,,,,,1,138.55021340001258,None,138.55021340001258,None,,,,101,111,137.60146840001107,138.1081833000062,138.09116970001196,138.19128070000443,4,1,0.4235783999902196,138.09116970001196,None,138.19128070000443,None,138.09116970001196,None,False,None,None,None,None,None,None,None,None,,,,,,,,,,,,,,,,,,,,,,,,,,,,IA6LI11,1,Serial_COM3,C:\Users\EEG\Desktop\FINALCoScienceTasksLogfiles\,2022_Jan_05_1023,GoNoGo,2020.1.3,60.00373223087607,
IN DIESEM BLOCK KÖNNEN SIE EINFACH ENTSPANNT AN DIE AUFGABE HERANGEHEN. SIE SOLLEN SICH NICHT VERAUSGABEN.,100,Go,go,4,1,0,0,0,0,,,,,5,0,15,0,,,,,,,,,,,,1,140.47523039999942,None,140.47523039999942,None,,,,101,111,139.56545840000035,140.07643500000995,140.05954410000413,140.1597114000033,4,1,0.37836289999540895,140.05954410000413,None,140.1597114000033,None,140.05954410000413,None,False,None,None,None,None,None,None,None,None,,,,,,,,,,,,,,,,,,,,,,,,,,,,IA6LI11,1,Serial_COM3,C:\Users\EEG\Desktop\FINALCoScienceTasksLogfiles\,2022_Jan_05_1023,GoNoGo,2020.1.3,60.00373223087607,
IN DIESEM BLOCK KÖNNEN SIE EINFACH ENTSPANNT AN DIE AUFGABE HERANGEHEN. SIE SOLLEN SICH NICHT VERAUSGABEN.,100,Go,go,4,1,0,0,0,0,,,,,5,1,16,0,,,,,,,,,,,,1,142.3485561999987,None,142.3485561999987,None,,,,101,111,141.48405340001045,141.99473760000546,141.97775700000057,142.07780940001248,4,1,0.3359409999975469,141.97775700000057,None,142.07780940001248,None,141.97775700000057,None,False,None,None,None,None,None,None,None,None,,,,,,,,,,,,,,,,,,,,,,,,,,,,IA6LI11,1,Serial_COM3,C:\Users\EEG\Desktop\FINALCoScienceTasksLogfiles\,2022_Jan_05_1023,GoNoGo,2020.1.3,60.00373223087607,
IN DIESEM BLOCK KÖNNEN SIE EINFACH ENTSPANNT AN DIE AUFGABE HERANGEHEN. SIE SOLLEN SICH NICHT VERAUSGABEN.,100,Go,go,4,1,0,0,0,0,,,,,5,2,17,1,,,,,,,,,,,,1,144.18406590000086,None,144.18406590000086,None,,,,101,111,143.3698921000032,143.8815109999996,143.8460514000035,143.94618060000357,4,1,0.31404519999341574,143.8460514000035,None,143.94618060000357,None,143.8460514000035,None,False,None,None,None,None,None,None,None,None,,,,,,,,,,,,,,,,,,,,,,,,,,,,IA6LI11,1,Serial_COM3,C:\Users\EEG\Desktop\FINALCoScienceTasksLogfiles\,2022_Jan_05_1023,GoNoGo,2020.1.3,60.00373223087607,
IN DIESEM BLOCK KÖNNEN SIE EINFACH ENTSPANNT AN DIE AUFGABE HERANGEHEN. SIE SOLLEN SICH NICHT VERAUSGABEN.,100,Go,go,4,1,0,0,0,0,,,,,6,0,18,0,,,,,,,,,,,,1,146.24476190000132,None,146.24476190000132,None,,,,101,111,145.19916100001137,145.71448200001032,145.69744750000245,145.7977577999991,4,1,0.5137729999987641,145.69744750000245,None,145.7977577999991,None,145.69744750000245,None,False,None,None,None,None,None,None,None,None,,,,,,,,,,,,,,,,,,,,,,,,,,,,IA6LI11,1,Serial_COM3,C:\Users\EEG\Desktop\FINALCoScienceTasksLogfiles\,2022_Jan_05_1023,GoNoGo,2020.1.3,60.00373223087607,
IN DIESEM BLOCK KÖNNEN SIE EINFACH ENTSPANNT AN DIE AUFGABE HERANGEHEN. SIE SOLLEN SICH NICHT VERAUSGABEN.,100,Go,go,4,1,0,0,0,0,,,,,6,1,19,0,,,,,,,,,,,,1,148.14623940001184,None,148.14623940001184,None,,,,101,111,147.25523629999952,147.76616410000133,147.74918640000396,147.84939390000363,4,1,0.35657889999856707,147.74918640000396,None,147.84939390000363,None,147.74918640000396,None,False,None,None,None,None,None,None,None,None,,,,,,,,,,,,,,,,,,,,,,,,,,,,IA6LI11,1,Serial_COM3,C:\Users\EEG\Desktop\FINALCoScienceTasksLogfiles\,2022_Jan_05_1023,GoNoGo,2020.1.3,60.00373223087607,
IN DIESEM BLOCK KÖNNEN SIE EINFACH ENTSPANNT AN DIE AUFGABE HERANGEHEN. SIE SOLLEN SICH NICHT VERAUSGABEN.,100,Go,go,4,1,0,0,0,0,,,,,6,2,20,0,,,,,,,,,,,,1,150.02207140000246,None,150.02207140000246,None,,,,101,111,149.15269480001007,149.66771490000247,149.65075680000882,149.7506674000033,4,1,0.33713060000445694,149.65075680000882,None,149.7506674000033,None,149.65075680000882,None,False,None,None,None,None,None,None,None,None,,,,,,,,,,,,,,,,,,,,,,,,,,,,IA6LI11,1,Serial_COM3,C:\Users\EEG\Desktop\FINALCoScienceTasksLogfiles\,2022_Jan_05_1023,GoNoGo,2020.1.3,60.00373223087607,
IN DIESEM BLOCK KÖNNEN SIE EINFACH ENTSPANNT AN DIE AUFGABE HERANGEHEN. SIE SOLLEN SICH NICHT VERAUSGABEN.,100,NoGo,nogo,None,2,0,0,0,0,,,,,7,0,21,2,,,,,,,,,,,,0.9,152.24010160000762,None,152.24010160000762,None,,,,102,0,151.04261660001066,151.55272190000687,151.5358738000068,151.63579310000932,None,1,,151.5358738000068,None,151.63579310000932,None,151.5358738000068,None,False,None,None,None,None,None,None,None,None,,,,,,,,,,,,,,,,,,,,,,,,,,,,IA6LI11,1,Serial_COM3,C:\Users\EEG\Desktop\FINALCoScienceTasksLogfiles\,2022_Jan_05_1023,GoNoGo,2020.1.3,60.00373223087607,
IN DIESEM BLOCK KÖNNEN SIE EINFACH ENTSPANNT AN DIE AUFGABE HERANGEHEN. SIE SOLLEN SICH NICHT VERAUSGABEN.,100,Go,go,4,1,0,0,0,0,,,,,7,1,22,0,,,,,,,,,,,,1,154.07955480000237,None,154.07955480000237,None,,,,101,111,153.15600060000725,153.6709722000087,153.65406320001057,153.75415190000786,4,1,0.3939690000115661,153.65406320001057,None,153.75415190000786,None,153.65406320001057,None,False,None,None,None,None,None,None,None,None,,,,,,,,,,,,,,,,,,,,,,,,,,,,IA6LI11,1,Serial_COM3,C:\Users\EEG\Desktop\FINALCoScienceTasksLogfiles\,2022_Jan_05_1023,GoNoGo,2020.1.3,60.00373223087607,
IN DIESEM BLOCK KÖNNEN SIE EINFACH ENTSPANNT AN DIE AUFGABE HERANGEHEN. SIE SOLLEN SICH NICHT VERAUSGABEN.,100,NoGo,nogo,None,2,0,0,0,0,,,,,7,2,23,2,,,,,,,,,,,,0.9,156.28373210001155,None,156.28373210001155,None,,,,102,0,155.09640720000607,155.61785780001082,155.57239400000253,155.67242350000015,None,1,,155.57239400000253,None,155.67242350000015,None,155.57239400000253,None,False,None,None,None,None,None,None,None,None,,,,,,,,,,,,,,,,,,,,,,,,,,,,IA6LI11,1,Serial_COM3,C:\Users\EEG\Desktop\FINALCoScienceTasksLogfiles\,2022_Jan_05_1023,GoNoGo,2020.1.3,60.00373223087607,
IN DIESEM BLOCK KÖNNEN SIE EINFACH ENTSPANNT AN DIE AUFGABE HERANGEHEN. SIE SOLLEN SICH NICHT VERAUSGABEN.,100,NoGo,nogo,None,2,0,0,0,0,,,,,8,0,24,2,,,,,,,,,,,,0.9,158.39533959999972,None,158.39533959999972,None,,,,102,0,157.19748820000677,157.70780970000487,157.69075890000386,157.79087060000165,None,1,,157.69075890000386,None,157.79087060000165,None,157.69075890000386,None,False,None,None,None,None,None,None,None,None,,,,,,,,,,,,,,,,,,,,,,,,,,,,IA6LI11,1,Serial_COM3,C:\Users\EEG\Desktop\FINALCoScienceTasksLogfiles\,2022_Jan_05_1023,GoNoGo,2020.1.3,60.00373223087607,
IN DIESEM BLOCK KÖNNEN SIE EINFACH ENTSPANNT AN DIE AUFGABE HERANGEHEN. SIE SOLLEN SICH NICHT VERAUSGABEN.,100,NoGo,nogo,None,2,0,0,0,0,,,,,8,1,25,2,,,,,,,,,,,,0.9,160.5201953000069,None,160.5201953000069,None,,,,102,0,159.31494130000647,159.82624360000773,159.80921000000671,159.90932650001196,None,1,,159.80921000000671,None,159.90932650001196,None,159.80921000000671,None,False,None,None,None,None,None,None,None,None,,,,,,,,,,,,,,,,,,,,,,,,,,,,IA6LI11,1,Serial_COM3,C:\Users\EEG\Desktop\FINALCoScienceTasksLogfiles\,2022_Jan_05_1023,GoNoGo,2020.1.3,60.00373223087607,
IN DIESEM BLOCK KÖNNEN SIE EINFACH ENTSPANNT AN DIE AUFGABE HERANGEHEN. SIE SOLLEN SICH NICHT VERAUSGABEN.,100,Go,go,4,1,0,0,0,0,,,,,8,2,26,1,,,,,,,,,,,,1,162.34177940001246,None,162.34177940001246,None,,,,101,111,161.43465640000068,161.94471650000196,161.9278145999997,162.02787900000112,4,1,0.36899990000529215,161.9278145999997,None,162.02787900000112,None,161.9278145999997,None,False,None,None,None,None,None,None,None,None,,,,,,,,,,,,,,,,,,,,,,,,,,,,IA6LI11,1,Serial_COM3,C:\Users\EEG\Desktop\FINALCoScienceTasksLogfiles\,2022_Jan_05_1023,GoNoGo,2020.1.3,60.00373223087607,
IN DIESEM BLOCK KÖNNEN SIE EINFACH ENTSPANNT AN DIE AUFGABE HERANGEHEN. SIE SOLLEN SICH NICHT VERAUSGABEN.,100,Go,go,4,1,0,0,0,0,,,,,9,0,27,0,,,,,,,,,,,,1,164.24268300000404,None,164.24268300000404,None,,,,101,111,163.35265970000182,163.8628202000109,163.84593630000018,163.94602780000423,4,1,0.354901400001836,163.84593630000018,None,163.94602780000423,None,163.84593630000018,None,False,None,None,None,None,None,None,None,None,,,,,,,,,,,,,,,,,,,,,,,,,,,,IA6LI11,1,Serial_COM3,C:\Users\EEG\Desktop\FINALCoScienceTasksLogfiles\,2022_Jan_05_1023,GoNoGo,2020.1.3,60.00373223087607,
IN DIESEM BLOCK KÖNNEN SIE EINFACH ENTSPANNT AN DIE AUFGABE HERANGEHEN. SIE SOLLEN SICH NICHT VERAUSGABEN.,100,Go,go,4,1,0,0,0,0,,,,,9,1,28,1,,,,,,,,,,,,1,166.0787538000004,None,166.0787538000004,None,,,,101,111,165.25397380000504,165.76451900000393,165.7474673000106,165.84776330000022,4,1,0.29868429999623913,165.7474673000106,None,165.84776330000022,None,165.7474673000106,None,False,None,None,None,None,None,None,None,None,,,,,,,,,,,,,,,,,,,,,,,,,,,,IA6LI11,1,Serial_COM3,C:\Users\EEG\Desktop\FINALCoScienceTasksLogfiles\,2022_Jan_05_1023,GoNoGo,2020.1.3,60.00373223087607,
IN DIESEM BLOCK KÖNNEN SIE EINFACH ENTSPANNT AN DIE AUFGABE HERANGEHEN. SIE SOLLEN SICH NICHT VERAUSGABEN.,100,NoGo,nogo,None,2,0,0,0,0,,,,,9,2,29,2,,,,,,,,,,,,0.9,168.2866483000107,None,168.2866483000107,None,,,,102,0,167.08991550000792,167.5993645000126,167.58243070000026,167.68243220000295,None,1,,167.58243070000026,None,167.68243220000295,None,167.58243070000026,None,False,None,None,None,None,None,None,None,None,,,,,,,,,,,,,,,,,,,,,,,,,,,,IA6LI11,1,Serial_COM3,C:\Users\EEG\Desktop\FINALCoScienceTasksLogfiles\,2022_Jan_05_1023,GoNoGo,2020.1.3,60.00373223087607,
IN DIESEM BLOCK KÖNNEN SIE EINFACH ENTSPANNT AN DIE AUFGABE HERANGEHEN. SIE SOLLEN SICH NICHT VERAUSGABEN.,100,NoGo,nogo,None,2,0,0,0,0,,,,,10,0,30,2,,,,,,,,,,,,0.9,170.40547480000532,None,170.40547480000532,None,,,,102,0,169.2071319000097,169.71778020000784,169.70118220000586,169.80102360001183,None,1,,169.70118220000586,None,169.80102360001183,None,169.70118220000586,None,False,None,None,None,None,None,None,None,None,,,,,,,,,,,,,,,,,,,,,,,,,,,,IA6LI11,1,Serial_COM3,C:\Users\EEG\Desktop\FINALCoScienceTasksLogfiles\,2022_Jan_05_1023,GoNoGo,2020.1.3,60.00373223087607,
IN DIESEM BLOCK KÖNNEN SIE EINFACH ENTSPANNT AN DIE AUFGABE HERANGEHEN. SIE SOLLEN SICH NICHT VERAUSGABEN.,100,Go,go,4,1,0,0,0,0,,,,,10,1,31,1,,,,,,,,,,,,1,172.21616599999834,None,172.21616599999834,None,,,,101,111,171.3214122000063,171.83625340000435,171.81941150000785,171.91940350001096,4,1,0.36476400001265574,171.81941150000785,None,171.91940350001096,None,171.81941150000785,None,False,None,None,None,None,None,None,None,None,,,,,,,,,,,,,,,,,,,,,,,,,,,,IA6LI11,1,Serial_COM3,C:\Users\EEG\Desktop\FINALCoScienceTasksLogfiles\,2022_Jan_05_1023,GoNoGo,2020.1.3,60.00373223087607,
IN DIESEM BLOCK KÖNNEN SIE EINFACH ENTSPANNT AN DIE AUFGABE HERANGEHEN. SIE SOLLEN SICH NICHT VERAUSGABEN.,100,Go,go,4,1,0,0,0,0,,,,,10,2,32,1,,,,,,,,,,,,1,174.08288690001064,None,174.08288690001064,None,,,,101,111,173.22696450000512,173.73770740001055,173.7207580000104,173.82103460001235,4,1,0.3334639000095194,173.7207580000104,None,173.82103460001235,None,173.7207580000104,None,False,None,None,None,None,None,None,None,None,,,,,,,,,,,,,,,,,,,,,,,,,,,,IA6LI11,1,Serial_COM3,C:\Users\EEG\Desktop\FINALCoScienceTasksLogfiles\,2022_Jan_05_1023,GoNoGo,2020.1.3,60.00373223087607,
IN DIESEM BLOCK KÖNNEN SIE EINFACH ENTSPANNT AN DIE AUFGABE HERANGEHEN. SIE SOLLEN SICH NICHT VERAUSGABEN.,100,Go,go,4,1,0,0,0,0,,,,,11,0,33,0,,,,,,,,,,,,1,175.91968080001243,None,175.91968080001243,None,,,,101,111,175.09461290000763,175.60607160000654,175.58900720000383,175.68912229999842,4,1,0.28878489999624435,175.58900720000383,None,175.68912229999842,None,175.58900720000383,None,False,None,None,None,None,None,None,None,None,,,,,,,,,,,,,,,,,,,,,,,,,,,,IA6LI11,1,Serial_COM3,C:\Users\EEG\Desktop\FINALCoScienceTasksLogfiles\,2022_Jan_05_1023,GoNoGo,2020.1.3,60.00373223087607,
IN DIESEM BLOCK KÖNNEN SIE EINFACH ENTSPANNT AN DIE AUFGABE HERANGEHEN. SIE SOLLEN SICH NICHT VERAUSGABEN.,100,Go,go,4,1,0,0,0,0,,,,,11,1,34,0,,,,,,,,,,,,1,177.75351680000313,None,177.75351680000313,None,,,,101,111,176.92932380001002,177.4408325000113,177.42388620000565,177.5240860000049,4,1,0.3009072999993805,177.42388620000565,None,177.5240860000049,None,177.42388620000565,None,False,None,None,None,None,None,None,None,None,,,,,,,,,,,,,,,,,,,,,,,,,,,,IA6LI11,1,Serial_COM3,C:\Users\EEG\Desktop\FINALCoScienceTasksLogfiles\,2022_Jan_05_1023,GoNoGo,2020.1.3,60.00373223087607,
IN DIESEM BLOCK KÖNNEN SIE EINFACH ENTSPANNT AN DIE AUFGABE HERANGEHEN. SIE SOLLEN SICH NICHT VERAUSGABEN.,100,Go,go,4,1,0,0,0,0,,,,,11,2,35,1,,,,,,,,,,,,1,179.58342560000892,None,179.58342560000892,None,,,,101,111,178.7651487000112,179.2758704000007,179.25896780000767,179.35898570000427,4,1,0.2917659999948228,179.25896780000767,None,179.35898570000427,None,179.25896780000767,None,False,None,None,None,None,None,None,None,None,,,,,,,,,,,,,,,,,,,,,,,,,,,,IA6LI11,1,Serial_COM3,C:\Users\EEG\Desktop\FINALCoScienceTasksLogfiles\,2022_Jan_05_1023,GoNoGo,2020.1.3,60.00373223087607,
IN DIESEM BLOCK KÖNNEN SIE EINFACH ENTSPANNT AN DIE AUFGABE HERANGEHEN. SIE SOLLEN SICH NICHT VERAUSGABEN.,100,Go,go,4,1,0,0,0,0,,,,,12,0,36,1,,,,,,,,,,,,1,181.50673410001036,None,181.50673410001036,None,,,,101,111,180.59946850000415,181.11064450000413,181.09354800000438,181.19375400000717,4,1,0.3723570000001928,181.09354800000438,None,181.19375400000717,None,181.09354800000438,None,False,None,None,None,None,None,None,None,None,,,,,,,,,,,,,,,,,,,,,,,,,,,,IA6LI11,1,Serial_COM3,C:\Users\EEG\Desktop\FINALCoScienceTasksLogfiles\,2022_Jan_05_1023,GoNoGo,2020.1.3,60.00373223087607,
IN DIESEM BLOCK KÖNNEN SIE EINFACH ENTSPANNT AN DIE AUFGABE HERANGEHEN. SIE SOLLEN SICH NICHT VERAUSGABEN.,100,NoGo,nogo,None,2,0,0,0,0,,,,,12,1,37,2,,,,,,,,,,,,0.9,183.71505310000794,None,183.71505310000794,None,,,,102,0,182.5218661000108,183.02890380000463,183.01186320000852,183.11195550000411,None,1,,183.01186320000852,None,183.11195550000411,None,183.01186320000852,None,False,None,None,None,None,None,None,None,None,,,,,,,,,,,,,,,,,,,,,,,,,,,,IA6LI11,1,Serial_COM3,C:\Users\EEG\Desktop\FINALCoScienceTasksLogfiles\,2022_Jan_05_1023,GoNoGo,2020.1.3,60.00373223087607,
IN DIESEM BLOCK KÖNNEN SIE EINFACH ENTSPANNT AN DIE AUFGABE HERANGEHEN. SIE SOLLEN SICH NICHT VERAUSGABEN.,100,Go,go,4,1,0,0,0,0,,,,,12,2,38,0,,,,,,,,,,,,1,185.47434270000667,None,185.47434270000667,None,,,,101,111,184.63799990000552,185.1479274000012,185.13028199999826,185.22988740001165,4,1,0.3026869000022998,185.13028199999826,None,185.22988740001165,None,185.13028199999826,None,False,None,None,None,None,None,None,None,None,,,,,,,,,,,,,,,,,,,,,,,,,,,,IA6LI11,1,Serial_COM3,C:\Users\EEG\Desktop\FINALCoScienceTasksLogfiles\,2022_Jan_05_1023,GoNoGo,2020.1.3,60.00373223087607,
IN DIESEM BLOCK KÖNNEN SIE EINFACH ENTSPANNT AN DIE AUFGABE HERANGEHEN. SIE SOLLEN SICH NICHT VERAUSGABEN.,100,Go,go,4,1,0,0,0,0,,,,,13,0,39,0,,,,,,,,,,,,1,187.30751460000465,None,187.30751460000465,None,,,,101,111,186.48780860000988,186.99879170001077,186.98171200000797,187.08197010000004,4,1,0.29004880000138655,186.98171200000797,None,187.08197010000004,None,186.98171200000797,None,False,None,None,None,None,None,None,None,None,,,,,,,,,,,,,,,,,,,,,,,,,,,,IA6LI11,1,Serial_COM3,C:\Users\EEG\Desktop\FINALCoScienceTasksLogfiles\,2022_Jan_05_1023,GoNoGo,2020.1.3,60.00373223087607,
IN DIESEM BLOCK KÖNNEN SIE EINFACH ENTSPANNT AN DIE AUFGABE HERANGEHEN. SIE SOLLEN SICH NICHT VERAUSGABEN.,100,NoGo,nogo,None,2,0,0,0,0,,,,,13,1,40,2,,,,,,,,,,,,0.9,189.5106969000044,None,189.5106969000044,None,,,,102,0,188.31788480000978,188.83547730000282,188.80001550000452,188.90025859999878,None,1,,188.80001550000452,None,188.90025859999878,None,188.80001550000452,None,False,None,None,None,None,None,None,None,None,,,,,,,,,,,,,,,,,,,,,,,,,,,,IA6LI11,1,Serial_COM3,C:\Users\EEG\Desktop\FINALCoScienceTasksLogfiles\,2022_Jan_05_1023,GoNoGo,2020.1.3,60.00373223087607,
IN DIESEM BLOCK KÖNNEN SIE EINFACH ENTSPANNT AN DIE AUFGABE HERANGEHEN. SIE SOLLEN SICH NICHT VERAUSGABEN.,100,Go,go,4,1,0,0,0,0,,,,,13,2,41,0,,,,,,,,,,,,1,191.26038859999971,None,191.26038859999971,None,,,,101,111,190.4206789000018,190.9354747000034,190.91861790000985,191.0185319000011,4,1,0.3181678999972064,190.91861790000985,None,191.0185319000011,None,190.91861790000985,None,False,None,None,None,None,None,None,None,None,,,,,,,,,,,,,,,,,,,,,,,,,,,,IA6LI11,1,Serial_COM3,C:\Users\EEG\Desktop\FINALCoScienceTasksLogfiles\,2022_Jan_05_1023,GoNoGo,2020.1.3,60.00373223087607,
IN DIESEM BLOCK KÖNNEN SIE EINFACH ENTSPANNT AN DIE AUFGABE HERANGEHEN. SIE SOLLEN SICH NICHT VERAUSGABEN.,100,Go,go,4,1,0,0,0,0,,,,,14,0,42,0,,,,,,,,,,,,1,193.13365470001008,None,193.13365470001008,None,,,,101,111,192.2761376000126,192.78698480001185,192.77000200000475,192.8701282000111,4,1,0.32783280000148807,192.77000200000475,None,192.8701282000111,None,192.77000200000475,None,False,None,None,None,None,None,None,None,None,,,,,,,,,,,,,,,,,,,,,,,,,,,,IA6LI11,1,Serial_COM3,C:\Users\EEG\Desktop\FINALCoScienceTasksLogfiles\,2022_Jan_05_1023,GoNoGo,2020.1.3,60.00373223087607,
IN DIESEM BLOCK KÖNNEN SIE EINFACH ENTSPANNT AN DIE AUFGABE HERANGEHEN. SIE SOLLEN SICH NICHT VERAUSGABEN.,100,NoGo,nogo,None,2,0,0,0,0,,,,,14,1,43,2,,,,,,,,,,,,0.9,195.3497888999991,None,195.3497888999991,None,,,,102,0,194.14832240001124,194.65517190001265,194.63834340000176,194.73844159999862,None,1,,194.63834340000176,None,194.73844159999862,None,194.63834340000176,None,False,None,None,None,None,None,None,None,None,,,,,,,,,,,,,,,,,,,,,,,,,,,,IA6LI11,1,Serial_COM3,C:\Users\EEG\Desktop\FINALCoScienceTasksLogfiles\,2022_Jan_05_1023,GoNoGo,2020.1.3,60.00373223087607,
IN DIESEM BLOCK KÖNNEN SIE EINFACH ENTSPANNT AN DIE AUFGABE HERANGEHEN. SIE SOLLEN SICH NICHT VERAUSGABEN.,100,NoGo,nogo,None,2,0,0,0,0,,,,,14,2,44,2,,,,,,,,,,,,0.9,197.46151390000887,None,197.46151390000887,None,,,,102,0,196.26318300000275,196.77357910000137,196.7566366000101,196.8568540000124,None,1,,196.7566366000101,None,196.8568540000124,None,196.7566366000101,None,False,None,None,None,None,None,None,None,None,,,,,,,,,,,,,,,,,,,,,,,,,,,,IA6LI11,1,Serial_COM3,C:\Users\EEG\Desktop\FINALCoScienceTasksLogfiles\,2022_Jan_05_1023,GoNoGo,2020.1.3,60.00373223087607,
IN DIESEM BLOCK KÖNNEN SIE EINFACH ENTSPANNT AN DIE AUFGABE HERANGEHEN. SIE SOLLEN SICH NICHT VERAUSGABEN.,100,Go,go,4,1,0,0,0,0,,,,,15,0,45,0,,,,,,,,,,,,1,199.2893577000068,None,199.2893577000068,None,,,,101,111,198.38064920000033,198.89198410000245,198.87519940000493,198.9752734000067,4,1,0.3697631000104593,198.87519940000493,None,198.9752734000067,None,198.87519940000493,None,False,None,None,None,None,None,None,None,None,,,,,,,,,,,,,,,,,,,,,,,,,,,,IA6LI11,1,Serial_COM3,C:\Users\EEG\Desktop\FINALCoScienceTasksLogfiles\,2022_Jan_05_1023,GoNoGo,2020.1.3,60.00373223087607,
IN DIESEM BLOCK KÖNNEN SIE EINFACH ENTSPANNT AN DIE AUFGABE HERANGEHEN. SIE SOLLEN SICH NICHT VERAUSGABEN.,100,Go,go,4,1,0,0,0,0,,,,,15,1,46,1,,,,,,,,,,,,1,201.14012920000823,None,201.14012920000823,None,,,,101,111,200.2995135000092,200.81029210000997,200.793213500001,200.89340460000676,4,1,0.3134181999921566,200.793213500001,None,200.89340460000676,None,200.793213500001,None,False,None,None,None,None,None,None,None,None,,,,,,,,,,,,,,,,,,,,,,,,,,,,IA6LI11,1,Serial_COM3,C:\Users\EEG\Desktop\FINALCoScienceTasksLogfiles\,2022_Jan_05_1023,GoNoGo,2020.1.3,60.00373223087607,
IN DIESEM BLOCK KÖNNEN SIE EINFACH ENTSPANNT AN DIE AUFGABE HERANGEHEN. SIE SOLLEN SICH NICHT VERAUSGABEN.,100,Go,go,4,1,0,0,0,0,,,,,15,2,47,0,,,,,,,,,,,,1,202.97633920000226,None,202.97633920000226,None,,,,101,111,202.15162640000926,202.6618359999993,202.64483470001142,202.74506260000635,4,1,0.3019359999889275,202.64483470001142,None,202.74506260000635,None,202.64483470001142,None,False,None,None,None,None,None,None,None,None,,,,,,,,,,,,,,,,,,,,,,,,,,,,IA6LI11,1,Serial_COM3,C:\Users\EEG\Desktop\FINALCoScienceTasksLogfiles\,2022_Jan_05_1023,GoNoGo,2020.1.3,60.00373223087607,
IN DIESEM BLOCK KÖNNEN SIE EINFACH ENTSPANNT AN DIE AUFGABE HERANGEHEN. SIE SOLLEN SICH NICHT VERAUSGABEN.,100,Go,go,4,1,0,0,0,0,,,,,16,0,48,1,,,,,,,,,,,,1,204.89390249999997,None,204.89390249999997,None,,,,101,111,203.98577379999915,204.49662679999892,204.47967290000815,204.57994480000343,4,1,0.3692743999999948,204.47967290000815,None,204.57994480000343,None,204.47967290000815,None,False,None,None,None,None,None,None,None,None,,,,,,,,,,,,,,,,,,,,,,,,,,,,IA6LI11,1,Serial_COM3,C:\Users\EEG\Desktop\FINALCoScienceTasksLogfiles\,2022_Jan_05_1023,GoNoGo,2020.1.3,60.00373223087607,
IN DIESEM BLOCK KÖNNEN SIE EINFACH ENTSPANNT AN DIE AUFGABE HERANGEHEN. SIE SOLLEN SICH NICHT VERAUSGABEN.,100,NoGo,nogo,None,2,0,0,0,0,,,,,16,1,49,2,,,,,,,,,,,,0.9,207.10950770000636,None,207.10950770000636,None,,,,102,0,205.9081131999992,206.41498430000502,206.39812120000715,206.4980293000117,None,1,,206.39812120000715,None,206.4980293000117,None,206.39812120000715,None,False,None,None,None,None,None,None,None,None,,,,,,,,,,,,,,,,,,,,,,,,,,,,IA6LI11,1,Serial_COM3,C:\Users\EEG\Desktop\FINALCoScienceTasksLogfiles\,2022_Jan_05_1023,GoNoGo,2020.1.3,60.00373223087607,
IN DIESEM BLOCK KÖNNEN SIE EINFACH ENTSPANNT AN DIE AUFGABE HERANGEHEN. SIE SOLLEN SICH NICHT VERAUSGABEN.,100,Go,go,4,1,0,0,0,0,,,,,16,2,50,1,,,,,,,,,,,,1,209.01391320000403,None,209.01391320000403,None,,,,101,111,208.02635600000212,208.53334780001023,208.51641550000932,208.61649990000296,4,1,0.4684984000050463,208.51641550000932,None,208.61649990000296,None,208.51641550000932,None,False,None,None,None,None,None,None,None,None,,,,,,,,,,,,,,,,,,,,,,,,,,,,IA6LI11,1,Serial_COM3,C:\Users\EEG\Desktop\FINALCoScienceTasksLogfiles\,2022_Jan_05_1023,GoNoGo,2020.1.3,60.00373223087607,
IN DIESEM BLOCK KÖNNEN SIE EINFACH ENTSPANNT AN DIE AUFGABE HERANGEHEN. SIE SOLLEN SICH NICHT VERAUSGABEN.,100,NoGo,nogo,None,2,0,0,0,0,,,,,17,0,51,2,,,,,,,,,,,,0.9,211.22211990000505,None,211.22211990000505,None,,,,102,0,210.0285816000105,210.53506249999919,210.51807780000672,210.61802460000035,None,1,,210.51807780000672,None,210.61802460000035,None,210.51807780000672,None,False,None,None,None,None,None,None,None,None,,,,,,,,,,,,,,,,,,,,,,,,,,,,IA6LI11,1,Serial_COM3,C:\Users\EEG\Desktop\FINALCoScienceTasksLogfiles\,2022_Jan_05_1023,GoNoGo,2020.1.3,60.00373223087607,
IN DIESEM BLOCK KÖNNEN SIE EINFACH ENTSPANNT AN DIE AUFGABE HERANGEHEN. SIE SOLLEN SICH NICHT VERAUSGABEN.,100,Go,go,4,1,0,0,0,0,,,,,17,1,52,0,,,,,,,,,,,,1,212.94420380001247,None,212.94420380001247,None,,,,101,111,212.1383998000092,212.653624700004,212.63643030000094,212.73673260000942,4,1,0.2816028999950504,212.63643030000094,None,212.73673260000942,None,212.63643030000094,None,False,None,None,None,None,None,None,None,None,,,,,,,,,,,,,,,,,,,,,,,,,,,,IA6LI11,1,Serial_COM3,C:\Users\EEG\Desktop\FINALCoScienceTasksLogfiles\,2022_Jan_05_1023,GoNoGo,2020.1.3,60.00373223087607,
IN DIESEM BLOCK KÖNNEN SIE EINFACH ENTSPANNT AN DIE AUFGABE HERANGEHEN. SIE SOLLEN SICH NICHT VERAUSGABEN.,100,NoGo,nogo,None,2,0,0,0,0,,,,,17,2,53,2,,,,,,,,,,,,0.9,215.1593600000051,None,215.1593600000051,None,,,,102,0,213.9647202000051,214.47167170001194,214.45468720000645,214.55493040000147,None,1,,214.45468720000645,None,214.55493040000147,None,214.45468720000645,None,False,None,None,None,None,None,None,None,None,,,,,,,,,,,,,,,,,,,,,,,,,,,,IA6LI11,1,Serial_COM3,C:\Users\EEG\Desktop\FINALCoScienceTasksLogfiles\,2022_Jan_05_1023,GoNoGo,2020.1.3,60.00373223087607,
IN DIESEM BLOCK KÖNNEN SIE EINFACH ENTSPANNT AN DIE AUFGABE HERANGEHEN. SIE SOLLEN SICH NICHT VERAUSGABEN.,100,NoGo,nogo,None,2,0,0,0,0,,,,,18,0,54,2,,,,,,,,,,,,0.9,217.27702790001058,None,217.27702790001058,None,,,,102,0,216.07851070001198,216.59011560000363,216.5732013000088,216.67325260001235,None,1,,216.5732013000088,None,216.67325260001235,None,216.5732013000088,None,False,None,None,None,None,None,None,None,None,,,,,,,,,,,,,,,,,,,,,,,,,,,,IA6LI11,1,Serial_COM3,C:\Users\EEG\Desktop\FINALCoScienceTasksLogfiles\,2022_Jan_05_1023,GoNoGo,2020.1.3,60.00373223087607,
IN DIESEM BLOCK KÖNNEN SIE EINFACH ENTSPANNT AN DIE AUFGABE HERANGEHEN. SIE SOLLEN SICH NICHT VERAUSGABEN.,100,Go,go,4,1,0,0,0,0,,,,,18,1,55,0,,,,,,,,,,,,1,219.0869195999985,None,219.0869195999985,None,,,,101,111,218.19898520001152,218.7085100000113,218.69150290000835,218.79165630000352,4,1,0.36125620000530034,218.69150290000835,None,218.79165630000352,None,218.69150290000835,None,False,None,None,None,None,None,None,None,None,,,,,,,,,,,,,,,,,,,,,,,,,,,,IA6LI11,1,Serial_COM3,C:\Users\EEG\Desktop\FINALCoScienceTasksLogfiles\,2022_Jan_05_1023,GoNoGo,2020.1.3,60.00373223087607,
IN DIESEM BLOCK KÖNNEN SIE EINFACH ENTSPANNT AN DIE AUFGABE HERANGEHEN. SIE SOLLEN SICH NICHT VERAUSGABEN.,100,Go,go,4,1,0,0,0,0,,,,,18,2,56,1,,,,,,,,,,,,1,220.97404420000385,None,220.97404420000385,None,,,,101,111,220.09905810000782,220.61003609999898,220.59306900000956,220.6932431000023,4,1,0.34897380000620615,220.59306900000956,None,220.6932431000023,None,220.59306900000956,None,False,None,None,None,None,None,None,None,None,,,,,,,,,,,,,,,,,,,,,,,,,,,,IA6LI11,1,Serial_COM3,C:\Users\EEG\Desktop\FINALCoScienceTasksLogfiles\,2022_Jan_05_1023,GoNoGo,2020.1.3,60.00373223087607,
IN DIESEM BLOCK KÖNNEN SIE EINFACH ENTSPANNT AN DIE AUFGABE HERANGEHEN. SIE SOLLEN SICH NICHT VERAUSGABEN.,100,Go,go,4,1,0,0,0,0,,,,,19,0,57,1,,,,,,,,,,,,1,222.82461310000508,None,222.82461310000508,None,,,,101,111,221.9847418999998,222.49489580000227,222.4779423,222.57808430001023,4,1,0.31195329999900423,222.4779423,None,222.57808430001023,None,222.4779423,None,False,None,None,None,None,None,None,None,None,,,,,,,,,,,,,,,,,,,,,,,,,,,,IA6LI11,1,Serial_COM3,C:\Users\EEG\Desktop\FINALCoScienceTasksLogfiles\,2022_Jan_05_1023,GoNoGo,2020.1.3,60.00373223087607,
IN DIESEM BLOCK KÖNNEN SIE EINFACH ENTSPANNT AN DIE AUFGABE HERANGEHEN. SIE SOLLEN SICH NICHT VERAUSGABEN.,100,Go,go,4,1,0,0,0,0,,,,,19,1,58,1,,,,,,,,,,,,1,224.6437641000084,None,224.6437641000084,None,,,,101,111,223.83139580000716,224.34682299999986,224.32953160000034,224.4297188000055,4,1,0.28064520000771154,224.32953160000034,None,224.4297188000055,None,224.32953160000034,None,False,None,None,None,None,None,None,None,None,,,,,,,,,,,,,,,,,,,,,,,,,,,,IA6LI11,1,Serial_COM3,C:\Users\EEG\Desktop\FINALCoScienceTasksLogfiles\,2022_Jan_05_1023,GoNoGo,2020.1.3,60.00373223087607,
IN DIESEM BLOCK KÖNNEN SIE EINFACH ENTSPANNT AN DIE AUFGABE HERANGEHEN. SIE SOLLEN SICH NICHT VERAUSGABEN.,100,NoGo,nogo,None,2,0,0,0,0,,,,,19,2,59,2,,,,,,,,,,,,0.9,226.84374150000804,None,226.84374150000804,None,,,,102,0,225.65454030000546,226.1666261000064,226.13112630000978,226.2312782000081,None,1,,226.13112630000978,None,226.2312782000081,None,226.13112630000978,None,False,None,None,None,None,None,None,None,None,,,,,,,,,,,,,,,,,,,,,,,,,,,,IA6LI11,1,Serial_COM3,C:\Users\EEG\Desktop\FINALCoScienceTasksLogfiles\,2022_Jan_05_1023,GoNoGo,2020.1.3,60.00373223087607,
IN DIESEM BLOCK KÖNNEN SIE EINFACH ENTSPANNT AN DIE AUFGABE HERANGEHEN. SIE SOLLEN SICH NICHT VERAUSGABEN.,100,NoGo,nogo,None,2,0,0,0,0,,,,,20,0,60,2,,,,,,,,,,,,0.9,228.9598343000107,None,228.9598343000107,None,,,,102,0,227.75600950000808,228.26648430000932,228.24946400000772,228.34950830000162,None,1,,228.24946400000772,None,228.34950830000162,None,228.24946400000772,None,False,None,None,None,None,None,None,None,None,,,,,,,,,,,,,,,,,,,,,,,,,,,,IA6LI11,1,Serial_COM3,C:\Users\EEG\Desktop\FINALCoScienceTasksLogfiles\,2022_Jan_05_1023,GoNoGo,2020.1.3,60.00373223087607,
IN DIESEM BLOCK KÖNNEN SIE EINFACH ENTSPANNT AN DIE AUFGABE HERANGEHEN. SIE SOLLEN SICH NICHT VERAUSGABEN.,100,NoGo,nogo,None,2,0,0,0,0,,,,,20,1,61,2,,,,,,,,,,,,0.9,231.07649530000344,None,231.07649530000344,None,,,,102,0,229.87476669999887,230.38490200000524,230.36783620000642,230.4680376000033,None,1,,230.36783620000642,None,230.4680376000033,None,230.36783620000642,None,False,None,None,None,None,None,None,None,None,,,,,,,,,,,,,,,,,,,,,,,,,,,,IA6LI11,1,Serial_COM3,C:\Users\EEG\Desktop\FINALCoScienceTasksLogfiles\,2022_Jan_05_1023,GoNoGo,2020.1.3,60.00373223087607,
IN DIESEM BLOCK KÖNNEN SIE EINFACH ENTSPANNT AN DIE AUFGABE HERANGEHEN. SIE SOLLEN SICH NICHT VERAUSGABEN.,100,NoGo,nogo,None,2,0,0,0,0,,,,,20,2,62,2,,,,,,,,,,,,0.9,233.19796410000708,None,233.19796410000708,None,,,,102,0,231.99223790000542,232.5033442999993,232.4863372000109,232.58653460000642,None,1,,232.4863372000109,None,232.58653460000642,None,232.4863372000109,None,False,None,None,None,None,None,None,None,None,,,,,,,,,,,,,,,,,,,,,,,,,,,,IA6LI11,1,Serial_COM3,C:\Users\EEG\Desktop\FINALCoScienceTasksLogfiles\,2022_Jan_05_1023,GoNoGo,2020.1.3,60.00373223087607,
IN DIESEM BLOCK KÖNNEN SIE EINFACH ENTSPANNT AN DIE AUFGABE HERANGEHEN. SIE SOLLEN SICH NICHT VERAUSGABEN.,100,NoGo,nogo,None,2,0,0,0,0,,,,,21,0,63,2,,,,,,,,,,,,0.9,235.3095375999983,None,235.3095375999983,None,,,,102,0,234.11019380000653,234.62168940000993,234.60465590000967,234.70490450000216,None,1,,234.60465590000967,None,234.70490450000216,None,234.60465590000967,None,False,None,None,None,None,None,None,None,None,,,,,,,,,,,,,,,,,,,,,,,,,,,,IA6LI11,1,Serial_COM3,C:\Users\EEG\Desktop\FINALCoScienceTasksLogfiles\,2022_Jan_05_1023,GoNoGo,2020.1.3,60.00373223087607,
IN DIESEM BLOCK KÖNNEN SIE EINFACH ENTSPANNT AN DIE AUFGABE HERANGEHEN. SIE SOLLEN SICH NICHT VERAUSGABEN.,100,Go,go,4,1,0,0,0,0,,,,,21,1,64,0,,,,,,,,,,,,1,237.13661640000646,None,237.13661640000646,None,,,,101,111,236.23215619999974,236.74023780001153,236.72324859999935,236.82319670000288,4,1,0.37393110000994056,236.72324859999935,None,236.82319670000288,None,236.72324859999935,None,False,None,None,None,None,None,None,None,None,,,,,,,,,,,,,,,,,,,,,,,,,,,,IA6LI11,1,Serial_COM3,C:\Users\EEG\Desktop\FINALCoScienceTasksLogfiles\,2022_Jan_05_1023,GoNoGo,2020.1.3,60.00373223087607,
IN DIESEM BLOCK KÖNNEN SIE EINFACH ENTSPANNT AN DIE AUFGABE HERANGEHEN. SIE SOLLEN SICH NICHT VERAUSGABEN.,100,NoGo,nogo,None,2,0,0,0,0,,,,,21,2,65,2,,,,,,,,,,,,0.9,239.34606050000002,None,239.34606050000002,None,,,,102,0,238.14880580001045,238.65846880000026,238.6416004000057,238.7418003000057,None,1,,238.6416004000057,None,238.7418003000057,None,238.6416004000057,None,False,None,None,None,None,None,None,None,None,,,,,,,,,,,,,,,,,,,,,,,,,,,,IA6LI11,1,Serial_COM3,C:\Users\EEG\Desktop\FINALCoScienceTasksLogfiles\,2022_Jan_05_1023,GoNoGo,2020.1.3,60.00373223087607,
IN DIESEM BLOCK KÖNNEN SIE EINFACH ENTSPANNT AN DIE AUFGABE HERANGEHEN. SIE SOLLEN SICH NICHT VERAUSGABEN.,100,NoGo,nogo,None,2,0,0,0,0,,,,,22,0,66,2,,,,,,,,,,,,0.9,241.46445600000152,None,241.46445600000152,None,,,,102,0,240.2661100000114,240.77685480000218,240.75988830000279,240.85970610000368,None,1,,240.75988830000279,None,240.85970610000368,None,240.75988830000279,None,False,None,None,None,None,None,None,None,None,,,,,,,,,,,,,,,,,,,,,,,,,,,,IA6LI11,1,Serial_COM3,C:\Users\EEG\Desktop\FINALCoScienceTasksLogfiles\,2022_Jan_05_1023,GoNoGo,2020.1.3,60.00373223087607,
IN DIESEM BLOCK KÖNNEN SIE EINFACH ENTSPANNT AN DIE AUFGABE HERANGEHEN. SIE SOLLEN SICH NICHT VERAUSGABEN.,100,Go,go,4,1,0,0,0,0,,,,,22,1,67,1,,,,,,,,,,,,1,243.24169390001043,None,243.24169390001043,None,,,,101,111,242.38666550000198,242.89528550000978,242.87841150000168,242.9783013999986,4,1,0.3195287999988068,242.87841150000168,None,242.9783013999986,None,242.87841150000168,None,False,None,None,None,None,None,None,None,None,,,,,,,,,,,,,,,,,,,,,,,,,,,,IA6LI11,1,Serial_COM3,C:\Users\EEG\Desktop\FINALCoScienceTasksLogfiles\,2022_Jan_05_1023,GoNoGo,2020.1.3,60.00373223087607,
IN DIESEM BLOCK KÖNNEN SIE EINFACH ENTSPANNT AN DIE AUFGABE HERANGEHEN. SIE SOLLEN SICH NICHT VERAUSGABEN.,100,Go,go,4,1,0,0,0,0,,,,,22,2,68,1,,,,,,,,,,,,1,245.13456800000858,None,245.13456800000858,None,,,,101,111,244.25239290000172,244.76349950001168,244.74660350001068,244.8466230000049,4,1,0.36565669999981765,244.74660350001068,None,244.8466230000049,None,244.74660350001068,None,False,None,None,None,None,None,None,None,None,,,,,,,,,,,,,,,,,,,,,,,,,,,,IA6LI11,1,Serial_COM3,C:\Users\EEG\Desktop\FINALCoScienceTasksLogfiles\,2022_Jan_05_1023,GoNoGo,2020.1.3,60.00373223087607,
IN DIESEM BLOCK KÖNNEN SIE EINFACH ENTSPANNT AN DIE AUFGABE HERANGEHEN. SIE SOLLEN SICH NICHT VERAUSGABEN.,100,Go,go,4,1,0,0,0,0,,,,,23,0,69,1,,,,,,,,,,,,1,246.9968654000113,None,246.9968654000113,None,,,,101,111,246.15488300001016,246.67709310000646,246.63150390000374,246.73165080000763,4,1,0.32530740000947844,246.63150390000374,None,246.73165080000763,None,246.63150390000374,None,False,None,None,None,None,None,None,None,None,,,,,,,,,,,,,,,,,,,,,,,,,,,,IA6LI11,1,Serial_COM3,C:\Users\EEG\Desktop\FINALCoScienceTasksLogfiles\,2022_Jan_05_1023,GoNoGo,2020.1.3,60.00373223087607,
IN DIESEM BLOCK KÖNNEN SIE EINFACH ENTSPANNT AN DIE AUFGABE HERANGEHEN. SIE SOLLEN SICH NICHT VERAUSGABEN.,100,NoGo,nogo,None,2,0,0,0,0,,,,,23,1,70,2,,,,,,,,,,,,0.9,249.2077605000086,None,249.2077605000086,None,,,,102,0,248.00977319999947,248.51624680000532,248.4999317000038,248.59965550000197,None,1,,248.4999317000038,None,248.59965550000197,None,248.4999317000038,None,False,None,None,None,None,None,None,None,None,,,,,,,,,,,,,,,,,,,,,,,,,,,,IA6LI11,1,Serial_COM3,C:\Users\EEG\Desktop\FINALCoScienceTasksLogfiles\,2022_Jan_05_1023,GoNoGo,2020.1.3,60.00373223087607,
IN DIESEM BLOCK KÖNNEN SIE EINFACH ENTSPANNT AN DIE AUFGABE HERANGEHEN. SIE SOLLEN SICH NICHT VERAUSGABEN.,100,Go,go,4,1,0,0,0,0,,,,,23,2,71,1,,,,,,,,,,,,1,250.948833500006,None,250.948833500006,None,,,,101,111,250.11984890000895,250.63502970000263,250.6180897000013,250.71826940000756,4,1,0.2947825000010198,250.6180897000013,None,250.71826940000756,None,250.6180897000013,None,False,None,None,None,None,None,None,None,None,,,,,,,,,,,,,,,,,,,,,,,,,,,,IA6LI11,1,Serial_COM3,C:\Users\EEG\Desktop\FINALCoScienceTasksLogfiles\,2022_Jan_05_1023,GoNoGo,2020.1.3,60.00373223087607,
IN DIESEM BLOCK KÖNNEN SIE EINFACH ENTSPANNT AN DIE AUFGABE HERANGEHEN. SIE SOLLEN SICH NICHT VERAUSGABEN.,100,NoGo,nogo,None,2,0,0,0,0,,,,,24,0,72,2,,,,,,,,,,,,0.9,253.1653254999983,None,253.1653254999983,None,,,,102,0,251.9629985000065,252.4699365000124,252.45308340000338,252.55319540000346,None,1,,252.45308340000338,None,252.55319540000346,None,252.45308340000338,None,False,None,None,None,None,None,None,None,None,,,,,,,,,,,,,,,,,,,,,,,,,,,,IA6LI11,1,Serial_COM3,C:\Users\EEG\Desktop\FINALCoScienceTasksLogfiles\,2022_Jan_05_1023,GoNoGo,2020.1.3,60.00373223087607,
IN DIESEM BLOCK KÖNNEN SIE EINFACH ENTSPANNT AN DIE AUFGABE HERANGEHEN. SIE SOLLEN SICH NICHT VERAUSGABEN.,100,NoGo,nogo,None,2,0,0,0,0,,,,,24,1,73,2,,,,,,,,,,,,0.9,255.2766333000036,None,255.2766333000036,None,,,,102,0,254.07816790000652,254.58870820001175,254.5711702000117,254.671969300005,None,1,,254.5711702000117,None,254.671969300005,None,254.5711702000117,None,False,None,None,None,None,None,None,None,None,,,,,,,,,,,,,,,,,,,,,,,,,,,,IA6LI11,1,Serial_COM3,C:\Users\EEG\Desktop\FINALCoScienceTasksLogfiles\,2022_Jan_05_1023,GoNoGo,2020.1.3,60.00373223087607,
IN DIESEM BLOCK KÖNNEN SIE EINFACH ENTSPANNT AN DIE AUFGABE HERANGEHEN. SIE SOLLEN SICH NICHT VERAUSGABEN.,100,Go,go,4,1,0,0,0,0,,,,,24,2,74,0,,,,,,,,,,,,1,257.07795020000776,None,257.07795020000776,None,,,,101,111,256.19825530001253,256.7060096000059,256.6893323000113,256.789875100003,4,1,0.3544220000039786,256.6893323000113,None,256.789875100003,None,256.6893323000113,None,False,None,None,None,None,None,None,None,None,,,,,,,,,,,,,,,,,,,,,,,,,,,,IA6LI11,1,Serial_COM3,C:\Users\EEG\Desktop\FINALCoScienceTasksLogfiles\,2022_Jan_05_1023,GoNoGo,2020.1.3,60.00373223087607,
IN DIESEM BLOCK KÖNNEN SIE EINFACH ENTSPANNT AN DIE AUFGABE HERANGEHEN. SIE SOLLEN SICH NICHT VERAUSGABEN.,100,Go,go,4,1,0,0,0,0,,,,,25,0,75,0,,,,,,,,,,,,1,258.98855580000964,None,258.98855580000964,None,,,,101,111,258.09631950000767,258.6083295999997,258.59129219999886,258.6919615000079,4,1,0.36571810000168625,258.59129219999886,None,258.6919615000079,None,258.59129219999886,None,False,None,None,None,None,None,None,None,None,,,,,,,,,,,,,,,,,,,,,,,,,,,,IA6LI11,1,Serial_COM3,C:\Users\EEG\Desktop\FINALCoScienceTasksLogfiles\,2022_Jan_05_1023,GoNoGo,2020.1.3,60.00373223087607,
IN DIESEM BLOCK KÖNNEN SIE EINFACH ENTSPANNT AN DIE AUFGABE HERANGEHEN. SIE SOLLEN SICH NICHT VERAUSGABEN.,100,Go,go,4,1,0,0,0,0,,,,,25,1,76,1,,,,,,,,,,,,1,260.889768500012,None,260.889768500012,None,,,,101,111,259.9978994000121,260.5099062000081,260.4929673000006,260.5928021,4,1,0.3560823000007076,260.4929673000006,None,260.5928021,None,260.4929673000006,None,False,None,None,None,None,None,None,None,None,,,,,,,,,,,,,,,,,,,,,,,,,,,,IA6LI11,1,Serial_COM3,C:\Users\EEG\Desktop\FINALCoScienceTasksLogfiles\,2022_Jan_05_1023,GoNoGo,2020.1.3,60.00373223087607,
IN DIESEM BLOCK KÖNNEN SIE EINFACH ENTSPANNT AN DIE AUFGABE HERANGEHEN. SIE SOLLEN SICH NICHT VERAUSGABEN.,100,Go,go,4,1,0,0,0,0,,,,,25,2,77,0,,,,,,,,,,,,1,262.7753079000104,None,262.7753079000104,None,,,,101,111,261.9008484000078,262.4114692000003,262.3946833000082,262.4947019000101,4,1,0.3393655999971088,262.3946833000082,None,262.4947019000101,None,262.3946833000082,None,False,None,None,None,None,None,None,None,None,,,,,,,,,,,,,,,,,,,,,,,,,,,,IA6LI11,1,Serial_COM3,C:\Users\EEG\Desktop\FINALCoScienceTasksLogfiles\,2022_Jan_05_1023,GoNoGo,2020.1.3,60.00373223087607,
IN DIESEM BLOCK KÖNNEN SIE EINFACH ENTSPANNT AN DIE AUFGABE HERANGEHEN. SIE SOLLEN SICH NICHT VERAUSGABEN.,100,Go,go,4,1,0,0,0,0,,,,,26,0,78,0,,,,,,,,,,,,1,264.62720139999874,None,264.62720139999874,None,,,,101,111,263.78552550000313,264.29643270000815,264.279437300007,264.3796912000107,4,1,0.3074971000023652,264.279437300007,None,264.3796912000107,None,264.279437300007,None,False,None,None,None,None,None,None,None,None,,,,,,,,,,,,,,,,,,,,,,,,,,,,IA6LI11,1,Serial_COM3,C:\Users\EEG\Desktop\FINALCoScienceTasksLogfiles\,2022_Jan_05_1023,GoNoGo,2020.1.3,60.00373223087607,
IN DIESEM BLOCK KÖNNEN SIE EINFACH ENTSPANNT AN DIE AUFGABE HERANGEHEN. SIE SOLLEN SICH NICHT VERAUSGABEN.,100,Go,go,4,1,0,0,0,0,,,,,26,1,79,0,,,,,,,,,,,,1,266.47620430000825,None,266.47620430000825,None,,,,101,111,265.6329609000095,266.1479442000127,266.1309906000097,266.2311531000014,4,1,0.3048631999990903,266.1309906000097,None,266.2311531000014,None,266.1309906000097,None,False,None,None,None,None,None,None,None,None,,,,,,,,,,,,,,,,,,,,,,,,,,,,IA6LI11,1,Serial_COM3,C:\Users\EEG\Desktop\FINALCoScienceTasksLogfiles\,2022_Jan_05_1023,GoNoGo,2020.1.3,60.00373223087607,
IN DIESEM BLOCK KÖNNEN SIE EINFACH ENTSPANNT AN DIE AUFGABE HERANGEHEN. SIE SOLLEN SICH NICHT VERAUSGABEN.,100,Go,go,4,1,0,0,0,0,,,,,26,2,80,0,,,,,,,,,,,,1,268.28036509999947,None,268.28036509999947,None,,,,101,111,267.49014170000737,268.0011438000074,267.96582430000126,268.06595980000566,4,1,0.28402430001005996,267.96582430000126,None,268.06595980000566,None,267.96582430000126,None,False,None,None,None,None,None,None,None,None,,,,,,,,,,,,,,,,,,,,,,,,,,,,IA6LI11,1,Serial_COM3,C:\Users\EEG\Desktop\FINALCoScienceTasksLogfiles\,2022_Jan_05_1023,GoNoGo,2020.1.3,60.00373223087607,
IN DIESEM BLOCK KÖNNEN SIE EINFACH ENTSPANNT AN DIE AUFGABE HERANGEHEN. SIE SOLLEN SICH NICHT VERAUSGABEN.,100,Go,go,4,1,0,0,0,0,,,,,27,0,81,1,,,,,,,,,,,,1,270.0978262999997,None,270.0978262999997,None,,,,101,111,269.2854922000115,269.8134879999998,269.7673216000112,269.8675030000013,4,1,0.29245380000793375,269.7673216000112,None,269.8675030000013,None,269.7673216000112,None,False,None,None,None,None,None,None,None,None,,,,,,,,,,,,,,,,,,,,,,,,,,,,IA6LI11,1,Serial_COM3,C:\Users\EEG\Desktop\FINALCoScienceTasksLogfiles\,2022_Jan_05_1023,GoNoGo,2020.1.3,60.00373223087607,
IN DIESEM BLOCK KÖNNEN SIE EINFACH ENTSPANNT AN DIE AUFGABE HERANGEHEN. SIE SOLLEN SICH NICHT VERAUSGABEN.,100,NoGo,nogo,None,2,0,0,0,0,,,,,27,1,82,2,,,,,,,,,,,,0.9,272.313321300011,None,272.313321300011,None,,,,102,0,271.11299550000695,271.6191361000092,271.60226610000245,271.70222790000844,None,1,,271.60226610000245,None,271.70222790000844,None,271.60226610000245,None,False,None,None,None,None,None,None,None,None,,,,,,,,,,,,,,,,,,,,,,,,,,,,IA6LI11,1,Serial_COM3,C:\Users\EEG\Desktop\FINALCoScienceTasksLogfiles\,2022_Jan_05_1023,GoNoGo,2020.1.3,60.00373223087607,
IN DIESEM BLOCK KÖNNEN SIE EINFACH ENTSPANNT AN DIE AUFGABE HERANGEHEN. SIE SOLLEN SICH NICHT VERAUSGABEN.,100,Go,go,4,1,0,0,0,0,,,,,27,2,83,1,,,,,,,,,,,,1,274.06785800000944,None,274.06785800000944,None,,,,101,111,273.22223670000676,273.73754980000376,273.72064660000615,273.82069780000893,4,1,0.3062987000012072,273.72064660000615,None,273.82069780000893,None,273.72064660000615,None,False,None,None,None,None,None,None,None,None,,,,,,,,,,,,,,,,,,,,,,,,,,,,IA6LI11,1,Serial_COM3,C:\Users\EEG\Desktop\FINALCoScienceTasksLogfiles\,2022_Jan_05_1023,GoNoGo,2020.1.3,60.00373223087607,
IN DIESEM BLOCK KÖNNEN SIE EINFACH ENTSPANNT AN DIE AUFGABE HERANGEHEN. SIE SOLLEN SICH NICHT VERAUSGABEN.,100,NoGo,nogo,None,2,0,0,0,0,,,,,28,0,84,2,,,,,,,,,,,,0.9,276.2834121000051,None,276.2834121000051,None,,,,102,0,275.0797644999984,275.58916500001214,275.57218240000657,275.6723122000112,None,1,,275.57218240000657,None,275.6723122000112,None,275.57218240000657,None,False,None,None,None,None,None,None,None,None,,,,,,,,,,,,,,,,,,,,,,,,,,,,IA6LI11,1,Serial_COM3,C:\Users\EEG\Desktop\FINALCoScienceTasksLogfiles\,2022_Jan_05_1023,GoNoGo,2020.1.3,60.00373223087607,
IN DIESEM BLOCK KÖNNEN SIE EINFACH ENTSPANNT AN DIE AUFGABE HERANGEHEN. SIE SOLLEN SICH NICHT VERAUSGABEN.,100,NoGo,nogo,None,2,0,0,0,0,,,,,28,1,85,2,,,,,,,,,,,,0.9,278.3952837000106,None,278.3952837000106,None,,,,102,0,277.1918321000121,277.7075145000126,277.690540399999,277.79067410000425,None,1,,277.690540399999,None,277.79067410000425,None,277.690540399999,None,False,None,None,None,None,None,None,None,None,,,,,,,,,,,,,,,,,,,,,,,,,,,,IA6LI11,1,Serial_COM3,C:\Users\EEG\Desktop\FINALCoScienceTasksLogfiles\,2022_Jan_05_1023,GoNoGo,2020.1.3,60.00373223087607,
IN DIESEM BLOCK KÖNNEN SIE EINFACH ENTSPANNT AN DIE AUFGABE HERANGEHEN. SIE SOLLEN SICH NICHT VERAUSGABEN.,100,Go,go,4,1,0,0,0,0,,,,,28,2,86,1,,,,,,,,,,,,1,280.1471309000044,None,280.1471309000044,None,,,,101,111,279.31619990000036,279.8277788999985,279.7923390000069,279.8925606999983,4,1,0.3305767999991076,279.7923390000069,None,279.8925606999983,None,279.7923390000069,None,False,None,None,None,None,None,None,None,None,,,,,,,,,,,,,,,,,,,,,,,,,,,,IA6LI11,1,Serial_COM3,C:\Users\EEG\Desktop\FINALCoScienceTasksLogfiles\,2022_Jan_05_1023,GoNoGo,2020.1.3,60.00373223087607,
IN DIESEM BLOCK KÖNNEN SIE EINFACH ENTSPANNT AN DIE AUFGABE HERANGEHEN. SIE SOLLEN SICH NICHT VERAUSGABEN.,100,NoGo,nogo,None,2,0,0,0,0,,,,,29,0,87,2,,,,,,,,,,,,0.9,282.36792330000026,None,282.36792330000026,None,,,,102,0,281.1675189000089,281.67759099999967,281.6605620000046,281.76058630000625,None,1,,281.6605620000046,None,281.76058630000625,None,281.6605620000046,None,False,None,None,None,None,None,None,None,None,,,,,,,,,,,,,,,,,,,,,,,,,,,,IA6LI11,1,Serial_COM3,C:\Users\EEG\Desktop\FINALCoScienceTasksLogfiles\,2022_Jan_05_1023,GoNoGo,2020.1.3,60.00373223087607,
IN DIESEM BLOCK KÖNNEN SIE EINFACH ENTSPANNT AN DIE AUFGABE HERANGEHEN. SIE SOLLEN SICH NICHT VERAUSGABEN.,100,Go,go,4,1,0,0,0,0,,,,,29,1,88,1,,,,,,,,,,,,1,284.2212601000065,None,284.2212601000065,None,,,,101,111,283.28140190000704,283.7960114000016,283.77899610000895,283.8791984999989,4,1,0.4060740999993868,283.77899610000895,None,283.8791984999989,None,283.77899610000895,None,False,None,None,None,None,None,None,None,None,,,,,,,,,,,,,,,,,,,,,,,,,,,,IA6LI11,1,Serial_COM3,C:\Users\EEG\Desktop\FINALCoScienceTasksLogfiles\,2022_Jan_05_1023,GoNoGo,2020.1.3,60.00373223087607,
IN DIESEM BLOCK KÖNNEN SIE EINFACH ENTSPANNT AN DIE AUFGABE HERANGEHEN. SIE SOLLEN SICH NICHT VERAUSGABEN.,100,Go,go,4,1,0,0,0,0,,,,,29,2,89,0,,,,,,,,,,,,1,286.10578710000846,None,286.10578710000846,None,,,,101,111,285.2324520000111,285.74758049999946,285.7306402000104,285.83081780000066,4,1,0.34413470000436064,285.7306402000104,None,285.83081780000066,None,285.7306402000104,None,False,None,None,None,None,None,None,None,None,,,,,,,,,,,,,,,,,,,,,,,,,,,,IA6LI11,1,Serial_COM3,C:\Users\EEG\Desktop\FINALCoScienceTasksLogfiles\,2022_Jan_05_1023,GoNoGo,2020.1.3,60.00373223087607,
IN DIESEM BLOCK KÖNNEN SIE EINFACH ENTSPANNT AN DIE AUFGABE HERANGEHEN. SIE SOLLEN SICH NICHT VERAUSGABEN.,100,Go,go,4,1,0,0,0,0,,,,,30,0,90,1,,,,,,,,,,,,1,288.0124685000046,None,288.0124685000046,None,,,,101,111,287.1219013000082,287.6324866000068,287.61563390000083,287.7157315000077,4,1,0.3611245000065537,287.61563390000083,None,287.7157315000077,None,287.61563390000083,None,False,None,None,None,None,None,None,None,None,,,,,,,,,,,,,,,,,,,,,,,,,,,,IA6LI11,1,Serial_COM3,C:\Users\EEG\Desktop\FINALCoScienceTasksLogfiles\,2022_Jan_05_1023,GoNoGo,2020.1.3,60.00373223087607,
IN DIESEM BLOCK KÖNNEN SIE EINFACH ENTSPANNT AN DIE AUFGABE HERANGEHEN. SIE SOLLEN SICH NICHT VERAUSGABEN.,100,Go,go,4,1,0,0,0,0,,,,,30,1,91,0,,,,,,,,,,,,1,289.8313007000106,None,289.8313007000106,None,,,,101,111,289.0162235000025,289.5174188000092,289.5003646000114,289.6006281000009,4,1,0.28633030000492,289.5003646000114,None,289.6006281000009,None,289.5003646000114,None,False,None,None,None,None,None,None,None,None,,,,,,,,,,,,,,,,,,,,,,,,,,,,IA6LI11,1,Serial_COM3,C:\Users\EEG\Desktop\FINALCoScienceTasksLogfiles\,2022_Jan_05_1023,GoNoGo,2020.1.3,60.00373223087607,
IN DIESEM BLOCK KÖNNEN SIE EINFACH ENTSPANNT AN DIE AUFGABE HERANGEHEN. SIE SOLLEN SICH NICHT VERAUSGABEN.,100,Go,go,4,1,0,0,0,0,,,,,30,2,92,0,,,,,,,,,,,,1,291.64969030000793,None,291.64969030000793,None,,,,101,111,290.8415313000005,291.35223630000837,291.33526620001066,291.43545129999984,4,1,0.2776296999945771,291.33526620001066,None,291.43545129999984,None,291.33526620001066,None,False,None,None,None,None,None,None,None,None,,,,,,,,,,,,,,,,,,,,,,,,,,,,IA6LI11,1,Serial_COM3,C:\Users\EEG\Desktop\FINALCoScienceTasksLogfiles\,2022_Jan_05_1023,GoNoGo,2020.1.3,60.00373223087607,
IN DIESEM BLOCK KÖNNEN SIE EINFACH ENTSPANNT AN DIE AUFGABE HERANGEHEN. SIE SOLLEN SICH NICHT VERAUSGABEN.,100,Go,go,4,1,0,0,0,0,,,,,31,0,93,1,,,,,,,,,,,,1,293.5171398000093,None,293.5171398000093,None,,,,101,111,292.6550497999997,293.1704296000098,293.153450400001,293.2535274000111,4,1,0.32992940000258386,293.153450400001,None,293.2535274000111,None,293.153450400001,None,False,None,None,None,None,None,None,None,None,,,,,,,,,,,,,,,,,,,,,,,,,,,,IA6LI11,1,Serial_COM3,C:\Users\EEG\Desktop\FINALCoScienceTasksLogfiles\,2022_Jan_05_1023,GoNoGo,2020.1.3,60.00373223087607,
IN DIESEM BLOCK KÖNNEN SIE EINFACH ENTSPANNT AN DIE AUFGABE HERANGEHEN. SIE SOLLEN SICH NICHT VERAUSGABEN.,100,Go,go,4,1,0,0,0,0,,,,,31,1,94,0,,,,,,,,,,,,1,295.33303650000016,None,295.33303650000016,None,,,,101,111,294.52300130001095,295.040399400008,295.00497840000025,295.1050733000011,4,1,0.2898013000085484,295.00497840000025,None,295.1050733000011,None,295.00497840000025,None,False,None,None,None,None,None,None,None,None,,,,,,,,,,,,,,,,,,,,,,,,,,,,IA6LI11,1,Serial_COM3,C:\Users\EEG\Desktop\FINALCoScienceTasksLogfiles\,2022_Jan_05_1023,GoNoGo,2020.1.3,60.00373223087607,
IN DIESEM BLOCK KÖNNEN SIE EINFACH ENTSPANNT AN DIE AUFGABE HERANGEHEN. SIE SOLLEN SICH NICHT VERAUSGABEN.,100,Go,go,4,1,0,0,0,0,,,,,31,2,95,0,,,,,,,,,,,,1,297.1781566999998,None,297.1781566999998,None,,,,101,111,296.3439811999997,296.85675230000925,296.83975450000435,296.9398622000008,4,1,0.30708969999977853,296.83975450000435,None,296.9398622000008,None,296.83975450000435,None,False,None,None,None,None,None,None,None,None,,,,,,,,,,,,,,,,,,,,,,,,,,,,IA6LI11,1,Serial_COM3,C:\Users\EEG\Desktop\FINALCoScienceTasksLogfiles\,2022_Jan_05_1023,GoNoGo,2020.1.3,60.00373223087607,
IN DIESEM BLOCK KÖNNEN SIE EINFACH ENTSPANNT AN DIE AUFGABE HERANGEHEN. SIE SOLLEN SICH NICHT VERAUSGABEN.,100,NoGo,nogo,None,2,0,0,0,0,,,,,32,0,96,2,,,,,,,,,,,,0.9,299.40291920000163,None,299.40291920000163,None,,,,102,0,298.20085459999973,298.70830170001136,298.6910046000121,298.79157990000385,None,1,,298.6910046000121,None,298.79157990000385,None,298.6910046000121,None,False,None,None,None,None,None,None,None,None,,,,,,,,,,,,,,,,,,,,,,,,,,,,IA6LI11,1,Serial_COM3,C:\Users\EEG\Desktop\FINALCoScienceTasksLogfiles\,2022_Jan_05_1023,GoNoGo,2020.1.3,60.00373223087607,
IN DIESEM BLOCK KÖNNEN SIE EINFACH ENTSPANNT AN DIE AUFGABE HERANGEHEN. SIE SOLLEN SICH NICHT VERAUSGABEN.,100,Go,go,4,1,0,0,0,0,,,,,32,1,97,0,,,,,,,,,,,,1,301.2574758000119,None,301.2574758000119,None,,,,101,111,300.3175104000111,300.8267889000126,300.8099529000028,300.9099783999991,4,1,0.4140900999918813,300.8099529000028,None,300.9099783999991,None,300.8099529000028,None,False,None,None,None,None,None,None,None,None,,,,,,,,,,,,,,,,,,,,,,,,,,,,IA6LI11,1,Serial_COM3,C:\Users\EEG\Desktop\FINALCoScienceTasksLogfiles\,2022_Jan_05_1023,GoNoGo,2020.1.3,60.00373223087607,
IN DIESEM BLOCK KÖNNEN SIE EINFACH ENTSPANNT AN DIE AUFGABE HERANGEHEN. SIE SOLLEN SICH NICHT VERAUSGABEN.,100,Go,go,4,1,0,0,0,0,,,,,32,2,98,1,,,,,,,,,,,,1,303.17284980000113,None,303.17284980000113,None,,,,101,111,302.2634781000088,302.7783647000033,302.76157420000527,302.86151729999983,4,1,0.3823368000012124,302.76157420000527,None,302.86151729999983,None,302.76157420000527,None,False,None,None,None,None,None,None,None,None,,,,,,,,,,,,,,,,,,,,,,,,,,,,IA6LI11,1,Serial_COM3,C:\Users\EEG\Desktop\FINALCoScienceTasksLogfiles\,2022_Jan_05_1023,GoNoGo,2020.1.3,60.00373223087607,
IN DIESEM BLOCK KÖNNEN SIE EINFACH ENTSPANNT AN DIE AUFGABE HERANGEHEN. SIE SOLLEN SICH NICHT VERAUSGABEN.,100,Go,go,4,1,0,0,0,0,,,,,33,0,99,0,,,,,,,,,,,,1,305.0254389000038,None,305.0254389000038,None,,,,101,111,304.18600480000896,304.69665180001175,304.6798099000007,304.7797189000121,4,1,0.3180507000070065,304.6798099000007,None,304.7797189000121,None,304.6798099000007,None,False,None,None,None,None,None,None,None,None,,,,,,,,,,,,,,,,,,,,,,,,,,,,IA6LI11,1,Serial_COM3,C:\Users\EEG\Desktop\FINALCoScienceTasksLogfiles\,2022_Jan_05_1023,GoNoGo,2020.1.3,60.00373223087607,
IN DIESEM BLOCK KÖNNEN SIE EINFACH ENTSPANNT AN DIE AUFGABE HERANGEHEN. SIE SOLLEN SICH NICHT VERAUSGABEN.,100,Go,go,4,1,0,0,0,0,,,,,33,1,100,0,,,,,,,,,,,,1,306.9113104999997,None,306.9113104999997,None,,,,101,111,306.03769230000034,306.54826680000406,306.5312363000121,306.63146220000635,4,1,0.3499067000084324,306.5312363000121,None,306.63146220000635,None,306.5312363000121,None,False,None,None,None,None,None,None,None,None,,,,,,,,,,,,,,,,,,,,,,,,,,,,IA6LI11,1,Serial_COM3,C:\Users\EEG\Desktop\FINALCoScienceTasksLogfiles\,2022_Jan_05_1023,GoNoGo,2020.1.3,60.00373223087607,
IN DIESEM BLOCK KÖNNEN SIE EINFACH ENTSPANNT AN DIE AUFGABE HERANGEHEN. SIE SOLLEN SICH NICHT VERAUSGABEN.,100,NoGo,nogo,None,2,0,0,0,0,,,,,33,2,101,2,,,,,,,,,,,,0.9,309.10395950000384,None,309.10395950000384,None,,,,102,0,307.9226567000005,308.43500389999826,308.39953300000343,308.49954080001044,None,1,,308.39953300000343,None,308.49954080001044,None,308.39953300000343,None,False,None,None,None,None,None,None,None,None,,,,,,,,,,,,,,,,,,,,,,,,,,,,IA6LI11,1,Serial_COM3,C:\Users\EEG\Desktop\FINALCoScienceTasksLogfiles\,2022_Jan_05_1023,GoNoGo,2020.1.3,60.00373223087607,
IN DIESEM BLOCK KÖNNEN SIE EINFACH ENTSPANNT AN DIE AUFGABE HERANGEHEN. SIE SOLLEN SICH NICHT VERAUSGABEN.,100,NoGo,nogo,None,2,0,0,0,0,,,,,34,0,102,2,,,,,,,,,,,,0.9,311.2298441000021,None,311.2298441000021,None,,,,102,0,310.0245808000036,310.53488940000534,310.51788680000755,310.61813390000316,None,1,,310.51788680000755,None,310.61813390000316,None,310.51788680000755,None,False,None,None,None,None,None,None,None,None,,,,,,,,,,,,,,,,,,,,,,,,,,,,IA6LI11,1,Serial_COM3,C:\Users\EEG\Desktop\FINALCoScienceTasksLogfiles\,2022_Jan_05_1023,GoNoGo,2020.1.3,60.00373223087607,
IN DIESEM BLOCK KÖNNEN SIE EINFACH ENTSPANNT AN DIE AUFGABE HERANGEHEN. SIE SOLLEN SICH NICHT VERAUSGABEN.,100,Go,go,4,1,0,0,0,0,,,,,34,1,103,1,,,,,,,,,,,,1,312.9668124000018,None,312.9668124000018,None,,,,101,111,312.1441588000016,312.65318500000285,312.6363272000017,312.7364632000099,4,1,0.2967790000111563,312.6363272000017,None,312.7364632000099,None,312.6363272000017,None,False,None,None,None,None,None,None,None,None,,,,,,,,,,,,,,,,,,,,,,,,,,,,IA6LI11,1,Serial_COM3,C:\Users\EEG\Desktop\FINALCoScienceTasksLogfiles\,2022_Jan_05_1023,GoNoGo,2020.1.3,60.00373223087607,
IN DIESEM BLOCK KÖNNEN SIE EINFACH ENTSPANNT AN DIE AUFGABE HERANGEHEN. SIE SOLLEN SICH NICHT VERAUSGABEN.,100,Go,go,4,1,0,0,0,0,,,,,34,2,104,1,,,,,,,,,,,,1,314.85138630001165,None,314.85138630001165,None,,,,101,111,313.9726182000013,314.48813150000933,314.4711103000009,314.57105850000517,4,1,0.3518605999997817,314.4711103000009,None,314.57105850000517,None,314.4711103000009,None,False,None,None,None,None,None,None,None,None,,,,,,,,,,,,,,,,,,,,,,,,,,,,IA6LI11,1,Serial_COM3,C:\Users\EEG\Desktop\FINALCoScienceTasksLogfiles\,2022_Jan_05_1023,GoNoGo,2020.1.3,60.00373223087607,
IN DIESEM BLOCK KÖNNEN SIE EINFACH ENTSPANNT AN DIE AUFGABE HERANGEHEN. SIE SOLLEN SICH NICHT VERAUSGABEN.,100,Go,go,4,1,0,0,0,0,,,,,35,0,105,1,,,,,,,,,,,,1,316.67779300000984,None,316.67779300000984,None,,,,101,111,315.8624451000069,316.37302670000645,316.35602410000865,316.45635950000724,4,1,0.3009196999919368,316.35602410000865,None,316.45635950000724,None,316.35602410000865,None,False,None,None,None,None,None,None,None,None,,,,,,,,,,,,,,,,,,,,,,,,,,,,IA6LI11,1,Serial_COM3,C:\Users\EEG\Desktop\FINALCoScienceTasksLogfiles\,2022_Jan_05_1023,GoNoGo,2020.1.3,60.00373223087607,
IN DIESEM BLOCK KÖNNEN SIE EINFACH ENTSPANNT AN DIE AUFGABE HERANGEHEN. SIE SOLLEN SICH NICHT VERAUSGABEN.,100,Go,go,4,1,0,0,0,0,,,,,35,1,106,0,,,,,,,,,,,,1,318.5386959000025,None,318.5386959000025,None,,,,101,111,317.6973197000043,318.20785500000056,318.1908870000043,318.291017200012,4,1,0.3133603000023868,318.1908870000043,None,318.291017200012,None,318.1908870000043,None,False,None,None,None,None,None,None,None,None,,,,,,,,,,,,,,,,,,,,,,,,,,,,IA6LI11,1,Serial_COM3,C:\Users\EEG\Desktop\FINALCoScienceTasksLogfiles\,2022_Jan_05_1023,GoNoGo,2020.1.3,60.00373223087607,
IN DIESEM BLOCK KÖNNEN SIE EINFACH ENTSPANNT AN DIE AUFGABE HERANGEHEN. SIE SOLLEN SICH NICHT VERAUSGABEN.,100,NoGo,nogo,None,2,0,0,0,0,,,,,35,2,107,2,,,,,,,,,,,,0.9,320.74711789999856,None,320.74711789999856,None,,,,102,0,319.55187890000525,320.0595837000001,320.0424776,320.14250270000775,None,1,,320.0424776,None,320.14250270000775,None,320.0424776,None,False,None,None,None,None,None,None,None,None,,,,,,,,,,,,,,,,,,,,,,,,,,,,IA6LI11,1,Serial_COM3,C:\Users\EEG\Desktop\FINALCoScienceTasksLogfiles\,2022_Jan_05_1023,GoNoGo,2020.1.3,60.00373223087607,
IN DIESEM BLOCK KÖNNEN SIE EINFACH ENTSPANNT AN DIE AUFGABE HERANGEHEN. SIE SOLLEN SICH NICHT VERAUSGABEN.,100,NoGo,nogo,None,2,0,0,0,0,,,,,36,0,108,2,,,,,,,,,,,,0.9,322.8634873000119,None,322.8634873000119,None,,,,102,0,321.6676598000049,322.1779011000035,322.1608630000119,322.2611762000015,None,1,,322.1608630000119,None,322.2611762000015,None,322.1608630000119,None,False,None,None,None,None,None,None,None,None,,,,,,,,,,,,,,,,,,,,,,,,,,,,IA6LI11,1,Serial_COM3,C:\Users\EEG\Desktop\FINALCoScienceTasksLogfiles\,2022_Jan_05_1023,GoNoGo,2020.1.3,60.00373223087607,
IN DIESEM BLOCK KÖNNEN SIE EINFACH ENTSPANNT AN DIE AUFGABE HERANGEHEN. SIE SOLLEN SICH NICHT VERAUSGABEN.,100,Go,go,4,1,0,0,0,0,,,,,36,1,109,0,,,,,,,,,,,,1,324.67667710001115,None,324.67667710001115,None,,,,101,111,323.7880493999983,324.29633890000696,324.2793364000099,324.37952320001204,4,1,0.3573820000019623,324.2793364000099,None,324.37952320001204,None,324.2793364000099,None,False,None,None,None,None,None,None,None,None,,,,,,,,,,,,,,,,,,,,,,,,,,,,IA6LI11,1,Serial_COM3,C:\Users\EEG\Desktop\FINALCoScienceTasksLogfiles\,2022_Jan_05_1023,GoNoGo,2020.1.3,60.00373223087607,
IN DIESEM BLOCK KÖNNEN SIE EINFACH ENTSPANNT AN DIE AUFGABE HERANGEHEN. SIE SOLLEN SICH NICHT VERAUSGABEN.,100,Go,go,4,1,0,0,0,0,,,,,36,2,110,1,,,,,,,,,,,,1,326.5783422000095,None,326.5783422000095,None,,,,101,111,325.68271310000273,326.1978911000042,326.1808788000053,326.2811243000033,4,1,0.3519819999928586,326.1808788000053,None,326.2811243000033,None,326.1808788000053,None,False,None,None,None,None,None,None,None,None,,,,,,,,,,,,,,,,,,,,,,,,,,,,IA6LI11,1,Serial_COM3,C:\Users\EEG\Desktop\FINALCoScienceTasksLogfiles\,2022_Jan_05_1023,GoNoGo,2020.1.3,60.00373223087607,
IN DIESEM BLOCK KÖNNEN SIE EINFACH ENTSPANNT AN DIE AUFGABE HERANGEHEN. SIE SOLLEN SICH NICHT VERAUSGABEN.,100,Go,go,4,1,0,0,0,0,,,,,37,0,111,0,,,,,,,,,,,,1,328.4131468000123,None,328.4131468000123,None,,,,101,111,327.5841508000012,328.0993925000075,328.0826259000023,328.18271520000417,4,1,0.2994535000034375,328.0826259000023,None,328.18271520000417,None,328.0826259000023,None,False,None,None,None,None,None,None,None,None,,,,,,,,,,,,,,,,,,,,,,,,,,,,IA6LI11,1,Serial_COM3,C:\Users\EEG\Desktop\FINALCoScienceTasksLogfiles\,2022_Jan_05_1023,GoNoGo,2020.1.3,60.00373223087607,
IN DIESEM BLOCK KÖNNEN SIE EINFACH ENTSPANNT AN DIE AUFGABE HERANGEHEN. SIE SOLLEN SICH NICHT VERAUSGABEN.,100,Go,go,4,1,0,0,0,0,,,,,37,1,112,1,,,,,,,,,,,,1,330.25537680000707,None,330.25537680000707,None,,,,101,111,329.42352180001035,329.9342590000015,329.9173434000113,330.0174293000018,4,1,0.30662190000293776,329.9173434000113,None,330.0174293000018,None,329.9173434000113,None,False,None,None,None,None,None,None,None,None,,,,,,,,,,,,,,,,,,,,,,,,,,,,IA6LI11,1,Serial_COM3,C:\Users\EEG\Desktop\FINALCoScienceTasksLogfiles\,2022_Jan_05_1023,GoNoGo,2020.1.3,60.00373223087607,
IN DIESEM BLOCK KÖNNEN SIE EINFACH ENTSPANNT AN DIE AUFGABE HERANGEHEN. SIE SOLLEN SICH NICHT VERAUSGABEN.,100,NoGo,nogo,None,2,0,0,0,0,,,,,37,2,113,2,,,,,,,,,,,,0.9,332.4734635000059,None,332.4734635000059,None,,,,102,0,331.2767629000009,331.78589060000377,331.7689536000107,331.86897450000106,None,1,,331.7689536000107,None,331.86897450000106,None,331.7689536000107,None,False,None,None,None,None,None,None,None,None,,,,,,,,,,,,,,,,,,,,,,,,,,,,IA6LI11,1,Serial_COM3,C:\Users\EEG\Desktop\FINALCoScienceTasksLogfiles\,2022_Jan_05_1023,GoNoGo,2020.1.3,60.00373223087607,
IN DIESEM BLOCK KÖNNEN SIE EINFACH ENTSPANNT AN DIE AUFGABE HERANGEHEN. SIE SOLLEN SICH NICHT VERAUSGABEN.,100,Go,go,4,1,0,0,0,0,,,,,38,0,114,1,,,,,,,,,,,,1,334.36146280000685,None,334.36146280000685,None,,,,101,111,333.39702170000237,333.9042698000121,333.88745010001,333.9875172000029,4,1,0.440371699995012,333.88745010001,None,333.9875172000029,None,333.88745010001,None,False,None,None,None,None,None,None,None,None,,,,,,,,,,,,,,,,,,,,,,,,,,,,IA6LI11,1,Serial_COM3,C:\Users\EEG\Desktop\FINALCoScienceTasksLogfiles\,2022_Jan_05_1023,GoNoGo,2020.1.3,60.00373223087607,
IN DIESEM BLOCK KÖNNEN SIE EINFACH ENTSPANNT AN DIE AUFGABE HERANGEHEN. SIE SOLLEN SICH NICHT VERAUSGABEN.,100,NoGo,nogo,None,2,0,0,0,0,,,,,38,1,115,2,,,,,,,,,,,,0.9,336.57659010001225,None,336.57659010001225,None,,,,102,0,335.3798061000125,335.88922310000635,335.87241450000147,335.9724920000008,None,1,,335.87241450000147,None,335.9724920000008,None,335.87241450000147,None,False,None,None,None,None,None,None,None,None,,,,,,,,,,,,,,,,,,,,,,,,,,,,IA6LI11,1,Serial_COM3,C:\Users\EEG\Desktop\FINALCoScienceTasksLogfiles\,2022_Jan_05_1023,GoNoGo,2020.1.3,60.00373223087607,
IN DIESEM BLOCK KÖNNEN SIE EINFACH ENTSPANNT AN DIE AUFGABE HERANGEHEN. SIE SOLLEN SICH NICHT VERAUSGABEN.,100,NoGo,nogo,None,2,0,0,0,0,,,,,38,2,116,2,,,,,,,,,,,,0.9,338.7018800000078,None,338.7018800000078,None,,,,102,0,337.50280460000795,338.0077842000028,337.99073010000575,338.09092560000136,None,1,,337.99073010000575,None,338.07396550000703,338.67461020000337,337.99073010000575,None,False,None,None,None,None,None,None,None,None,,,,,,,,,,,,,,,,,,,,,,,,,,,,IA6LI11,1,Serial_COM3,C:\Users\EEG\Desktop\FINALCoScienceTasksLogfiles\,2022_Jan_05_1023,GoNoGo,2020.1.3,60.00373223087607,
IN DIESEM BLOCK KÖNNEN SIE EINFACH ENTSPANNT AN DIE AUFGABE HERANGEHEN. SIE SOLLEN SICH NICHT VERAUSGABEN.,100,NoGo,nogo,None,2,0,0,0,0,,,,,39,0,117,2,,,,,,,,,,,,0.9,340.82023850000405,None,340.82023850000405,None,,,,102,0,339.6149536000012,340.1260593000043,340.1090727000119,340.2092997,None,1,,340.1090727000119,None,340.2092997,None,340.1090727000119,None,False,None,None,None,None,None,None,None,None,,,,,,,,,,,,,,,,,,,,,,,,,,,,IA6LI11,1,Serial_COM3,C:\Users\EEG\Desktop\FINALCoScienceTasksLogfiles\,2022_Jan_05_1023,GoNoGo,2020.1.3,60.00373223087607,
IN DIESEM BLOCK KÖNNEN SIE EINFACH ENTSPANNT AN DIE AUFGABE HERANGEHEN. SIE SOLLEN SICH NICHT VERAUSGABEN.,100,Go,go,4,1,0,0,0,0,,,,,39,1,118,1,,,,,,,,,,,,1,342.63617050000175,None,342.63617050000175,None,,,,101,111,341.7373416000046,342.24453480000375,342.2275615000108,342.3277872000035,4,1,0.37523679999867454,342.2275615000108,None,342.3277872000035,None,342.2275615000108,None,False,None,None,None,None,None,None,None,None,,,,,,,,,,,,,,,,,,,,,,,,,,,,IA6LI11,1,Serial_COM3,C:\Users\EEG\Desktop\FINALCoScienceTasksLogfiles\,2022_Jan_05_1023,GoNoGo,2020.1.3,60.00373223087607,
IN DIESEM BLOCK KÖNNEN SIE EINFACH ENTSPANNT AN DIE AUFGABE HERANGEHEN. SIE SOLLEN SICH NICHT VERAUSGABEN.,100,Go,go,4,1,0,0,0,0,,,,,39,2,119,1,,,,,,,,,,,,1,344.5376701000059,None,344.5376701000059,None,,,,101,111,343.65205820000847,344.1628569000022,344.14593740001146,344.2459008000005,4,1,0.3652490999957081,344.14593740001146,None,344.2459008000005,None,344.14593740001146,None,False,None,None,None,None,None,None,None,None,,,,,,,,,,,,,,,,,,,,,,,,,,,,IA6LI11,1,Serial_COM3,C:\Users\EEG\Desktop\FINALCoScienceTasksLogfiles\,2022_Jan_05_1023,GoNoGo,2020.1.3,60.00373223087607,
IN DIESEM BLOCK KÖNNEN SIE EINFACH ENTSPANNT AN DIE AUFGABE HERANGEHEN. SIE SOLLEN SICH NICHT VERAUSGABEN.,100,Go,go,4,1,0,0,0,0,,,,,40,0,120,1,,,,,,,,,,,,1,346.3762136000005,None,346.3762136000005,None,,,,101,111,345.5531849000108,346.0644074000011,346.0475202000089,346.1476408000017,4,1,0.2993824000004679,346.0475202000089,None,346.1476408000017,None,346.0475202000089,None,False,None,None,None,None,None,None,None,None,,,,,,,,,,,,,,,,,,,,,,,,,,,,IA6LI11,1,Serial_COM3,C:\Users\EEG\Desktop\FINALCoScienceTasksLogfiles\,2022_Jan_05_1023,GoNoGo,2020.1.3,60.00373223087607,
IN DIESEM BLOCK KÖNNEN SIE EINFACH ENTSPANNT AN DIE AUFGABE HERANGEHEN. SIE SOLLEN SICH NICHT VERAUSGABEN.,100,Go,go,4,1,0,0,0,0,,,,,40,1,121,1,,,,,,,,,,,,1,348.18158660001063,None,348.18158660001063,None,,,,101,111,347.38863500001025,347.8993215000082,347.88227860000916,347.98248070001137,4,1,0.2557449000014458,347.88227860000916,None,347.98248070001137,None,347.88227860000916,None,False,None,None,None,None,None,None,None,None,,,,,,,,,,,,,,,,,,,,,,,,,,,,IA6LI11,1,Serial_COM3,C:\Users\EEG\Desktop\FINALCoScienceTasksLogfiles\,2022_Jan_05_1023,GoNoGo,2020.1.3,60.00373223087607,
IN DIESEM BLOCK KÖNNEN SIE EINFACH ENTSPANNT AN DIE AUFGABE HERANGEHEN. SIE SOLLEN SICH NICHT VERAUSGABEN.,100,Go,go,4,1,0,0,0,0,,,,,40,2,122,0,,,,,,,,,,,,1,350.01395750000665,None,350.01395750000665,None,,,,101,111,349.18937000000733,349.70073609999963,349.683743600006,349.7838073000021,4,1,0.2932605000096373,349.683743600006,None,349.7838073000021,None,349.683743600006,None,False,None,None,None,None,None,None,None,None,,,,,,,,,,,,,,,,,,,,,,,,,,,,IA6LI11,1,Serial_COM3,C:\Users\EEG\Desktop\FINALCoScienceTasksLogfiles\,2022_Jan_05_1023,GoNoGo,2020.1.3,60.00373223087607,
IN DIESEM BLOCK KÖNNEN SIE EINFACH ENTSPANNT AN DIE AUFGABE HERANGEHEN. SIE SOLLEN SICH NICHT VERAUSGABEN.,100,Go,go,4,1,0,0,0,0,,,,,41,0,123,1,,,,,,,,,,,,1,351.89921850000974,None,351.89921850000974,None,,,,101,111,351.0246083000093,351.53556430000754,351.5185845000087,351.6187415000022,4,1,0.3511753999919165,351.5185845000087,None,351.6187415000022,None,351.5185845000087,None,False,None,None,None,None,None,None,None,None,,,,,,,,,,,,,,,,,,,,,,,,,,,,IA6LI11,1,Serial_COM3,C:\Users\EEG\Desktop\FINALCoScienceTasksLogfiles\,2022_Jan_05_1023,GoNoGo,2020.1.3,60.00373223087607,
IN DIESEM BLOCK KÖNNEN SIE EINFACH ENTSPANNT AN DIE AUFGABE HERANGEHEN. SIE SOLLEN SICH NICHT VERAUSGABEN.,100,Go,go,4,1,0,0,0,0,,,,,41,1,124,1,,,,,,,,,,,,1,353.8174539000029,None,353.8174539000029,None,,,,101,111,352.90989770001033,353.4204679000104,353.40358270000434,353.5035651000071,4,1,0.3742247000045609,353.40358270000434,None,353.5035651000071,None,353.40358270000434,None,False,None,None,None,None,None,None,None,None,,,,,,,,,,,,,,,,,,,,,,,,,,,,IA6LI11,1,Serial_COM3,C:\Users\EEG\Desktop\FINALCoScienceTasksLogfiles\,2022_Jan_05_1023,GoNoGo,2020.1.3,60.00373223087607,
IN DIESEM BLOCK KÖNNEN SIE EINFACH ENTSPANNT AN DIE AUFGABE HERANGEHEN. SIE SOLLEN SICH NICHT VERAUSGABEN.,100,Go,go,4,1,0,0,0,0,,,,,41,2,125,1,,,,,,,,,,,,1,355.69389510000474,None,355.69389510000474,None,,,,101,111,354.82822190001025,355.33883170000627,355.32192300001043,355.4217112000042,4,1,0.3351385999994818,355.32192300001043,None,355.4217112000042,None,355.32192300001043,None,False,None,None,None,None,None,356.74380690000544,None,space,22.23201059999701,,,,,,,,,,,,,,,,,,,,,,,,,,,IA6LI11,1,Serial_COM3,C:\Users\EEG\Desktop\FINALCoScienceTasksLogfiles\,2022_Jan_05_1023,GoNoGo,2020.1.3,60.00373223087607,
IN DIESEM BLOCK KÖNNEN SIE EINFACH ENTSPANNT AN DIE AUFGABE HERANGEHEN. SIE SOLLEN SICH NICHT VERAUSGABEN.,100,NoGo,nogo,None,2,0,0,0,0,,,,,42,0,126,2,,,,,,,,,,,,0.9,382.1706659000047,None,382.1706659000047,None,,,,102,0,380.97095240000635,381.47710570000345,381.4601055000094,381.5602562999993,None,1,,381.4601055000094,None,381.5602562999993,None,381.4601055000094,None,False,None,None,None,None,None,None,None,None,,,,,,,,,,,,,,,,,,,,,,,,,,,,IA6LI11,1,Serial_COM3,C:\Users\EEG\Desktop\FINALCoScienceTasksLogfiles\,2022_Jan_05_1023,GoNoGo,2020.1.3,60.00373223087607,
IN DIESEM BLOCK KÖNNEN SIE EINFACH ENTSPANNT AN DIE AUFGABE HERANGEHEN. SIE SOLLEN SICH NICHT VERAUSGABEN.,100,Go,go,4,1,0,0,0,0,,,,,42,1,127,1,,,,,,,,,,,,1,384.0040488000086,None,384.0040488000086,None,,,,101,111,383.0956636000046,383.5954703000025,383.5954703000025,383.695389600005,4,1,0.3853157999983523,383.5954703000025,None,383.695389600005,None,383.5954703000025,None,False,None,None,None,None,None,None,None,None,,,,,,,,,,,,,,,,,,,,,,,,,,,,IA6LI11,1,Serial_COM3,C:\Users\EEG\Desktop\FINALCoScienceTasksLogfiles\,2022_Jan_05_1023,GoNoGo,2020.1.3,60.00373223087607,
IN DIESEM BLOCK KÖNNEN SIE EINFACH ENTSPANNT AN DIE AUFGABE HERANGEHEN. SIE SOLLEN SICH NICHT VERAUSGABEN.,100,NoGo,nogo,None,2,0,0,0,0,,,,,42,2,128,2,,,,,,,,,,,,0.9,386.21768610000436,None,386.21768610000436,None,,,,102,0,385.0236264000123,385.53057510001236,385.51364670001203,385.6138210000063,None,1,,385.51364670001203,None,385.6138210000063,None,385.51364670001203,None,False,None,None,None,None,None,None,None,None,,,,,,,,,,,,,,,,,,,,,,,,,,,,IA6LI11,1,Serial_COM3,C:\Users\EEG\Desktop\FINALCoScienceTasksLogfiles\,2022_Jan_05_1023,GoNoGo,2020.1.3,60.00373223087607,
IN DIESEM BLOCK KÖNNEN SIE EINFACH ENTSPANNT AN DIE AUFGABE HERANGEHEN. SIE SOLLEN SICH NICHT VERAUSGABEN.,100,Go,go,4,1,0,0,0,0,,,,,43,0,129,0,,,,,,,,,,,,1,387.9953521999996,None,387.9953521999996,None,,,,101,111,387.1429119000095,387.64897400001064,387.6321404000046,387.7320050000126,4,1,0.3292828000121517,387.6321404000046,None,387.7320050000126,None,387.6321404000046,None,False,None,None,None,None,None,None,None,None,,,,,,,,,,,,,,,,,,,,,,,,,,,,IA6LI11,1,Serial_COM3,C:\Users\EEG\Desktop\FINALCoScienceTasksLogfiles\,2022_Jan_05_1023,GoNoGo,2020.1.3,60.00373223087607,
IN DIESEM BLOCK KÖNNEN SIE EINFACH ENTSPANNT AN DIE AUFGABE HERANGEHEN. SIE SOLLEN SICH NICHT VERAUSGABEN.,100,Go,go,4,1,0,0,0,0,,,,,43,1,130,0,,,,,,,,,,,,1,390.01433740000357,None,390.01433740000357,None,,,,101,111,389.00206670000625,389.51718890000484,389.50021579999884,389.60046840000723,4,1,0.4735904999979539,389.50021579999884,None,389.60046840000723,None,389.50021579999884,None,False,None,None,None,None,None,None,None,None,,,,,,,,,,,,,,,,,,,,,,,,,,,,IA6LI11,1,Serial_COM3,C:\Users\EEG\Desktop\FINALCoScienceTasksLogfiles\,2022_Jan_05_1023,GoNoGo,2020.1.3,60.00373223087607,
IN DIESEM BLOCK KÖNNEN SIE EINFACH ENTSPANNT AN DIE AUFGABE HERANGEHEN. SIE SOLLEN SICH NICHT VERAUSGABEN.,100,NoGo,nogo,None,2,0,0,0,0,,,,,43,2,131,2,,,,,,,,,,,,0.9,392.2299634000083,None,392.2299634000083,None,,,,102,0,391.02795290001086,391.5354498000088,391.5185638000112,391.61880020001263,None,1,,391.5185638000112,None,391.61880020001263,None,391.5185638000112,None,False,None,None,None,None,None,None,None,None,,,,,,,,,,,,,,,,,,,,,,,,,,,,IA6LI11,1,Serial_COM3,C:\Users\EEG\Desktop\FINALCoScienceTasksLogfiles\,2022_Jan_05_1023,GoNoGo,2020.1.3,60.00373223087607,
IN DIESEM BLOCK KÖNNEN SIE EINFACH ENTSPANNT AN DIE AUFGABE HERANGEHEN. SIE SOLLEN SICH NICHT VERAUSGABEN.,100,NoGo,nogo,None,2,0,0,0,0,,,,,44,0,132,2,,,,,,,,,,,,0.9,394.3399774999998,None,394.3399774999998,None,,,,102,0,393.1417657999991,393.65389790000336,393.63697500000126,393.73699340000167,None,1,,393.63697500000126,None,393.73699340000167,None,393.63697500000126,None,False,None,None,None,None,None,None,None,None,,,,,,,,,,,,,,,,,,,,,,,,,,,,IA6LI11,1,Serial_COM3,C:\Users\EEG\Desktop\FINALCoScienceTasksLogfiles\,2022_Jan_05_1023,GoNoGo,2020.1.3,60.00373223087607,
IN DIESEM BLOCK KÖNNEN SIE EINFACH ENTSPANNT AN DIE AUFGABE HERANGEHEN. SIE SOLLEN SICH NICHT VERAUSGABEN.,100,Go,go,4,1,0,0,0,0,,,,,44,1,133,0,,,,,,,,,,,,1,396.13496670000313,None,396.13496670000313,None,,,,101,111,395.26559980001184,395.77185160000226,395.7550864000077,395.8558778000006,4,1,0.34175049999612384,395.7550864000077,None,395.8558778000006,None,395.7550864000077,None,False,None,None,None,None,None,None,None,None,,,,,,,,,,,,,,,,,,,,,,,,,,,,IA6LI11,1,Serial_COM3,C:\Users\EEG\Desktop\FINALCoScienceTasksLogfiles\,2022_Jan_05_1023,GoNoGo,2020.1.3,60.00373223087607,
IN DIESEM BLOCK KÖNNEN SIE EINFACH ENTSPANNT AN DIE AUFGABE HERANGEHEN. SIE SOLLEN SICH NICHT VERAUSGABEN.,100,NoGo,nogo,None,2,0,0,0,0,,,,,44,2,134,2,,,,,,,,,,,,0.9,398.3446582000033,None,398.3446582000033,None,,,,102,0,397.1505157000065,397.6571910000057,397.64023350000207,397.7406197000091,None,1,,397.64023350000207,None,397.7406197000091,None,397.64023350000207,None,False,None,None,None,None,None,None,None,None,,,,,,,,,,,,,,,,,,,,,,,,,,,,IA6LI11,1,Serial_COM3,C:\Users\EEG\Desktop\FINALCoScienceTasksLogfiles\,2022_Jan_05_1023,GoNoGo,2020.1.3,60.00373223087607,
IN DIESEM BLOCK KÖNNEN SIE EINFACH ENTSPANNT AN DIE AUFGABE HERANGEHEN. SIE SOLLEN SICH NICHT VERAUSGABEN.,100,NoGo,nogo,None,2,0,0,0,0,,,,,45,0,135,2,,,,,,,,,,,,0.9,400.46175090000906,None,400.46175090000906,None,,,,102,0,399.26486500000465,399.7757608000102,399.75870760000544,399.8589931000024,None,1,,399.75870760000544,None,399.8589931000024,None,399.75870760000544,None,False,None,None,None,None,None,None,None,None,,,,,,,,,,,,,,,,,,,,,,,,,,,,IA6LI11,1,Serial_COM3,C:\Users\EEG\Desktop\FINALCoScienceTasksLogfiles\,2022_Jan_05_1023,GoNoGo,2020.1.3,60.00373223087607,
IN DIESEM BLOCK KÖNNEN SIE EINFACH ENTSPANNT AN DIE AUFGABE HERANGEHEN. SIE SOLLEN SICH NICHT VERAUSGABEN.,100,Go,go,4,1,0,0,0,0,,,,,45,1,136,0,,,,,,,,,,,,1,402.252539100009,None,402.252539100009,None,,,,101,111,401.3866214000009,401.89423160000297,401.8773230000079,401.97740010000416,4,1,0.3498618000012357,401.8773230000079,None,401.97740010000416,None,401.8773230000079,None,False,None,None,None,None,None,None,None,None,,,,,,,,,,,,,,,,,,,,,,,,,,,,IA6LI11,1,Serial_COM3,C:\Users\EEG\Desktop\FINALCoScienceTasksLogfiles\,2022_Jan_05_1023,GoNoGo,2020.1.3,60.00373223087607,
IN DIESEM BLOCK KÖNNEN SIE EINFACH ENTSPANNT AN DIE AUFGABE HERANGEHEN. SIE SOLLEN SICH NICHT VERAUSGABEN.,100,Go,go,4,1,0,0,0,0,,,,,45,2,137,1,,,,,,,,,,,,1,404.1836871000123,None,404.1836871000123,None,,,,101,111,403.26836460000777,403.7792688000045,403.76219140000467,403.8623287000082,4,1,0.38762259999930393,403.76219140000467,None,403.8623287000082,None,403.76219140000467,None,False,None,None,None,None,None,None,None,None,,,,,,,,,,,,,,,,,,,,,,,,,,,,IA6LI11,1,Serial_COM3,C:\Users\EEG\Desktop\FINALCoScienceTasksLogfiles\,2022_Jan_05_1023,GoNoGo,2020.1.3,60.00373223087607,
IN DIESEM BLOCK KÖNNEN SIE EINFACH ENTSPANNT AN DIE AUFGABE HERANGEHEN. SIE SOLLEN SICH NICHT VERAUSGABEN.,100,NoGo,nogo,None,2,0,0,0,0,,,,,46,0,138,2,,,,,,,,,,,,0.9,406.4069489000103,None,406.4069489000103,None,,,,102,0,405.2042180999997,405.713960699999,405.6971163999988,405.79724160001206,None,1,,405.6971163999988,None,405.79724160001206,None,405.6971163999988,None,False,None,None,None,None,None,None,None,None,,,,,,,,,,,,,,,,,,,,,,,,,,,,IA6LI11,1,Serial_COM3,C:\Users\EEG\Desktop\FINALCoScienceTasksLogfiles\,2022_Jan_05_1023,GoNoGo,2020.1.3,60.00373223087607,
IN DIESEM BLOCK KÖNNEN SIE EINFACH ENTSPANNT AN DIE AUFGABE HERANGEHEN. SIE SOLLEN SICH NICHT VERAUSGABEN.,100,Go,go,4,1,0,0,0,0,,,,,46,1,139,1,,,,,,,,,,,,1,408.1967013000103,None,408.1967013000103,None,,,,101,111,407.32464710000204,407.83248530000856,407.8154466999986,407.91565960001026,4,1,0.34676079999189824,407.8154466999986,None,407.91565960001026,None,407.8154466999986,None,False,None,None,None,None,None,None,None,None,,,,,,,,,,,,,,,,,,,,,,,,,,,,IA6LI11,1,Serial_COM3,C:\Users\EEG\Desktop\FINALCoScienceTasksLogfiles\,2022_Jan_05_1023,GoNoGo,2020.1.3,60.00373223087607,
IN DIESEM BLOCK KÖNNEN SIE EINFACH ENTSPANNT AN DIE AUFGABE HERANGEHEN. SIE SOLLEN SICH NICHT VERAUSGABEN.,100,Go,go,4,1,0,0,0,0,,,,,46,2,140,0,,,,,,,,,,,,1,410.0661899000115,None,410.0661899000115,None,,,,101,111,409.206199200009,409.7173526000115,409.70079570000235,409.8004218999995,4,1,0.3333019999990938,409.70079570000235,None,409.8004218999995,None,409.70079570000235,None,False,None,None,None,None,None,None,None,None,,,,,,,,,,,,,,,,,,,,,,,,,,,,IA6LI11,1,Serial_COM3,C:\Users\EEG\Desktop\FINALCoScienceTasksLogfiles\,2022_Jan_05_1023,GoNoGo,2020.1.3,60.00373223087607,
IN DIESEM BLOCK KÖNNEN SIE EINFACH ENTSPANNT AN DIE AUFGABE HERANGEHEN. SIE SOLLEN SICH NICHT VERAUSGABEN.,100,Go,go,4,1,0,0,0,0,,,,,47,0,141,0,,,,,,,,,,,,1,411.91577980000875,None,411.91577980000875,None,,,,101,111,411.0745188000001,411.58550320001086,411.56855900000664,411.66876300000877,4,1,0.3145034999906784,411.56855900000664,None,411.66876300000877,None,411.56855900000664,None,False,None,None,None,None,None,None,None,None,,,,,,,,,,,,,,,,,,,,,,,,,,,,IA6LI11,1,Serial_COM3,C:\Users\EEG\Desktop\FINALCoScienceTasksLogfiles\,2022_Jan_05_1023,GoNoGo,2020.1.3,60.00373223087607,
IN DIESEM BLOCK KÖNNEN SIE EINFACH ENTSPANNT AN DIE AUFGABE HERANGEHEN. SIE SOLLEN SICH NICHT VERAUSGABEN.,100,Go,go,4,1,0,0,0,0,,,,,47,1,142,1,,,,,,,,,,,,1,413.70107590001135,None,413.70107590001135,None,,,,101,111,412.9258988000074,413.4369813000085,413.4201547999983,413.52028140000766,4,1,0.23879580000357237,413.4201547999983,None,413.52028140000766,None,413.4201547999983,None,False,None,None,None,None,None,None,None,None,,,,,,,,,,,,,,,,,,,,,,,,,,,,IA6LI11,1,Serial_COM3,C:\Users\EEG\Desktop\FINALCoScienceTasksLogfiles\,2022_Jan_05_1023,GoNoGo,2020.1.3,60.00373223087607,
IN DIESEM BLOCK KÖNNEN SIE EINFACH ENTSPANNT AN DIE AUFGABE HERANGEHEN. SIE SOLLEN SICH NICHT VERAUSGABEN.,100,Go,go,4,1,0,0,0,0,,,,,47,2,143,1,,,,,,,,,,,,1,415.56723490000877,None,415.56723490000877,None,,,,101,111,414.711593,415.22189620000427,415.2048408000119,415.3047177000117,4,1,0.32960329999332316,415.2048408000119,None,415.3047177000117,None,415.2048408000119,None,False,None,None,None,None,None,None,None,None,,,,,,,,,,,,,,,,,,,,,,,,,,,,IA6LI11,1,Serial_COM3,C:\Users\EEG\Desktop\FINALCoScienceTasksLogfiles\,2022_Jan_05_1023,GoNoGo,2020.1.3,60.00373223087607,
IN DIESEM BLOCK KÖNNEN SIE EINFACH ENTSPANNT AN DIE AUFGABE HERANGEHEN. SIE SOLLEN SICH NICHT VERAUSGABEN.,100,Go,go,4,1,0,0,0,0,,,,,48,0,144,0,,,,,,,,,,,,1,417.42849320000096,None,417.42849320000096,None,,,,101,111,416.57675220000965,417.0901809000061,417.07312510001066,417.1733921999985,4,1,0.32925360000808723,417.07312510001066,None,417.1733921999985,None,417.07312510001066,None,False,None,None,None,None,None,None,None,None,,,,,,,,,,,,,,,,,,,,,,,,,,,,IA6LI11,1,Serial_COM3,C:\Users\EEG\Desktop\FINALCoScienceTasksLogfiles\,2022_Jan_05_1023,GoNoGo,2020.1.3,60.00373223087607,
IN DIESEM BLOCK KÖNNEN SIE EINFACH ENTSPANNT AN DIE AUFGABE HERANGEHEN. SIE SOLLEN SICH NICHT VERAUSGABEN.,100,Go,go,4,1,0,0,0,0,,,,,48,1,145,1,,,,,,,,,,,,1,419.3387032000028,None,419.3387032000028,None,,,,101,111,418.4429138000123,418.95965380000416,418.92430779999995,419.02492360000906,4,1,0.37768780000624247,418.92430779999995,None,419.02492360000906,None,418.92430779999995,None,False,None,None,None,None,None,None,None,None,,,,,,,,,,,,,,,,,,,,,,,,,,,,IA6LI11,1,Serial_COM3,C:\Users\EEG\Desktop\FINALCoScienceTasksLogfiles\,2022_Jan_05_1023,GoNoGo,2020.1.3,60.00373223087607,
IN DIESEM BLOCK KÖNNEN SIE EINFACH ENTSPANNT AN DIE AUFGABE HERANGEHEN. SIE SOLLEN SICH NICHT VERAUSGABEN.,100,Go,go,4,1,0,0,0,0,,,,,48,2,146,1,,,,,,,,,,,,1,421.2896017000021,None,421.2896017000021,None,,,,101,111,420.3498088000051,420.85994980001124,420.8429271000059,420.9430146000086,4,1,0.40393249999033287,420.8429271000059,None,420.9430146000086,None,420.8429271000059,None,False,None,None,None,None,None,None,None,None,,,,,,,,,,,,,,,,,,,,,,,,,,,,IA6LI11,1,Serial_COM3,C:\Users\EEG\Desktop\FINALCoScienceTasksLogfiles\,2022_Jan_05_1023,GoNoGo,2020.1.3,60.00373223087607,
IN DIESEM BLOCK KÖNNEN SIE EINFACH ENTSPANNT AN DIE AUFGABE HERANGEHEN. SIE SOLLEN SICH NICHT VERAUSGABEN.,100,Go,go,4,1,0,0,0,0,,,,,49,0,147,1,,,,,,,,,,,,1,423.16716969999834,None,423.16716969999834,None,,,,101,111,422.3005899999989,422.8116049000091,422.7945155000052,422.8947601000109,4,1,0.33539290000044275,422.7945155000052,None,422.8947601000109,None,422.7945155000052,None,False,None,None,None,None,None,None,None,None,,,,,,,,,,,,,,,,,,,,,,,,,,,,IA6LI11,1,Serial_COM3,C:\Users\EEG\Desktop\FINALCoScienceTasksLogfiles\,2022_Jan_05_1023,GoNoGo,2020.1.3,60.00373223087607,
IN DIESEM BLOCK KÖNNEN SIE EINFACH ENTSPANNT AN DIE AUFGABE HERANGEHEN. SIE SOLLEN SICH NICHT VERAUSGABEN.,100,Go,go,4,1,0,0,0,0,,,,,49,1,148,0,,,,,,,,,,,,1,425.12411590000556,None,425.12411590000556,None,,,,101,111,424.1860488000093,424.6963792000024,424.679366100012,424.7796909000026,4,1,0.41392150000319816,424.679366100012,None,424.7796909000026,None,424.679366100012,None,False,None,None,None,None,None,None,None,None,,,,,,,,,,,,,,,,,,,,,,,,,,,,IA6LI11,1,Serial_COM3,C:\Users\EEG\Desktop\FINALCoScienceTasksLogfiles\,2022_Jan_05_1023,GoNoGo,2020.1.3,60.00373223087607,
IN DIESEM BLOCK KÖNNEN SIE EINFACH ENTSPANNT AN DIE AUFGABE HERANGEHEN. SIE SOLLEN SICH NICHT VERAUSGABEN.,100,Go,go,4,1,0,0,0,0,,,,,49,2,149,0,,,,,,,,,,,,1,426.9930396999989,None,426.9930396999989,None,,,,101,111,426.1376689000026,426.64799570001196,426.6311152000126,426.7311738999997,4,1,0.3188105000008363,426.6311152000126,None,426.7311738999997,None,426.6311152000126,None,False,None,None,None,None,None,None,None,None,,,,,,,,,,,,,,,,,,,,,,,,,,,,IA6LI11,1,Serial_COM3,C:\Users\EEG\Desktop\FINALCoScienceTasksLogfiles\,2022_Jan_05_1023,GoNoGo,2020.1.3,60.00373223087607,
IN DIESEM BLOCK KÖNNEN SIE EINFACH ENTSPANNT AN DIE AUFGABE HERANGEHEN. SIE SOLLEN SICH NICHT VERAUSGABEN.,100,Go,go,4,1,0,0,0,0,,,,,50,0,150,1,,,,,,,,,,,,1,428.911365500011,None,428.911365500011,None,,,,101,111,428.00565469999856,428.5162626000092,428.4992884000094,428.59937940000964,4,1,0.37167999999655876,428.4992884000094,None,428.59937940000964,None,428.4992884000094,None,False,None,None,None,None,None,None,None,None,,,,,,,,,,,,,,,,,,,,,,,,,,,,IA6LI11,1,Serial_COM3,C:\Users\EEG\Desktop\FINALCoScienceTasksLogfiles\,2022_Jan_05_1023,GoNoGo,2020.1.3,60.00373223087607,
IN DIESEM BLOCK KÖNNEN SIE EINFACH ENTSPANNT AN DIE AUFGABE HERANGEHEN. SIE SOLLEN SICH NICHT VERAUSGABEN.,100,Go,go,4,1,0,0,0,0,,,,,50,1,151,1,,,,,,,,,,,,1,430.8323308000108,None,430.8323308000108,None,,,,101,111,429.9235478000046,430.43454770000244,430.4174992000044,430.517663000006,4,1,0.3733977999945637,430.4174992000044,None,430.517663000006,None,430.4174992000044,None,False,None,None,None,None,None,None,None,None,,,,,,,,,,,,,,,,,,,,,,,,,,,,IA6LI11,1,Serial_COM3,C:\Users\EEG\Desktop\FINALCoScienceTasksLogfiles\,2022_Jan_05_1023,GoNoGo,2020.1.3,60.00373223087607,
IN DIESEM BLOCK KÖNNEN SIE EINFACH ENTSPANNT AN DIE AUFGABE HERANGEHEN. SIE SOLLEN SICH NICHT VERAUSGABEN.,100,Go,go,4,1,0,0,0,0,,,,,50,2,152,0,,,,,,,,,,,,1,432.76566280001134,None,432.76566280001134,None,,,,101,111,431.8374221999984,432.3546941000095,432.31910040001094,432.4194014000095,4,1,0.40386340000259224,432.31910040001094,None,432.4194014000095,None,432.31910040001094,None,False,None,None,None,None,None,None,None,None,,,,,,,,,,,,,,,,,,,,,,,,,,,,IA6LI11,1,Serial_COM3,C:\Users\EEG\Desktop\FINALCoScienceTasksLogfiles\,2022_Jan_05_1023,GoNoGo,2020.1.3,60.00373223087607,
IN DIESEM BLOCK KÖNNEN SIE EINFACH ENTSPANNT AN DIE AUFGABE HERANGEHEN. SIE SOLLEN SICH NICHT VERAUSGABEN.,100,Go,go,4,1,0,0,0,0,,,,,51,0,153,0,,,,,,,,,,,,1,434.63300680000975,None,434.63300680000975,None,,,,101,111,433.7773148000124,434.2877448000072,434.27074570000696,434.3707810000051,4,1,0.3262531999935163,434.27074570000696,None,434.3707810000051,None,434.27074570000696,None,False,None,None,None,None,None,None,None,None,,,,,,,,,,,,,,,,,,,,,,,,,,,,IA6LI11,1,Serial_COM3,C:\Users\EEG\Desktop\FINALCoScienceTasksLogfiles\,2022_Jan_05_1023,GoNoGo,2020.1.3,60.00373223087607,
IN DIESEM BLOCK KÖNNEN SIE EINFACH ENTSPANNT AN DIE AUFGABE HERANGEHEN. SIE SOLLEN SICH NICHT VERAUSGABEN.,100,Go,go,4,1,0,0,0,0,,,,,51,1,154,1,,,,,,,,,,,,1,436.4646436000039,None,436.4646436000039,None,,,,101,111,435.64575080000213,436.15598170000885,436.13886320000165,436.2391474000033,4,1,0.2972670000017388,436.13886320000165,None,436.2391474000033,None,436.13886320000165,None,False,None,None,None,None,None,None,None,None,,,,,,,,,,,,,,,,,,,,,,,,,,,,IA6LI11,1,Serial_COM3,C:\Users\EEG\Desktop\FINALCoScienceTasksLogfiles\,2022_Jan_05_1023,GoNoGo,2020.1.3,60.00373223087607,
IN DIESEM BLOCK KÖNNEN SIE EINFACH ENTSPANNT AN DIE AUFGABE HERANGEHEN. SIE SOLLEN SICH NICHT VERAUSGABEN.,100,Go,go,4,1,0,0,0,0,,,,,51,2,155,0,,,,,,,,,,,,1,438.3197968000022,None,438.3197968000022,None,,,,101,111,437.4756664000015,437.9908274000045,437.97395530001086,438.07389559999865,4,1,0.3159494999999879,437.97395530001086,None,438.07389559999865,None,437.97395530001086,None,False,None,None,None,None,None,None,None,None,,,,,,,,,,,,,,,,,,,,,,,,,,,,IA6LI11,1,Serial_COM3,C:\Users\EEG\Desktop\FINALCoScienceTasksLogfiles\,2022_Jan_05_1023,GoNoGo,2020.1.3,60.00373223087607,
IN DIESEM BLOCK KÖNNEN SIE EINFACH ENTSPANNT AN DIE AUFGABE HERANGEHEN. SIE SOLLEN SICH NICHT VERAUSGABEN.,100,Go,go,4,1,0,0,0,0,,,,,52,0,156,0,,,,,,,,,,,,1,440.22303980001016,None,440.22303980001016,None,,,,101,111,439.33158040000126,439.84237250000297,439.825405200012,439.9256552000006,4,1,0.35642789999837987,439.825405200012,None,439.9256552000006,None,439.825405200012,None,False,None,None,None,None,None,None,None,None,,,,,,,,,,,,,,,,,,,,,,,,,,,,IA6LI11,1,Serial_COM3,C:\Users\EEG\Desktop\FINALCoScienceTasksLogfiles\,2022_Jan_05_1023,GoNoGo,2020.1.3,60.00373223087607,
