"Onset","Duration","Participant","date_time","Target_Mapping","Order_Instruction","Running","Trial","Event","Type","InstructionCondition","Accuracy","RT","Post_Trial","TaskPerf"
55.2082236999995,0.5,"CH05ER25","2022_Jan_31_1041","square","speed_accuracy_first","Practice",0,"Fixation","NoGo","speed_accuracy",1,NA,NA,78.968253968254
55.6952902000003,0.1,"CH05ER25","2022_Jan_31_1041","square","speed_accuracy_first","Practice",0,"Target","NoGo","speed_accuracy",1,NA,NA,78.968253968254
55.7952948000002,1.5,"CH05ER25","2022_Jan_31_1041","square","speed_accuracy_first","Practice",0,"ITI","NoGo","speed_accuracy",1,NA,NA,78.968253968254
57.3097527999998,0.5,"CH05ER25","2022_Jan_31_1041","square","speed_accuracy_first","Practice",1,"Fixation","Go","speed_accuracy",1,0.434587900000224,"post_correct_inh",78.968253968254
57.7953124999995,0.1,"CH05ER25","2022_Jan_31_1041","square","speed_accuracy_first","Practice",1,"Target","Go","speed_accuracy",1,0.434587900000224,"post_correct_inh",78.968253968254
57.8952930999994,1.33458790000022,"CH05ER25","2022_Jan_31_1041","square","speed_accuracy_first","Practice",1,"ITI","Go","speed_accuracy",1,0.434587900000224,"post_correct_inh",78.968253968254
58.2299003999997,0,"CH05ER25","2022_Jan_31_1041","square","speed_accuracy_first","Practice",1,"Response","Go","speed_accuracy",1,0.434587900000224,"post_correct_inh",78.968253968254
59.2450349000001,0.5,"CH05ER25","2022_Jan_31_1041","square","speed_accuracy_first","Practice",2,"Fixation","Go","speed_accuracy",1,0.317096600000696,"post_correct_resp",78.968253968254
59.7286981999996,0.1,"CH05ER25","2022_Jan_31_1041","square","speed_accuracy_first","Practice",2,"Target","Go","speed_accuracy",1,0.317096600000696,"post_correct_resp",78.968253968254
59.8286369999996,1.2170966000007,"CH05ER25","2022_Jan_31_1041","square","speed_accuracy_first","Practice",2,"ITI","Go","speed_accuracy",1,0.317096600000696,"post_correct_resp",78.968253968254
60.0457948000003,0,"CH05ER25","2022_Jan_31_1041","square","speed_accuracy_first","Practice",2,"Response","Go","speed_accuracy",1,0.317096600000696,"post_correct_resp",78.968253968254
61.0616244000003,0.5,"CH05ER25","2022_Jan_31_1041","square","speed_accuracy_first","Practice",3,"Fixation","Go","speed_accuracy",1,0.332383799999661,"post_correct_resp",78.968253968254
61.5454402999994,0.1,"CH05ER25","2022_Jan_31_1041","square","speed_accuracy_first","Practice",3,"Target","Go","speed_accuracy",1,0.332383799999661,"post_correct_resp",78.968253968254
61.6452351999997,1.23238379999966,"CH05ER25","2022_Jan_31_1041","square","speed_accuracy_first","Practice",3,"ITI","Go","speed_accuracy",1,0.332383799999661,"post_correct_resp",78.968253968254
61.8778240999991,0,"CH05ER25","2022_Jan_31_1041","square","speed_accuracy_first","Practice",3,"Response","Go","speed_accuracy",1,0.332383799999661,"post_correct_resp",78.968253968254
62.8948848999999,0.5,"CH05ER25","2022_Jan_31_1041","square","speed_accuracy_first","Practice",4,"Fixation","Go","speed_accuracy",1,0.362176500000714,"post_correct_resp",78.968253968254
63.3786388999997,0.1,"CH05ER25","2022_Jan_31_1041","square","speed_accuracy_first","Practice",4,"Target","Go","speed_accuracy",1,0.362176500000714,"post_correct_resp",78.968253968254
63.4785679999995,1.26217650000071,"CH05ER25","2022_Jan_31_1041","square","speed_accuracy_first","Practice",4,"ITI","Go","speed_accuracy",1,0.362176500000714,"post_correct_resp",78.968253968254
63.7408154000004,0,"CH05ER25","2022_Jan_31_1041","square","speed_accuracy_first","Practice",4,"Response","Go","speed_accuracy",1,0.362176500000714,"post_correct_resp",78.968253968254
64.7615361999997,0.5,"CH05ER25","2022_Jan_31_1041","square","speed_accuracy_first","Practice",5,"Fixation","Go","speed_accuracy",1,0.354667300000074,"post_correct_resp",78.968253968254
65.2452366999996,0.1,"CH05ER25","2022_Jan_31_1041","square","speed_accuracy_first","Practice",5,"Target","Go","speed_accuracy",1,0.354667300000074,"post_correct_resp",78.968253968254
65.3452460999997,1.25466730000007,"CH05ER25","2022_Jan_31_1041","square","speed_accuracy_first","Practice",5,"ITI","Go","speed_accuracy",1,0.354667300000074,"post_correct_resp",78.968253968254
65.5999039999997,0,"CH05ER25","2022_Jan_31_1041","square","speed_accuracy_first","Practice",5,"Response","Go","speed_accuracy",1,0.354667300000074,"post_correct_resp",78.968253968254
66.6282799999999,0.5,"CH05ER25","2022_Jan_31_1041","square","speed_accuracy_first","Practice",6,"Fixation","Go","speed_accuracy",1,0.367121999999654,"post_correct_resp",78.968253968254
67.1119425999996,0.1,"CH05ER25","2022_Jan_31_1041","square","speed_accuracy_first","Practice",6,"Target","Go","speed_accuracy",1,0.367121999999654,"post_correct_resp",78.968253968254
67.2119760999994,1.26712199999965,"CH05ER25","2022_Jan_31_1041","square","speed_accuracy_first","Practice",6,"ITI","Go","speed_accuracy",1,0.367121999999654,"post_correct_resp",78.968253968254
67.4790645999992,0,"CH05ER25","2022_Jan_31_1041","square","speed_accuracy_first","Practice",6,"Response","Go","speed_accuracy",1,0.367121999999654,"post_correct_resp",78.968253968254
68.4942715999996,0.5,"CH05ER25","2022_Jan_31_1041","square","speed_accuracy_first","Practice",7,"Fixation","NoGo","speed_accuracy",1,NA,"post_correct_resp",78.968253968254
68.9786912,0.1,"CH05ER25","2022_Jan_31_1041","square","speed_accuracy_first","Practice",7,"Target","NoGo","speed_accuracy",1,NA,"post_correct_resp",78.968253968254
69.0786281000001,1.5,"CH05ER25","2022_Jan_31_1041","square","speed_accuracy_first","Practice",7,"ITI","NoGo","speed_accuracy",1,NA,"post_correct_resp",78.968253968254
70.577636,0.5,"CH05ER25","2022_Jan_31_1041","square","speed_accuracy_first","Practice",8,"Fixation","Go","speed_accuracy",1,0.489907200000744,"post_correct_inh",78.968253968254
71.0619006999996,0.1,"CH05ER25","2022_Jan_31_1041","square","speed_accuracy_first","Practice",8,"Target","Go","speed_accuracy",1,0.489907200000744,"post_correct_inh",78.968253968254
71.1618607,1.38990720000074,"CH05ER25","2022_Jan_31_1041","square","speed_accuracy_first","Practice",8,"ITI","Go","speed_accuracy",1,0.489907200000744,"post_correct_inh",78.968253968254
71.5518079000003,0,"CH05ER25","2022_Jan_31_1041","square","speed_accuracy_first","Practice",8,"Response","Go","speed_accuracy",1,0.489907200000744,"post_correct_inh",78.968253968254
72.5783455999999,0.5,"CH05ER25","2022_Jan_31_1041","square","speed_accuracy_first","Practice",9,"Fixation","Go","speed_accuracy",1,0.345925999999963,"post_correct_resp",78.968253968254
73.0620330000002,0.1,"CH05ER25","2022_Jan_31_1041","square","speed_accuracy_first","Practice",9,"Target","Go","speed_accuracy",1,0.345925999999963,"post_correct_resp",78.968253968254
73.1618724,1.24592599999996,"CH05ER25","2022_Jan_31_1041","square","speed_accuracy_first","Practice",9,"ITI","Go","speed_accuracy",1,0.345925999999963,"post_correct_resp",78.968253968254
73.4079590000001,0,"CH05ER25","2022_Jan_31_1041","square","speed_accuracy_first","Practice",9,"Response","Go","speed_accuracy",1,0.345925999999963,"post_correct_resp",78.968253968254
74.4272038999998,0.5,"CH05ER25","2022_Jan_31_1041","square","speed_accuracy_first","Practice",10,"Fixation","NoGo","speed_accuracy",1,NA,"post_correct_resp",78.968253968254
74.9120051999998,0.1,"CH05ER25","2022_Jan_31_1041","square","speed_accuracy_first","Practice",10,"Target","NoGo","speed_accuracy",1,NA,"post_correct_resp",78.968253968254
75.0116607,1.5,"CH05ER25","2022_Jan_31_1041","square","speed_accuracy_first","Practice",10,"ITI","NoGo","speed_accuracy",1,NA,"post_correct_resp",78.968253968254
76.5116208999998,0.5,"CH05ER25","2022_Jan_31_1041","square","speed_accuracy_first","Practice",11,"Fixation","NoGo","speed_accuracy",1,NA,"post_correct_inh",78.968253968254
76.9952991,0.1,"CH05ER25","2022_Jan_31_1041","square","speed_accuracy_first","Practice",11,"Target","NoGo","speed_accuracy",1,NA,"post_correct_inh",78.968253968254
77.0948855999995,1.5,"CH05ER25","2022_Jan_31_1041","square","speed_accuracy_first","Practice",11,"ITI","NoGo","speed_accuracy",1,NA,"post_correct_inh",78.968253968254
78.5942844000001,0.5,"CH05ER25","2022_Jan_31_1041","square","speed_accuracy_first","Practice",12,"Fixation","Go","speed_accuracy",1,0.423326699999961,"post_correct_inh",78.968253968254
79.0786301999997,0.1,"CH05ER25","2022_Jan_31_1041","square","speed_accuracy_first","Practice",12,"Target","Go","speed_accuracy",1,0.423326699999961,"post_correct_inh",78.968253968254
79.1786326000001,1.32332669999996,"CH05ER25","2022_Jan_31_1041","square","speed_accuracy_first","Practice",12,"ITI","Go","speed_accuracy",1,0.423326699999961,"post_correct_inh",78.968253968254
79.5019568999996,0,"CH05ER25","2022_Jan_31_1041","square","speed_accuracy_first","Practice",12,"Response","Go","speed_accuracy",1,0.423326699999961,"post_correct_inh",78.968253968254
80.5275979999997,0.5,"CH05ER25","2022_Jan_31_1041","square","speed_accuracy_first","Practice",13,"Fixation","NoGo","speed_accuracy",1,NA,"post_correct_resp",78.968253968254
81.0118376999999,0.1,"CH05ER25","2022_Jan_31_1041","square","speed_accuracy_first","Practice",13,"Target","NoGo","speed_accuracy",1,NA,"post_correct_resp",78.968253968254
81.1118071999999,1.5,"CH05ER25","2022_Jan_31_1041","square","speed_accuracy_first","Practice",13,"ITI","NoGo","speed_accuracy",1,NA,"post_correct_resp",78.968253968254
82.6109793999995,0.5,"CH05ER25","2022_Jan_31_1041","square","speed_accuracy_first","Practice",14,"Fixation","Go","speed_accuracy",1,0.34267010000076,"post_correct_inh",78.968253968254
83.0952381999996,0.1,"CH05ER25","2022_Jan_31_1041","square","speed_accuracy_first","Practice",14,"Target","Go","speed_accuracy",1,0.34267010000076,"post_correct_inh",78.968253968254
83.1951492999997,1.24267010000076,"CH05ER25","2022_Jan_31_1041","square","speed_accuracy_first","Practice",14,"ITI","Go","speed_accuracy",1,0.34267010000076,"post_correct_inh",78.968253968254
83.4379083000003,0,"CH05ER25","2022_Jan_31_1041","square","speed_accuracy_first","Practice",14,"Response","Go","speed_accuracy",1,0.34267010000076,"post_correct_inh",78.968253968254
94.9732944999996,0.5,"CH05ER25","2022_Jan_31_1041","square","speed_accuracy_first","MainTask",0,"Fixation","NoGo","speed_accuracy",1,NA,"post_correct_resp",78.968253968254
95.4618138999995,0.1,"CH05ER25","2022_Jan_31_1041","square","speed_accuracy_first","MainTask",0,"Target","NoGo","speed_accuracy",1,NA,"post_correct_resp",78.968253968254
95.5619748999998,1.5,"CH05ER25","2022_Jan_31_1041","square","speed_accuracy_first","MainTask",0,"ITI","NoGo","speed_accuracy",1,NA,"post_correct_resp",78.968253968254
97.0899448999999,0.5,"CH05ER25","2022_Jan_31_1041","square","speed_accuracy_first","MainTask",1,"Fixation","Go","speed_accuracy",1,0.334158099999513,"post_correct_inh",78.968253968254
97.5786327999995,0.1,"CH05ER25","2022_Jan_31_1041","square","speed_accuracy_first","MainTask",1,"Target","Go","speed_accuracy",1,0.334158099999513,"post_correct_inh",78.968253968254
97.6784142999995,1.23415809999951,"CH05ER25","2022_Jan_31_1041","square","speed_accuracy_first","MainTask",1,"ITI","Go","speed_accuracy",1,0.334158099999513,"post_correct_inh",78.968253968254
97.912790899999,0,"CH05ER25","2022_Jan_31_1041","square","speed_accuracy_first","MainTask",1,"Response","Go","speed_accuracy",1,0.334158099999513,"post_correct_inh",78.968253968254
98.9466141000003,0.5,"CH05ER25","2022_Jan_31_1041","square","speed_accuracy_first","MainTask",2,"Fixation","NoGo","speed_accuracy",1,NA,"post_correct_resp",78.968253968254
99.4452351999998,0.1,"CH05ER25","2022_Jan_31_1041","square","speed_accuracy_first","MainTask",2,"Target","NoGo","speed_accuracy",1,NA,"post_correct_resp",78.968253968254
99.5451770999998,1.5,"CH05ER25","2022_Jan_31_1041","square","speed_accuracy_first","MainTask",2,"ITI","NoGo","speed_accuracy",1,NA,"post_correct_resp",78.968253968254
101.0466218,0.5,"CH05ER25","2022_Jan_31_1041","square","speed_accuracy_first","MainTask",3,"Fixation","Go","speed_accuracy",1,0.239549099999749,"post_correct_inh",78.968253968254
101.5452592,0.1,"CH05ER25","2022_Jan_31_1041","square","speed_accuracy_first","MainTask",3,"Target","Go","speed_accuracy",1,0.239549099999749,"post_correct_inh",78.968253968254
101.6451273,1.13954909999975,"CH05ER25","2022_Jan_31_1041","square","speed_accuracy_first","MainTask",3,"ITI","Go","speed_accuracy",1,0.239549099999749,"post_correct_inh",78.968253968254
101.7848083,0,"CH05ER25","2022_Jan_31_1041","square","speed_accuracy_first","MainTask",3,"Response","Go","speed_accuracy",1,0.239549099999749,"post_correct_inh",78.968253968254
102.8429084,0.5,"CH05ER25","2022_Jan_31_1041","square","speed_accuracy_first","MainTask",4,"Fixation","Go","speed_accuracy",1,0.370145699999739,"post_correct_resp",78.968253968254
103.3286121,0.1,"CH05ER25","2022_Jan_31_1041","square","speed_accuracy_first","MainTask",4,"Target","Go","speed_accuracy",1,0.370145699999739,"post_correct_resp",78.968253968254
103.4285745,1.27014569999974,"CH05ER25","2022_Jan_31_1041","square","speed_accuracy_first","MainTask",4,"ITI","Go","speed_accuracy",1,0.370145699999739,"post_correct_resp",78.968253968254
103.6987578,0,"CH05ER25","2022_Jan_31_1041","square","speed_accuracy_first","MainTask",4,"Response","Go","speed_accuracy",1,0.370145699999739,"post_correct_resp",78.968253968254
104.7597631,0.5,"CH05ER25","2022_Jan_31_1041","square","speed_accuracy_first","MainTask",5,"Fixation","Go","speed_accuracy",1,0.261671899999783,"post_correct_resp",78.968253968254
105.245233,0.1,"CH05ER25","2022_Jan_31_1041","square","speed_accuracy_first","MainTask",5,"Target","Go","speed_accuracy",1,0.261671899999783,"post_correct_resp",78.968253968254
105.3452159,1.16167189999978,"CH05ER25","2022_Jan_31_1041","square","speed_accuracy_first","MainTask",5,"ITI","Go","speed_accuracy",1,0.261671899999783,"post_correct_resp",78.968253968254
105.506904899999,0,"CH05ER25","2022_Jan_31_1041","square","speed_accuracy_first","MainTask",5,"Response","Go","speed_accuracy",1,0.261671899999783,"post_correct_resp",78.968253968254
106.5458157,0.5,"CH05ER25","2022_Jan_31_1041","square","speed_accuracy_first","MainTask",6,"Fixation","NoGo","speed_accuracy",1,NA,"post_correct_resp",78.968253968254
107.0451437,0.1,"CH05ER25","2022_Jan_31_1041","square","speed_accuracy_first","MainTask",6,"Target","NoGo","speed_accuracy",1,NA,"post_correct_resp",78.968253968254
107.1451195,1.5,"CH05ER25","2022_Jan_31_1041","square","speed_accuracy_first","MainTask",6,"ITI","NoGo","speed_accuracy",1,NA,"post_correct_resp",78.968253968254
108.6606374,0.5,"CH05ER25","2022_Jan_31_1041","square","speed_accuracy_first","MainTask",7,"Fixation","Go","speed_accuracy",1,0.241894699999648,"post_correct_inh",78.968253968254
109.1438893,0.1,"CH05ER25","2022_Jan_31_1041","square","speed_accuracy_first","MainTask",7,"Target","Go","speed_accuracy",1,0.241894699999648,"post_correct_inh",78.968253968254
109.2438879,1.14189469999965,"CH05ER25","2022_Jan_31_1041","square","speed_accuracy_first","MainTask",7,"ITI","Go","speed_accuracy",1,0.241894699999648,"post_correct_inh",78.968253968254
109.385783999999,0,"CH05ER25","2022_Jan_31_1041","square","speed_accuracy_first","MainTask",7,"Response","Go","speed_accuracy",1,0.241894699999648,"post_correct_inh",78.968253968254
110.429218499999,0.5,"CH05ER25","2022_Jan_31_1041","square","speed_accuracy_first","MainTask",8,"Fixation","NoGo","speed_accuracy",1,NA,"post_correct_resp",78.968253968254
110.9285135,0.1,"CH05ER25","2022_Jan_31_1041","square","speed_accuracy_first","MainTask",8,"Target","NoGo","speed_accuracy",1,NA,"post_correct_resp",78.968253968254
111.0284117,1.5,"CH05ER25","2022_Jan_31_1041","square","speed_accuracy_first","MainTask",8,"ITI","NoGo","speed_accuracy",1,NA,"post_correct_resp",78.968253968254
112.5294934,0.5,"CH05ER25","2022_Jan_31_1041","square","speed_accuracy_first","MainTask",9,"Fixation","Go","speed_accuracy",1,0.233431099999507,"post_correct_inh",78.968253968254
113.0284389,0.1,"CH05ER25","2022_Jan_31_1041","square","speed_accuracy_first","MainTask",9,"Target","Go","speed_accuracy",1,0.233431099999507,"post_correct_inh",78.968253968254
113.1285998,1.13343109999951,"CH05ER25","2022_Jan_31_1041","square","speed_accuracy_first","MainTask",9,"ITI","Go","speed_accuracy",1,0.233431099999507,"post_correct_inh",78.968253968254
113.261869999999,0,"CH05ER25","2022_Jan_31_1041","square","speed_accuracy_first","MainTask",9,"Response","Go","speed_accuracy",1,0.233431099999507,"post_correct_inh",78.968253968254
114.3097595,0.5,"CH05ER25","2022_Jan_31_1041","square","speed_accuracy_first","MainTask",10,"Fixation","Go","speed_accuracy",1,0.328860799999347,"post_correct_resp",78.968253968254
114.7949153,0.1,"CH05ER25","2022_Jan_31_1041","square","speed_accuracy_first","MainTask",10,"Target","Go","speed_accuracy",1,0.328860799999347,"post_correct_resp",78.968253968254
114.8952361,1.22886079999935,"CH05ER25","2022_Jan_31_1041","square","speed_accuracy_first","MainTask",10,"ITI","Go","speed_accuracy",1,0.328860799999347,"post_correct_resp",78.968253968254
115.123776099999,0,"CH05ER25","2022_Jan_31_1041","square","speed_accuracy_first","MainTask",10,"Response","Go","speed_accuracy",1,0.328860799999347,"post_correct_resp",78.968253968254
116.1633755,0.5,"CH05ER25","2022_Jan_31_1041","square","speed_accuracy_first","MainTask",11,"Fixation","NoGo","speed_accuracy",1,NA,"post_correct_resp",78.968253968254
116.661667,0.1,"CH05ER25","2022_Jan_31_1041","square","speed_accuracy_first","MainTask",11,"Target","NoGo","speed_accuracy",1,NA,"post_correct_resp",78.968253968254
116.7617574,1.5,"CH05ER25","2022_Jan_31_1041","square","speed_accuracy_first","MainTask",11,"ITI","NoGo","speed_accuracy",1,NA,"post_correct_resp",78.968253968254
118.262498999999,0.5,"CH05ER25","2022_Jan_31_1041","square","speed_accuracy_first","MainTask",12,"Fixation","Go","speed_accuracy",1,0.250235599999542,"post_correct_inh",78.968253968254
118.7615686,0.1,"CH05ER25","2022_Jan_31_1041","square","speed_accuracy_first","MainTask",12,"Target","Go","speed_accuracy",1,0.250235599999542,"post_correct_inh",78.968253968254
118.8617967,1.15023559999954,"CH05ER25","2022_Jan_31_1041","square","speed_accuracy_first","MainTask",12,"ITI","Go","speed_accuracy",1,0.250235599999542,"post_correct_inh",78.968253968254
119.011804199999,0,"CH05ER25","2022_Jan_31_1041","square","speed_accuracy_first","MainTask",12,"Response","Go","speed_accuracy",1,0.250235599999542,"post_correct_inh",78.968253968254
120.0596467,0.5,"CH05ER25","2022_Jan_31_1041","square","speed_accuracy_first","MainTask",13,"Fixation","Go","speed_accuracy",1,0.410661599999912,"post_correct_resp",78.968253968254
120.545222,0.1,"CH05ER25","2022_Jan_31_1041","square","speed_accuracy_first","MainTask",13,"Target","Go","speed_accuracy",1,0.410661599999912,"post_correct_resp",78.968253968254
120.6452124,1.31066159999991,"CH05ER25","2022_Jan_31_1041","square","speed_accuracy_first","MainTask",13,"ITI","Go","speed_accuracy",1,0.410661599999912,"post_correct_resp",78.968253968254
120.9558836,0,"CH05ER25","2022_Jan_31_1041","square","speed_accuracy_first","MainTask",13,"Response","Go","speed_accuracy",1,0.410661599999912,"post_correct_resp",78.968253968254
122.009660199999,0.5,"CH05ER25","2022_Jan_31_1041","square","speed_accuracy_first","MainTask",14,"Fixation","Go","speed_accuracy",1,0.273480099999688,"post_correct_resp",78.968253968254
122.4953121,0.1,"CH05ER25","2022_Jan_31_1041","square","speed_accuracy_first","MainTask",14,"Target","Go","speed_accuracy",1,0.273480099999688,"post_correct_resp",78.968253968254
122.5952146,1.17348009999969,"CH05ER25","2022_Jan_31_1041","square","speed_accuracy_first","MainTask",14,"ITI","Go","speed_accuracy",1,0.273480099999688,"post_correct_resp",78.968253968254
122.7687922,0,"CH05ER25","2022_Jan_31_1041","square","speed_accuracy_first","MainTask",14,"Response","Go","speed_accuracy",1,0.273480099999688,"post_correct_resp",78.968253968254
123.8125437,0.5,"CH05ER25","2022_Jan_31_1041","square","speed_accuracy_first","MainTask",15,"Fixation","NoGo","speed_accuracy",1,NA,"post_correct_resp",78.968253968254
124.311870699999,0.1,"CH05ER25","2022_Jan_31_1041","square","speed_accuracy_first","MainTask",15,"Target","NoGo","speed_accuracy",1,NA,"post_correct_resp",78.968253968254
124.4118253,1.5,"CH05ER25","2022_Jan_31_1041","square","speed_accuracy_first","MainTask",15,"ITI","NoGo","speed_accuracy",1,NA,"post_correct_resp",78.968253968254
125.9127269,0.5,"CH05ER25","2022_Jan_31_1041","square","speed_accuracy_first","MainTask",16,"Fixation","Go","speed_accuracy",1,0.380811900000481,"post_break",78.968253968254
126.4118939,0.1,"CH05ER25","2022_Jan_31_1041","square","speed_accuracy_first","MainTask",16,"Target","Go","speed_accuracy",1,0.380811900000481,"post_break",78.968253968254
126.5117952,1.28081190000048,"CH05ER25","2022_Jan_31_1041","square","speed_accuracy_first","MainTask",16,"ITI","Go","speed_accuracy",1,0.380811900000481,"post_break",78.968253968254
126.7927058,0,"CH05ER25","2022_Jan_31_1041","square","speed_accuracy_first","MainTask",16,"Response","Go","speed_accuracy",1,0.380811900000481,"post_break",78.968253968254
127.8430183,0.5,"CH05ER25","2022_Jan_31_1041","square","speed_accuracy_first","MainTask",17,"Fixation","Go","speed_accuracy",1,0.334448900000098,"post_correct_resp",78.968253968254
128.3283278,0.1,"CH05ER25","2022_Jan_31_1041","square","speed_accuracy_first","MainTask",17,"Target","Go","speed_accuracy",1,0.334448900000098,"post_correct_resp",78.968253968254
128.427862,1.2344489000001,"CH05ER25","2022_Jan_31_1041","square","speed_accuracy_first","MainTask",17,"ITI","Go","speed_accuracy",1,0.334448900000098,"post_correct_resp",78.968253968254
128.6627767,0,"CH05ER25","2022_Jan_31_1041","square","speed_accuracy_first","MainTask",17,"Response","Go","speed_accuracy",1,0.334448900000098,"post_correct_resp",78.968253968254
129.6958735,0.5,"CH05ER25","2022_Jan_31_1041","square","speed_accuracy_first","MainTask",18,"Fixation","NoGo","speed_accuracy",1,NA,"post_correct_resp",78.968253968254
130.195078199999,0.1,"CH05ER25","2022_Jan_31_1041","square","speed_accuracy_first","MainTask",18,"Target","NoGo","speed_accuracy",1,NA,"post_correct_resp",78.968253968254
130.2951584,1.5,"CH05ER25","2022_Jan_31_1041","square","speed_accuracy_first","MainTask",18,"ITI","NoGo","speed_accuracy",1,NA,"post_correct_resp",78.968253968254
131.7965417,0.5,"CH05ER25","2022_Jan_31_1041","square","speed_accuracy_first","MainTask",19,"Fixation","Go","speed_accuracy",1,0.359944199999518,"post_correct_inh",78.968253968254
132.2950297,0.1,"CH05ER25","2022_Jan_31_1041","square","speed_accuracy_first","MainTask",19,"Target","Go","speed_accuracy",1,0.359944199999518,"post_correct_inh",78.968253968254
132.3951509,1.25994419999952,"CH05ER25","2022_Jan_31_1041","square","speed_accuracy_first","MainTask",19,"ITI","Go","speed_accuracy",1,0.359944199999518,"post_correct_inh",78.968253968254
132.654973899999,0,"CH05ER25","2022_Jan_31_1041","square","speed_accuracy_first","MainTask",19,"Response","Go","speed_accuracy",1,0.359944199999518,"post_correct_inh",78.968253968254
133.7095736,0.5,"CH05ER25","2022_Jan_31_1041","square","speed_accuracy_first","MainTask",20,"Fixation","Go","speed_accuracy",1,0.331529000000046,"post_correct_resp",78.968253968254
134.1952348,0.1,"CH05ER25","2022_Jan_31_1041","square","speed_accuracy_first","MainTask",20,"Target","Go","speed_accuracy",1,0.331529000000046,"post_correct_resp",78.968253968254
134.2952441,1.23152900000005,"CH05ER25","2022_Jan_31_1041","square","speed_accuracy_first","MainTask",20,"ITI","Go","speed_accuracy",1,0.331529000000046,"post_correct_resp",78.968253968254
134.5267638,0,"CH05ER25","2022_Jan_31_1041","square","speed_accuracy_first","MainTask",20,"Response","Go","speed_accuracy",1,0.331529000000046,"post_correct_resp",78.968253968254
135.576289,0.5,"CH05ER25","2022_Jan_31_1041","square","speed_accuracy_first","MainTask",21,"Fixation","Go","speed_accuracy",1,0.345875599999999,"post_correct_resp",78.968253968254
136.061909,0.1,"CH05ER25","2022_Jan_31_1041","square","speed_accuracy_first","MainTask",21,"Target","Go","speed_accuracy",1,0.345875599999999,"post_correct_resp",78.968253968254
136.161652199999,1.2458756,"CH05ER25","2022_Jan_31_1041","square","speed_accuracy_first","MainTask",21,"ITI","Go","speed_accuracy",1,0.345875599999999,"post_correct_resp",78.968253968254
136.4077846,0,"CH05ER25","2022_Jan_31_1041","square","speed_accuracy_first","MainTask",21,"Response","Go","speed_accuracy",1,0.345875599999999,"post_correct_resp",78.968253968254
137.4596002,0.5,"CH05ER25","2022_Jan_31_1041","square","speed_accuracy_first","MainTask",22,"Fixation","Go","speed_accuracy",1,0.376812800000152,"post_correct_resp",78.968253968254
137.9451877,0.1,"CH05ER25","2022_Jan_31_1041","square","speed_accuracy_first","MainTask",22,"Target","Go","speed_accuracy",1,0.376812800000152,"post_correct_resp",78.968253968254
138.0451661,1.27681280000015,"CH05ER25","2022_Jan_31_1041","square","speed_accuracy_first","MainTask",22,"ITI","Go","speed_accuracy",1,0.376812800000152,"post_correct_resp",78.968253968254
138.3220005,0,"CH05ER25","2022_Jan_31_1041","square","speed_accuracy_first","MainTask",22,"Response","Go","speed_accuracy",1,0.376812800000152,"post_correct_resp",78.968253968254
139.3759845,0.5,"CH05ER25","2022_Jan_31_1041","square","speed_accuracy_first","MainTask",23,"Fixation","Go","speed_accuracy",1,0.345931600000768,"post_correct_resp",78.968253968254
139.8618287,0.1,"CH05ER25","2022_Jan_31_1041","square","speed_accuracy_first","MainTask",23,"Target","Go","speed_accuracy",1,0.345931600000768,"post_correct_resp",78.968253968254
139.9619258,1.24593160000077,"CH05ER25","2022_Jan_31_1041","square","speed_accuracy_first","MainTask",23,"ITI","Go","speed_accuracy",1,0.345931600000768,"post_correct_resp",78.968253968254
140.207760300001,0,"CH05ER25","2022_Jan_31_1041","square","speed_accuracy_first","MainTask",23,"Response","Go","speed_accuracy",1,0.345931600000768,"post_correct_resp",78.968253968254
141.2467305,0.5,"CH05ER25","2022_Jan_31_1041","square","speed_accuracy_first","MainTask",24,"Fixation","NoGo","speed_accuracy",1,NA,"post_correct_resp",78.968253968254
141.7449797,0.1,"CH05ER25","2022_Jan_31_1041","square","speed_accuracy_first","MainTask",24,"Target","NoGo","speed_accuracy",1,NA,"post_correct_resp",78.968253968254
141.8451613,1.5,"CH05ER25","2022_Jan_31_1041","square","speed_accuracy_first","MainTask",24,"ITI","NoGo","speed_accuracy",1,NA,"post_correct_resp",78.968253968254
143.3465392,0.5,"CH05ER25","2022_Jan_31_1041","square","speed_accuracy_first","MainTask",25,"Fixation","Go","speed_accuracy",1,0.442638800000168,"post_correct_inh",78.968253968254
143.845182399999,0.1,"CH05ER25","2022_Jan_31_1041","square","speed_accuracy_first","MainTask",25,"Target","Go","speed_accuracy",1,0.442638800000168,"post_correct_inh",78.968253968254
143.945026599999,1.34263880000017,"CH05ER25","2022_Jan_31_1041","square","speed_accuracy_first","MainTask",25,"ITI","Go","speed_accuracy",1,0.442638800000168,"post_correct_inh",78.968253968254
144.2878212,0,"CH05ER25","2022_Jan_31_1041","square","speed_accuracy_first","MainTask",25,"Response","Go","speed_accuracy",1,0.442638800000168,"post_correct_inh",78.968253968254
145.342844199999,0.5,"CH05ER25","2022_Jan_31_1041","square","speed_accuracy_first","MainTask",26,"Fixation","Go","speed_accuracy",1,0.295236400000249,"post_correct_resp",78.968253968254
145.8285123,0.1,"CH05ER25","2022_Jan_31_1041","square","speed_accuracy_first","MainTask",26,"Target","Go","speed_accuracy",1,0.295236400000249,"post_correct_resp",78.968253968254
145.9285154,1.19523640000025,"CH05ER25","2022_Jan_31_1041","square","speed_accuracy_first","MainTask",26,"ITI","Go","speed_accuracy",1,0.295236400000249,"post_correct_resp",78.968253968254
146.1237487,0,"CH05ER25","2022_Jan_31_1041","square","speed_accuracy_first","MainTask",26,"Response","Go","speed_accuracy",1,0.295236400000249,"post_correct_resp",78.968253968254
147.1762056,0.5,"CH05ER25","2022_Jan_31_1041","square","speed_accuracy_first","MainTask",27,"Fixation","Go","speed_accuracy",1,0.285944599999311,"post_correct_resp",78.968253968254
147.6617721,0.1,"CH05ER25","2022_Jan_31_1041","square","speed_accuracy_first","MainTask",27,"Target","Go","speed_accuracy",1,0.285944599999311,"post_correct_resp",78.968253968254
147.7617281,1.18594459999931,"CH05ER25","2022_Jan_31_1041","square","speed_accuracy_first","MainTask",27,"ITI","Go","speed_accuracy",1,0.285944599999311,"post_correct_resp",78.968253968254
147.9477167,0,"CH05ER25","2022_Jan_31_1041","square","speed_accuracy_first","MainTask",27,"Response","Go","speed_accuracy",1,0.285944599999311,"post_correct_resp",78.968253968254
149.0094623,0.5,"CH05ER25","2022_Jan_31_1041","square","speed_accuracy_first","MainTask",28,"Fixation","Go","speed_accuracy",1,0.322694200000115,"post_correct_resp",78.968253968254
149.4951764,0.1,"CH05ER25","2022_Jan_31_1041","square","speed_accuracy_first","MainTask",28,"Target","Go","speed_accuracy",1,0.322694200000115,"post_correct_resp",78.968253968254
149.5947576,1.22269420000011,"CH05ER25","2022_Jan_31_1041","square","speed_accuracy_first","MainTask",28,"ITI","Go","speed_accuracy",1,0.322694200000115,"post_correct_resp",78.968253968254
149.8178706,0,"CH05ER25","2022_Jan_31_1041","square","speed_accuracy_first","MainTask",28,"Response","Go","speed_accuracy",1,0.322694200000115,"post_correct_resp",78.968253968254
150.876262199999,0.5,"CH05ER25","2022_Jan_31_1041","square","speed_accuracy_first","MainTask",29,"Fixation","Go","speed_accuracy",1,0.336962299999868,"post_correct_resp",78.968253968254
151.3617471,0.1,"CH05ER25","2022_Jan_31_1041","square","speed_accuracy_first","MainTask",29,"Target","Go","speed_accuracy",1,0.336962299999868,"post_correct_resp",78.968253968254
151.461776,1.23696229999987,"CH05ER25","2022_Jan_31_1041","square","speed_accuracy_first","MainTask",29,"ITI","Go","speed_accuracy",1,0.336962299999868,"post_correct_resp",78.968253968254
151.6987094,0,"CH05ER25","2022_Jan_31_1041","square","speed_accuracy_first","MainTask",29,"Response","Go","speed_accuracy",1,0.336962299999868,"post_correct_resp",78.968253968254
152.7459736,0.5,"CH05ER25","2022_Jan_31_1041","square","speed_accuracy_first","MainTask",30,"Fixation","NoGo","speed_accuracy",0,0.316549500000292,"post_correct_resp",78.968253968254
153.2451792,0.1,"CH05ER25","2022_Jan_31_1041","square","speed_accuracy_first","MainTask",30,"Target","NoGo","speed_accuracy",0,0.316549500000292,"post_correct_resp",78.968253968254
153.345206,1.21654950000029,"CH05ER25","2022_Jan_31_1041","square","speed_accuracy_first","MainTask",30,"ITI","NoGo","speed_accuracy",0,0.316549500000292,"post_correct_resp",78.968253968254
153.5617287,0,"CH05ER25","2022_Jan_31_1041","square","speed_accuracy_first","MainTask",30,"Response","NoGo","speed_accuracy",0,0.316549500000292,"post_correct_resp",78.968253968254
154.5957583,0.5,"CH05ER25","2022_Jan_31_1041","square","speed_accuracy_first","MainTask",31,"Fixation","Go","speed_accuracy",1,0.435418199999731,"post_error_resp",78.968253968254
155.0952888,0.1,"CH05ER25","2022_Jan_31_1041","square","speed_accuracy_first","MainTask",31,"Target","Go","speed_accuracy",1,0.435418199999731,"post_error_resp",78.968253968254
155.195272,1.33541819999973,"CH05ER25","2022_Jan_31_1041","square","speed_accuracy_first","MainTask",31,"ITI","Go","speed_accuracy",1,0.435418199999731,"post_error_resp",78.968253968254
155.530707,0,"CH05ER25","2022_Jan_31_1041","square","speed_accuracy_first","MainTask",31,"Response","Go","speed_accuracy",1,0.435418199999731,"post_error_resp",78.968253968254
156.5929722,0.5,"CH05ER25","2022_Jan_31_1041","square","speed_accuracy_first","MainTask",32,"Fixation","Go","speed_accuracy",1,0.356177499999831,"post_correct_resp",78.968253968254
157.078528,0.1,"CH05ER25","2022_Jan_31_1041","square","speed_accuracy_first","MainTask",32,"Target","Go","speed_accuracy",1,0.356177499999831,"post_correct_resp",78.968253968254
157.1784446,1.25617749999983,"CH05ER25","2022_Jan_31_1041","square","speed_accuracy_first","MainTask",32,"ITI","Go","speed_accuracy",1,0.356177499999831,"post_correct_resp",78.968253968254
157.4347055,0,"CH05ER25","2022_Jan_31_1041","square","speed_accuracy_first","MainTask",32,"Response","Go","speed_accuracy",1,0.356177499999831,"post_correct_resp",78.968253968254
158.4928534,0.5,"CH05ER25","2022_Jan_31_1041","square","speed_accuracy_first","MainTask",33,"Fixation","Go","speed_accuracy",1,0.281672600000093,"post_correct_resp",78.968253968254
158.9780463,0.1,"CH05ER25","2022_Jan_31_1041","square","speed_accuracy_first","MainTask",33,"Target","Go","speed_accuracy",1,0.281672600000093,"post_correct_resp",78.968253968254
159.078494599999,1.18167260000009,"CH05ER25","2022_Jan_31_1041","square","speed_accuracy_first","MainTask",33,"ITI","Go","speed_accuracy",1,0.281672600000093,"post_correct_resp",78.968253968254
159.2597189,0,"CH05ER25","2022_Jan_31_1041","square","speed_accuracy_first","MainTask",33,"Response","Go","speed_accuracy",1,0.281672600000093,"post_correct_resp",78.968253968254
160.295236,0.5,"CH05ER25","2022_Jan_31_1041","square","speed_accuracy_first","MainTask",34,"Fixation","NoGo","speed_accuracy",1,NA,"post_correct_resp",78.968253968254
160.7950398,0.1,"CH05ER25","2022_Jan_31_1041","square","speed_accuracy_first","MainTask",34,"Target","NoGo","speed_accuracy",1,NA,"post_correct_resp",78.968253968254
160.8951079,1.5,"CH05ER25","2022_Jan_31_1041","square","speed_accuracy_first","MainTask",34,"ITI","NoGo","speed_accuracy",1,NA,"post_correct_resp",78.968253968254
162.3957895,0.5,"CH05ER25","2022_Jan_31_1041","square","speed_accuracy_first","MainTask",35,"Fixation","Go","speed_accuracy",1,0.301925099999607,"post_correct_inh",78.968253968254
162.8947434,0.1,"CH05ER25","2022_Jan_31_1041","square","speed_accuracy_first","MainTask",35,"Target","Go","speed_accuracy",1,0.301925099999607,"post_correct_inh",78.968253968254
162.9950871,1.20192509999961,"CH05ER25","2022_Jan_31_1041","square","speed_accuracy_first","MainTask",35,"ITI","Go","speed_accuracy",1,0.301925099999607,"post_correct_inh",78.968253968254
163.1966685,0,"CH05ER25","2022_Jan_31_1041","square","speed_accuracy_first","MainTask",35,"Response","Go","speed_accuracy",1,0.301925099999607,"post_correct_inh",78.968253968254
164.2595477,0.5,"CH05ER25","2022_Jan_31_1041","square","speed_accuracy_first","MainTask",36,"Fixation","Go","speed_accuracy",1,0.346786399999473,"post_correct_resp",78.968253968254
164.7452223,0.1,"CH05ER25","2022_Jan_31_1041","square","speed_accuracy_first","MainTask",36,"Target","Go","speed_accuracy",1,0.346786399999473,"post_correct_resp",78.968253968254
164.845154,1.24678639999947,"CH05ER25","2022_Jan_31_1041","square","speed_accuracy_first","MainTask",36,"ITI","Go","speed_accuracy",1,0.346786399999473,"post_correct_resp",78.968253968254
165.092008699999,0,"CH05ER25","2022_Jan_31_1041","square","speed_accuracy_first","MainTask",36,"Response","Go","speed_accuracy",1,0.346786399999473,"post_correct_resp",78.968253968254
166.1299488,0.5,"CH05ER25","2022_Jan_31_1041","square","speed_accuracy_first","MainTask",37,"Fixation","NoGo","speed_accuracy",1,NA,"post_correct_resp",78.968253968254
166.6283316,0.1,"CH05ER25","2022_Jan_31_1041","square","speed_accuracy_first","MainTask",37,"Target","NoGo","speed_accuracy",1,NA,"post_correct_resp",78.968253968254
166.728447,1.5,"CH05ER25","2022_Jan_31_1041","square","speed_accuracy_first","MainTask",37,"ITI","NoGo","speed_accuracy",1,NA,"post_correct_resp",78.968253968254
168.229259799999,0.5,"CH05ER25","2022_Jan_31_1041","square","speed_accuracy_first","MainTask",38,"Fixation","Go","speed_accuracy",1,0.29018460000043,"post_correct_inh",78.968253968254
168.728510299999,0.1,"CH05ER25","2022_Jan_31_1041","square","speed_accuracy_first","MainTask",38,"Target","Go","speed_accuracy",1,0.29018460000043,"post_correct_inh",78.968253968254
168.828452199999,1.19018460000043,"CH05ER25","2022_Jan_31_1041","square","speed_accuracy_first","MainTask",38,"ITI","Go","speed_accuracy",1,0.29018460000043,"post_correct_inh",78.968253968254
169.0186949,0,"CH05ER25","2022_Jan_31_1041","square","speed_accuracy_first","MainTask",38,"Response","Go","speed_accuracy",1,0.29018460000043,"post_correct_inh",78.968253968254
170.0762005,0.5,"CH05ER25","2022_Jan_31_1041","square","speed_accuracy_first","MainTask",39,"Fixation","Go","speed_accuracy",1,0.304767699999502,"post_correct_resp",78.968253968254
170.5619004,0.1,"CH05ER25","2022_Jan_31_1041","square","speed_accuracy_first","MainTask",39,"Target","Go","speed_accuracy",1,0.304767699999502,"post_correct_resp",78.968253968254
170.6617011,1.2047676999995,"CH05ER25","2022_Jan_31_1041","square","speed_accuracy_first","MainTask",39,"ITI","Go","speed_accuracy",1,0.304767699999502,"post_correct_resp",78.968253968254
170.8666681,0,"CH05ER25","2022_Jan_31_1041","square","speed_accuracy_first","MainTask",39,"Response","Go","speed_accuracy",1,0.304767699999502,"post_correct_resp",78.968253968254
171.9261789,0.5,"CH05ER25","2022_Jan_31_1041","square","speed_accuracy_first","MainTask",40,"Fixation","Go","speed_accuracy",1,0.3475569000002,"post_correct_resp",78.968253968254
172.4117752,0.1,"CH05ER25","2022_Jan_31_1041","square","speed_accuracy_first","MainTask",40,"Target","Go","speed_accuracy",1,0.3475569000002,"post_correct_resp",78.968253968254
172.5116928,1.2475569000002,"CH05ER25","2022_Jan_31_1041","square","speed_accuracy_first","MainTask",40,"ITI","Go","speed_accuracy",1,0.3475569000002,"post_correct_resp",78.968253968254
172.7593321,0,"CH05ER25","2022_Jan_31_1041","square","speed_accuracy_first","MainTask",40,"Response","Go","speed_accuracy",1,0.3475569000002,"post_correct_resp",78.968253968254
173.8096399,0.5,"CH05ER25","2022_Jan_31_1041","square","speed_accuracy_first","MainTask",41,"Fixation","Go","speed_accuracy",1,0.39565279999988,"post_correct_resp",78.968253968254
174.2951702,0.1,"CH05ER25","2022_Jan_31_1041","square","speed_accuracy_first","MainTask",41,"Target","Go","speed_accuracy",1,0.39565279999988,"post_correct_resp",78.968253968254
174.3951807,1.29565279999988,"CH05ER25","2022_Jan_31_1041","square","speed_accuracy_first","MainTask",41,"ITI","Go","speed_accuracy",1,0.39565279999988,"post_correct_resp",78.968253968254
174.690823,0,"CH05ER25","2022_Jan_31_1041","square","speed_accuracy_first","MainTask",41,"Response","Go","speed_accuracy",1,0.39565279999988,"post_correct_resp",78.968253968254
175.7428652,0.5,"CH05ER25","2022_Jan_31_1041","square","speed_accuracy_first","MainTask",42,"Fixation","Go","speed_accuracy",1,0.412253200000123,"post_correct_resp",78.968253968254
176.2284426,0.1,"CH05ER25","2022_Jan_31_1041","square","speed_accuracy_first","MainTask",42,"Target","Go","speed_accuracy",1,0.412253200000123,"post_correct_resp",78.968253968254
176.3284627,1.31225320000012,"CH05ER25","2022_Jan_31_1041","square","speed_accuracy_first","MainTask",42,"ITI","Go","speed_accuracy",1,0.412253200000123,"post_correct_resp",78.968253968254
176.6406958,0,"CH05ER25","2022_Jan_31_1041","square","speed_accuracy_first","MainTask",42,"Response","Go","speed_accuracy",1,0.412253200000123,"post_correct_resp",78.968253968254
177.6797509,0.5,"CH05ER25","2022_Jan_31_1041","square","speed_accuracy_first","MainTask",43,"Fixation","NoGo","speed_accuracy",0,0.307267499999398,"post_correct_resp",78.968253968254
178.1784118,0.1,"CH05ER25","2022_Jan_31_1041","square","speed_accuracy_first","MainTask",43,"Target","NoGo","speed_accuracy",0,0.307267499999398,"post_correct_resp",78.968253968254
178.2783472,1.2072674999994,"CH05ER25","2022_Jan_31_1041","square","speed_accuracy_first","MainTask",43,"ITI","NoGo","speed_accuracy",0,0.307267499999398,"post_correct_resp",78.968253968254
178.485679299999,0,"CH05ER25","2022_Jan_31_1041","square","speed_accuracy_first","MainTask",43,"Response","NoGo","speed_accuracy",0,0.307267499999398,"post_correct_resp",78.968253968254
179.5425434,0.5,"CH05ER25","2022_Jan_31_1041","square","speed_accuracy_first","MainTask",44,"Fixation","Go","speed_accuracy",1,0.384321500000624,"post_error_resp",78.968253968254
180.0285515,0.1,"CH05ER25","2022_Jan_31_1041","square","speed_accuracy_first","MainTask",44,"Target","Go","speed_accuracy",1,0.384321500000624,"post_error_resp",78.968253968254
180.1285965,1.28432150000062,"CH05ER25","2022_Jan_31_1041","square","speed_accuracy_first","MainTask",44,"ITI","Go","speed_accuracy",1,0.384321500000624,"post_error_resp",78.968253968254
180.412873,0,"CH05ER25","2022_Jan_31_1041","square","speed_accuracy_first","MainTask",44,"Response","Go","speed_accuracy",1,0.384321500000624,"post_error_resp",78.968253968254
181.4596121,0.5,"CH05ER25","2022_Jan_31_1041","square","speed_accuracy_first","MainTask",45,"Fixation","Go","speed_accuracy",1,0.411797200000365,"post_correct_resp",78.968253968254
181.9451337,0.1,"CH05ER25","2022_Jan_31_1041","square","speed_accuracy_first","MainTask",45,"Target","Go","speed_accuracy",1,0.411797200000365,"post_correct_resp",78.968253968254
182.0450435,1.31179720000036,"CH05ER25","2022_Jan_31_1041","square","speed_accuracy_first","MainTask",45,"ITI","Go","speed_accuracy",1,0.411797200000365,"post_correct_resp",78.968253968254
182.3569309,0,"CH05ER25","2022_Jan_31_1041","square","speed_accuracy_first","MainTask",45,"Response","Go","speed_accuracy",1,0.411797200000365,"post_correct_resp",78.968253968254
183.4094183,0.5,"CH05ER25","2022_Jan_31_1041","square","speed_accuracy_first","MainTask",46,"Fixation","Go","speed_accuracy",1,0.419601800000237,"post_correct_resp",78.968253968254
183.8951428,0.1,"CH05ER25","2022_Jan_31_1041","square","speed_accuracy_first","MainTask",46,"Target","Go","speed_accuracy",1,0.419601800000237,"post_correct_resp",78.968253968254
183.9950307,1.31960180000024,"CH05ER25","2022_Jan_31_1041","square","speed_accuracy_first","MainTask",46,"ITI","Go","speed_accuracy",1,0.419601800000237,"post_correct_resp",78.968253968254
184.3147446,0,"CH05ER25","2022_Jan_31_1041","square","speed_accuracy_first","MainTask",46,"Response","Go","speed_accuracy",1,0.419601800000237,"post_correct_resp",78.968253968254
185.3761415,0.5,"CH05ER25","2022_Jan_31_1041","square","speed_accuracy_first","MainTask",47,"Fixation","Go","speed_accuracy",1,0.297772299999451,"post_correct_resp",78.968253968254
185.8619059,0.1,"CH05ER25","2022_Jan_31_1041","square","speed_accuracy_first","MainTask",47,"Target","Go","speed_accuracy",1,0.297772299999451,"post_correct_resp",78.968253968254
185.9618223,1.19777229999945,"CH05ER25","2022_Jan_31_1041","square","speed_accuracy_first","MainTask",47,"ITI","Go","speed_accuracy",1,0.297772299999451,"post_correct_resp",78.968253968254
186.1596782,0,"CH05ER25","2022_Jan_31_1041","square","speed_accuracy_first","MainTask",47,"Response","Go","speed_accuracy",1,0.297772299999451,"post_correct_resp",78.968253968254
187.209331999999,0.5,"CH05ER25","2022_Jan_31_1041","square","speed_accuracy_first","MainTask",48,"Fixation","Go","speed_accuracy",1,0.330619999999726,"post_correct_resp",78.968253968254
187.6950356,0.1,"CH05ER25","2022_Jan_31_1041","square","speed_accuracy_first","MainTask",48,"Target","Go","speed_accuracy",1,0.330619999999726,"post_correct_resp",78.968253968254
187.7951317,1.23061999999973,"CH05ER25","2022_Jan_31_1041","square","speed_accuracy_first","MainTask",48,"ITI","Go","speed_accuracy",1,0.330619999999726,"post_correct_resp",78.968253968254
188.025655599999,0,"CH05ER25","2022_Jan_31_1041","square","speed_accuracy_first","MainTask",48,"Response","Go","speed_accuracy",1,0.330619999999726,"post_correct_resp",78.968253968254
189.076344999999,0.5,"CH05ER25","2022_Jan_31_1041","square","speed_accuracy_first","MainTask",49,"Fixation","Go","speed_accuracy",1,0.335837399999946,"post_correct_resp",78.968253968254
189.5618565,0.1,"CH05ER25","2022_Jan_31_1041","square","speed_accuracy_first","MainTask",49,"Target","Go","speed_accuracy",1,0.335837399999946,"post_correct_resp",78.968253968254
189.6616219,1.23583739999995,"CH05ER25","2022_Jan_31_1041","square","speed_accuracy_first","MainTask",49,"ITI","Go","speed_accuracy",1,0.335837399999946,"post_correct_resp",78.968253968254
189.897693899999,0,"CH05ER25","2022_Jan_31_1041","square","speed_accuracy_first","MainTask",49,"Response","Go","speed_accuracy",1,0.335837399999946,"post_correct_resp",78.968253968254
190.945780999999,0.5,"CH05ER25","2022_Jan_31_1041","square","speed_accuracy_first","MainTask",50,"Fixation","Go","speed_accuracy",1,0.31675820000055,"post_correct_resp",78.968253968254
191.4450805,0.1,"CH05ER25","2022_Jan_31_1041","square","speed_accuracy_first","MainTask",50,"Target","Go","speed_accuracy",1,0.31675820000055,"post_correct_resp",78.968253968254
191.5450408,1.21675820000055,"CH05ER25","2022_Jan_31_1041","square","speed_accuracy_first","MainTask",50,"ITI","Go","speed_accuracy",1,0.31675820000055,"post_correct_resp",78.968253968254
191.7618387,0,"CH05ER25","2022_Jan_31_1041","square","speed_accuracy_first","MainTask",50,"Response","Go","speed_accuracy",1,0.31675820000055,"post_correct_resp",78.968253968254
192.8095264,0.5,"CH05ER25","2022_Jan_31_1041","square","speed_accuracy_first","MainTask",51,"Fixation","Go","speed_accuracy",1,0.300525800000287,"post_correct_resp",78.968253968254
193.2951035,0.1,"CH05ER25","2022_Jan_31_1041","square","speed_accuracy_first","MainTask",51,"Target","Go","speed_accuracy",1,0.300525800000287,"post_correct_resp",78.968253968254
193.3950245,1.20052580000029,"CH05ER25","2022_Jan_31_1041","square","speed_accuracy_first","MainTask",51,"ITI","Go","speed_accuracy",1,0.300525800000287,"post_correct_resp",78.968253968254
193.5956293,0,"CH05ER25","2022_Jan_31_1041","square","speed_accuracy_first","MainTask",51,"Response","Go","speed_accuracy",1,0.300525800000287,"post_correct_resp",78.968253968254
194.6291776,0.5,"CH05ER25","2022_Jan_31_1041","square","speed_accuracy_first","MainTask",52,"Fixation","NoGo","speed_accuracy",0,0.265087599999788,"post_correct_resp",78.968253968254
195.1285953,0.1,"CH05ER25","2022_Jan_31_1041","square","speed_accuracy_first","MainTask",52,"Target","NoGo","speed_accuracy",0,0.265087599999788,"post_correct_resp",78.968253968254
195.2285257,1.16508759999979,"CH05ER25","2022_Jan_31_1041","square","speed_accuracy_first","MainTask",52,"ITI","NoGo","speed_accuracy",0,0.265087599999788,"post_correct_resp",78.968253968254
195.393682899999,0,"CH05ER25","2022_Jan_31_1041","square","speed_accuracy_first","MainTask",52,"Response","NoGo","speed_accuracy",0,0.265087599999788,"post_correct_resp",78.968253968254
196.4291091,0.5,"CH05ER25","2022_Jan_31_1041","square","speed_accuracy_first","MainTask",53,"Fixation","Go","speed_accuracy",1,0.467191300000195,"post_error_resp",78.968253968254
196.9284341,0.1,"CH05ER25","2022_Jan_31_1041","square","speed_accuracy_first","MainTask",53,"Target","Go","speed_accuracy",1,0.467191300000195,"post_error_resp",78.968253968254
197.0284649,1.36719130000019,"CH05ER25","2022_Jan_31_1041","square","speed_accuracy_first","MainTask",53,"ITI","Go","speed_accuracy",1,0.467191300000195,"post_error_resp",78.968253968254
197.3956254,0,"CH05ER25","2022_Jan_31_1041","square","speed_accuracy_first","MainTask",53,"Response","Go","speed_accuracy",1,0.467191300000195,"post_error_resp",78.968253968254
198.4429568,0.5,"CH05ER25","2022_Jan_31_1041","square","speed_accuracy_first","MainTask",54,"Fixation","Go","speed_accuracy",1,0.360280400000192,"post_correct_resp",78.968253968254
198.9284533,0.1,"CH05ER25","2022_Jan_31_1041","square","speed_accuracy_first","MainTask",54,"Target","Go","speed_accuracy",1,0.360280400000192,"post_correct_resp",78.968253968254
199.0284435,1.26028040000019,"CH05ER25","2022_Jan_31_1041","square","speed_accuracy_first","MainTask",54,"ITI","Go","speed_accuracy",1,0.360280400000192,"post_correct_resp",78.968253968254
199.2887337,0,"CH05ER25","2022_Jan_31_1041","square","speed_accuracy_first","MainTask",54,"Response","Go","speed_accuracy",1,0.360280400000192,"post_correct_resp",78.968253968254
200.3428202,0.5,"CH05ER25","2022_Jan_31_1041","square","speed_accuracy_first","MainTask",55,"Fixation","Go","speed_accuracy",1,0.332264499999837,"post_correct_resp",78.968253968254
200.8284157,0.1,"CH05ER25","2022_Jan_31_1041","square","speed_accuracy_first","MainTask",55,"Target","Go","speed_accuracy",1,0.332264499999837,"post_correct_resp",78.968253968254
200.9283487,1.23226449999984,"CH05ER25","2022_Jan_31_1041","square","speed_accuracy_first","MainTask",55,"ITI","Go","speed_accuracy",1,0.332264499999837,"post_correct_resp",78.968253968254
201.1606802,0,"CH05ER25","2022_Jan_31_1041","square","speed_accuracy_first","MainTask",55,"Response","Go","speed_accuracy",1,0.332264499999837,"post_correct_resp",78.968253968254
202.1957212,0.5,"CH05ER25","2022_Jan_31_1041","square","speed_accuracy_first","MainTask",56,"Fixation","NoGo","speed_accuracy",1,NA,"post_correct_resp",78.968253968254
202.6951517,0.1,"CH05ER25","2022_Jan_31_1041","square","speed_accuracy_first","MainTask",56,"Target","NoGo","speed_accuracy",1,NA,"post_correct_resp",78.968253968254
202.7950757,1.5,"CH05ER25","2022_Jan_31_1041","square","speed_accuracy_first","MainTask",56,"ITI","NoGo","speed_accuracy",1,NA,"post_correct_resp",78.968253968254
204.2956872,0.5,"CH05ER25","2022_Jan_31_1041","square","speed_accuracy_first","MainTask",57,"Fixation","Go","speed_accuracy",1,0.301046399999905,"post_correct_inh",78.968253968254
204.794562,0.1,"CH05ER25","2022_Jan_31_1041","square","speed_accuracy_first","MainTask",57,"Target","Go","speed_accuracy",1,0.301046399999905,"post_correct_inh",78.968253968254
204.894966899999,1.2010463999999,"CH05ER25","2022_Jan_31_1041","square","speed_accuracy_first","MainTask",57,"ITI","Go","speed_accuracy",1,0.301046399999905,"post_correct_inh",78.968253968254
205.0956084,0,"CH05ER25","2022_Jan_31_1041","square","speed_accuracy_first","MainTask",57,"Response","Go","speed_accuracy",1,0.301046399999905,"post_correct_inh",78.968253968254
206.142894,0.5,"CH05ER25","2022_Jan_31_1041","square","speed_accuracy_first","MainTask",58,"Fixation","Go","speed_accuracy",1,0.382233099999212,"post_correct_resp",78.968253968254
206.6284441,0.1,"CH05ER25","2022_Jan_31_1041","square","speed_accuracy_first","MainTask",58,"Target","Go","speed_accuracy",1,0.382233099999212,"post_correct_resp",78.968253968254
206.7282951,1.28223309999921,"CH05ER25","2022_Jan_31_1041","square","speed_accuracy_first","MainTask",58,"ITI","Go","speed_accuracy",1,0.382233099999212,"post_correct_resp",78.968253968254
207.010677199999,0,"CH05ER25","2022_Jan_31_1041","square","speed_accuracy_first","MainTask",58,"Response","Go","speed_accuracy",1,0.382233099999212,"post_correct_resp",78.968253968254
208.0594116,0.5,"CH05ER25","2022_Jan_31_1041","square","speed_accuracy_first","MainTask",59,"Fixation","Go","speed_accuracy",1,0.433846599999924,"post_correct_resp",78.968253968254
208.5450756,0.1,"CH05ER25","2022_Jan_31_1041","square","speed_accuracy_first","MainTask",59,"Target","Go","speed_accuracy",1,0.433846599999924,"post_correct_resp",78.968253968254
208.6449179,1.33384659999992,"CH05ER25","2022_Jan_31_1041","square","speed_accuracy_first","MainTask",59,"ITI","Go","speed_accuracy",1,0.433846599999924,"post_correct_resp",78.968253968254
208.9789222,0,"CH05ER25","2022_Jan_31_1041","square","speed_accuracy_first","MainTask",59,"Response","Go","speed_accuracy",1,0.433846599999924,"post_correct_resp",78.968253968254
210.0262059,0.5,"CH05ER25","2022_Jan_31_1041","square","speed_accuracy_first","MainTask",60,"Fixation","Go","speed_accuracy",1,0.328807900000356,"post_correct_resp",78.968253968254
210.511849,0.1,"CH05ER25","2022_Jan_31_1041","square","speed_accuracy_first","MainTask",60,"Target","Go","speed_accuracy",1,0.328807900000356,"post_correct_resp",78.968253968254
210.6118617,1.22880790000036,"CH05ER25","2022_Jan_31_1041","square","speed_accuracy_first","MainTask",60,"ITI","Go","speed_accuracy",1,0.328807900000356,"post_correct_resp",78.968253968254
210.8406569,0,"CH05ER25","2022_Jan_31_1041","square","speed_accuracy_first","MainTask",60,"Response","Go","speed_accuracy",1,0.328807900000356,"post_correct_resp",78.968253968254
211.8793324,0.5,"CH05ER25","2022_Jan_31_1041","square","speed_accuracy_first","MainTask",61,"Fixation","NoGo","speed_accuracy",1,NA,"post_correct_resp",78.968253968254
212.3785002,0.1,"CH05ER25","2022_Jan_31_1041","square","speed_accuracy_first","MainTask",61,"Target","NoGo","speed_accuracy",1,NA,"post_correct_resp",78.968253968254
212.4783949,1.5,"CH05ER25","2022_Jan_31_1041","square","speed_accuracy_first","MainTask",61,"ITI","NoGo","speed_accuracy",1,NA,"post_correct_resp",78.968253968254
213.9791365,0.5,"CH05ER25","2022_Jan_31_1041","square","speed_accuracy_first","MainTask",62,"Fixation","Go","speed_accuracy",1,0.251198900000418,"post_correct_inh",78.968253968254
214.478504799999,0.1,"CH05ER25","2022_Jan_31_1041","square","speed_accuracy_first","MainTask",62,"Target","Go","speed_accuracy",1,0.251198900000418,"post_correct_inh",78.968253968254
214.5784646,1.15119890000042,"CH05ER25","2022_Jan_31_1041","square","speed_accuracy_first","MainTask",62,"ITI","Go","speed_accuracy",1,0.251198900000418,"post_correct_inh",78.968253968254
214.7297037,0,"CH05ER25","2022_Jan_31_1041","square","speed_accuracy_first","MainTask",62,"Response","Go","speed_accuracy",1,0.251198900000418,"post_correct_inh",78.968253968254
215.7625067,0.5,"CH05ER25","2022_Jan_31_1041","square","speed_accuracy_first","MainTask",63,"Fixation","NoGo","speed_accuracy",1,NA,"post_correct_resp",78.968253968254
216.2618173,0.1,"CH05ER25","2022_Jan_31_1041","square","speed_accuracy_first","MainTask",63,"Target","NoGo","speed_accuracy",1,NA,"post_correct_resp",78.968253968254
216.3618758,1.5,"CH05ER25","2022_Jan_31_1041","square","speed_accuracy_first","MainTask",63,"ITI","NoGo","speed_accuracy",1,NA,"post_correct_resp",78.968253968254
217.879014,0.5,"CH05ER25","2022_Jan_31_1041","square","speed_accuracy_first","MainTask",64,"Fixation","Go","speed_accuracy",1,0.32930800000031,"post_correct_inh",78.968253968254
218.3783929,0.1,"CH05ER25","2022_Jan_31_1041","square","speed_accuracy_first","MainTask",64,"Target","Go","speed_accuracy",1,0.32930800000031,"post_correct_inh",78.968253968254
218.4784622,1.22930800000031,"CH05ER25","2022_Jan_31_1041","square","speed_accuracy_first","MainTask",64,"ITI","Go","speed_accuracy",1,0.32930800000031,"post_correct_inh",78.968253968254
218.7077009,0,"CH05ER25","2022_Jan_31_1041","square","speed_accuracy_first","MainTask",64,"Response","Go","speed_accuracy",1,0.32930800000031,"post_correct_inh",78.968253968254
219.7596398,0.5,"CH05ER25","2022_Jan_31_1041","square","speed_accuracy_first","MainTask",65,"Fixation","Go","speed_accuracy",1,0.343676600000435,"post_correct_resp",78.968253968254
220.2450012,0.1,"CH05ER25","2022_Jan_31_1041","square","speed_accuracy_first","MainTask",65,"Target","Go","speed_accuracy",1,0.343676600000435,"post_correct_resp",78.968253968254
220.345019,1.24367660000044,"CH05ER25","2022_Jan_31_1041","square","speed_accuracy_first","MainTask",65,"ITI","Go","speed_accuracy",1,0.343676600000435,"post_correct_resp",78.968253968254
220.5886778,0,"CH05ER25","2022_Jan_31_1041","square","speed_accuracy_first","MainTask",65,"Response","Go","speed_accuracy",1,0.343676600000435,"post_correct_resp",78.968253968254
221.6428164,0.5,"CH05ER25","2022_Jan_31_1041","square","speed_accuracy_first","MainTask",66,"Fixation","Go","speed_accuracy",1,0.36122449999948,"post_correct_resp",78.968253968254
222.1285097,0.1,"CH05ER25","2022_Jan_31_1041","square","speed_accuracy_first","MainTask",66,"Target","Go","speed_accuracy",1,0.36122449999948,"post_correct_resp",78.968253968254
222.228343799999,1.26122449999948,"CH05ER25","2022_Jan_31_1041","square","speed_accuracy_first","MainTask",66,"ITI","Go","speed_accuracy",1,0.36122449999948,"post_correct_resp",78.968253968254
222.489734199999,0,"CH05ER25","2022_Jan_31_1041","square","speed_accuracy_first","MainTask",66,"Response","Go","speed_accuracy",1,0.36122449999948,"post_correct_resp",78.968253968254
223.542851499999,0.5,"CH05ER25","2022_Jan_31_1041","square","speed_accuracy_first","MainTask",67,"Fixation","Go","speed_accuracy",1,0.312289100000271,"post_correct_resp",78.968253968254
224.0283698,0.1,"CH05ER25","2022_Jan_31_1041","square","speed_accuracy_first","MainTask",67,"Target","Go","speed_accuracy",1,0.312289100000271,"post_correct_resp",78.968253968254
224.1283388,1.21228910000027,"CH05ER25","2022_Jan_31_1041","square","speed_accuracy_first","MainTask",67,"ITI","Go","speed_accuracy",1,0.312289100000271,"post_correct_resp",78.968253968254
224.340658900001,0,"CH05ER25","2022_Jan_31_1041","square","speed_accuracy_first","MainTask",67,"Response","Go","speed_accuracy",1,0.312289100000271,"post_correct_resp",78.968253968254
225.3929007,0.5,"CH05ER25","2022_Jan_31_1041","square","speed_accuracy_first","MainTask",68,"Fixation","Go","speed_accuracy",1,0.366348800000196,"post_correct_resp",78.968253968254
225.8784054,0.1,"CH05ER25","2022_Jan_31_1041","square","speed_accuracy_first","MainTask",68,"Target","Go","speed_accuracy",1,0.366348800000196,"post_correct_resp",78.968253968254
225.978389299999,1.2663488000002,"CH05ER25","2022_Jan_31_1041","square","speed_accuracy_first","MainTask",68,"ITI","Go","speed_accuracy",1,0.366348800000196,"post_correct_resp",78.968253968254
226.2447542,0,"CH05ER25","2022_Jan_31_1041","square","speed_accuracy_first","MainTask",68,"Response","Go","speed_accuracy",1,0.366348800000196,"post_correct_resp",78.968253968254
227.292863,0.5,"CH05ER25","2022_Jan_31_1041","square","speed_accuracy_first","MainTask",69,"Fixation","Go","speed_accuracy",1,0.361270200000035,"post_correct_resp",78.968253968254
227.7783214,0.1,"CH05ER25","2022_Jan_31_1041","square","speed_accuracy_first","MainTask",69,"Target","Go","speed_accuracy",1,0.361270200000035,"post_correct_resp",78.968253968254
227.8783674,1.26127020000004,"CH05ER25","2022_Jan_31_1041","square","speed_accuracy_first","MainTask",69,"ITI","Go","speed_accuracy",1,0.361270200000035,"post_correct_resp",78.968253968254
228.1395916,0,"CH05ER25","2022_Jan_31_1041","square","speed_accuracy_first","MainTask",69,"Response","Go","speed_accuracy",1,0.361270200000035,"post_correct_resp",78.968253968254
229.1925936,0.5,"CH05ER25","2022_Jan_31_1041","square","speed_accuracy_first","MainTask",70,"Fixation","Go","speed_accuracy",1,0.363362899999629,"post_correct_resp",78.968253968254
229.6785031,0.1,"CH05ER25","2022_Jan_31_1041","square","speed_accuracy_first","MainTask",70,"Target","Go","speed_accuracy",1,0.363362899999629,"post_correct_resp",78.968253968254
229.7784194,1.26336289999963,"CH05ER25","2022_Jan_31_1041","square","speed_accuracy_first","MainTask",70,"ITI","Go","speed_accuracy",1,0.363362899999629,"post_correct_resp",78.968253968254
230.041866,0,"CH05ER25","2022_Jan_31_1041","square","speed_accuracy_first","MainTask",70,"Response","Go","speed_accuracy",1,0.363362899999629,"post_correct_resp",78.968253968254
231.0926692,0.5,"CH05ER25","2022_Jan_31_1041","square","speed_accuracy_first","MainTask",71,"Fixation","Go","speed_accuracy",1,0.279087300000356,"post_correct_resp",78.968253968254
231.5785669,0.1,"CH05ER25","2022_Jan_31_1041","square","speed_accuracy_first","MainTask",71,"Target","Go","speed_accuracy",1,0.279087300000356,"post_correct_resp",78.968253968254
231.6783989,1.17908730000036,"CH05ER25","2022_Jan_31_1041","square","speed_accuracy_first","MainTask",71,"ITI","Go","speed_accuracy",1,0.279087300000356,"post_correct_resp",78.968253968254
231.8576542,0,"CH05ER25","2022_Jan_31_1041","square","speed_accuracy_first","MainTask",71,"Response","Go","speed_accuracy",1,0.279087300000356,"post_correct_resp",78.968253968254
232.8949758,0.5,"CH05ER25","2022_Jan_31_1041","square","speed_accuracy_first","MainTask",72,"Fixation","Go","speed_accuracy",1,0.515193399999589,"post_correct_resp",78.968253968254
233.3783978,0.1,"CH05ER25","2022_Jan_31_1041","square","speed_accuracy_first","MainTask",72,"Target","Go","speed_accuracy",1,0.515193399999589,"post_correct_resp",78.968253968254
233.478432,1.41519339999959,"CH05ER25","2022_Jan_31_1041","square","speed_accuracy_first","MainTask",72,"ITI","Go","speed_accuracy",1,0.515193399999589,"post_correct_resp",78.968253968254
233.8935912,0,"CH05ER25","2022_Jan_31_1041","square","speed_accuracy_first","MainTask",72,"Response","Go","speed_accuracy",1,0.515193399999589,"post_correct_resp",78.968253968254
234.942689,0.5,"CH05ER25","2022_Jan_31_1041","square","speed_accuracy_first","MainTask",73,"Fixation","Go","speed_accuracy",1,0.539120800000092,"post_correct_resp",78.968253968254
235.428539,0.1,"CH05ER25","2022_Jan_31_1041","square","speed_accuracy_first","MainTask",73,"Target","Go","speed_accuracy",1,0.539120800000092,"post_correct_resp",78.968253968254
235.5285434,1.43912080000009,"CH05ER25","2022_Jan_31_1041","square","speed_accuracy_first","MainTask",73,"ITI","Go","speed_accuracy",1,0.539120800000092,"post_correct_resp",78.968253968254
235.9676598,0,"CH05ER25","2022_Jan_31_1041","square","speed_accuracy_first","MainTask",73,"Response","Go","speed_accuracy",1,0.539120800000092,"post_correct_resp",78.968253968254
237.0127017,0.5,"CH05ER25","2022_Jan_31_1041","square","speed_accuracy_first","MainTask",74,"Fixation","NoGo","speed_accuracy",1,NA,"post_correct_resp",78.968253968254
237.5117224,0.1,"CH05ER25","2022_Jan_31_1041","square","speed_accuracy_first","MainTask",74,"Target","NoGo","speed_accuracy",1,NA,"post_correct_resp",78.968253968254
237.611734999999,1.5,"CH05ER25","2022_Jan_31_1041","square","speed_accuracy_first","MainTask",74,"ITI","NoGo","speed_accuracy",1,NA,"post_correct_resp",78.968253968254
239.1291061,0.5,"CH05ER25","2022_Jan_31_1041","square","speed_accuracy_first","MainTask",75,"Fixation","NoGo","speed_accuracy",1,NA,"post_correct_inh",78.968253968254
239.6284075,0.1,"CH05ER25","2022_Jan_31_1041","square","speed_accuracy_first","MainTask",75,"Target","NoGo","speed_accuracy",1,NA,"post_correct_inh",78.968253968254
239.7283159,1.5,"CH05ER25","2022_Jan_31_1041","square","speed_accuracy_first","MainTask",75,"ITI","NoGo","speed_accuracy",1,NA,"post_correct_inh",78.968253968254
241.2594809,0.5,"CH05ER25","2022_Jan_31_1041","square","speed_accuracy_first","MainTask",76,"Fixation","NoGo","speed_accuracy",1,NA,"post_correct_inh",78.968253968254
241.7450163,0.1,"CH05ER25","2022_Jan_31_1041","square","speed_accuracy_first","MainTask",76,"Target","NoGo","speed_accuracy",1,NA,"post_correct_inh",78.968253968254
241.84508,1.5,"CH05ER25","2022_Jan_31_1041","square","speed_accuracy_first","MainTask",76,"ITI","NoGo","speed_accuracy",1,NA,"post_correct_inh",78.968253968254
243.3589744,0.5,"CH05ER25","2022_Jan_31_1041","square","speed_accuracy_first","MainTask",77,"Fixation","Go","speed_accuracy",1,0.342632899999444,"post_correct_inh",78.968253968254
243.8450578,0.1,"CH05ER25","2022_Jan_31_1041","square","speed_accuracy_first","MainTask",77,"Target","Go","speed_accuracy",1,0.342632899999444,"post_correct_inh",78.968253968254
243.9451412,1.24263289999944,"CH05ER25","2022_Jan_31_1041","square","speed_accuracy_first","MainTask",77,"ITI","Go","speed_accuracy",1,0.342632899999444,"post_correct_inh",78.968253968254
244.1876907,0,"CH05ER25","2022_Jan_31_1041","square","speed_accuracy_first","MainTask",77,"Response","Go","speed_accuracy",1,0.342632899999444,"post_correct_inh",78.968253968254
245.2427298,0.5,"CH05ER25","2022_Jan_31_1041","square","speed_accuracy_first","MainTask",78,"Fixation","Go","speed_accuracy",1,0.376238999999259,"post_correct_resp",78.968253968254
245.7284044,0.1,"CH05ER25","2022_Jan_31_1041","square","speed_accuracy_first","MainTask",78,"Target","Go","speed_accuracy",1,0.376238999999259,"post_correct_resp",78.968253968254
245.8282468,1.27623899999926,"CH05ER25","2022_Jan_31_1041","square","speed_accuracy_first","MainTask",78,"ITI","Go","speed_accuracy",1,0.376238999999259,"post_correct_resp",78.968253968254
246.104643399999,0,"CH05ER25","2022_Jan_31_1041","square","speed_accuracy_first","MainTask",78,"Response","Go","speed_accuracy",1,0.376238999999259,"post_correct_resp",78.968253968254
247.1465747,0.5,"CH05ER25","2022_Jan_31_1041","square","speed_accuracy_first","MainTask",79,"Fixation","NoGo","speed_accuracy",0,0.257649500000298,"post_correct_resp",78.968253968254
247.6450302,0.1,"CH05ER25","2022_Jan_31_1041","square","speed_accuracy_first","MainTask",79,"Target","NoGo","speed_accuracy",0,0.257649500000298,"post_correct_resp",78.968253968254
247.7449577,1.1576495000003,"CH05ER25","2022_Jan_31_1041","square","speed_accuracy_first","MainTask",79,"ITI","NoGo","speed_accuracy",0,0.257649500000298,"post_correct_resp",78.968253968254
247.902679700001,0,"CH05ER25","2022_Jan_31_1041","square","speed_accuracy_first","MainTask",79,"Response","NoGo","speed_accuracy",0,0.257649500000298,"post_correct_resp",78.968253968254
248.959384,0.5,"CH05ER25","2022_Jan_31_1041","square","speed_accuracy_first","MainTask",80,"Fixation","NoGo","speed_accuracy",1,NA,"post_error_resp",78.968253968254
249.4446025,0.1,"CH05ER25","2022_Jan_31_1041","square","speed_accuracy_first","MainTask",80,"Target","NoGo","speed_accuracy",1,NA,"post_error_resp",78.968253968254
249.5450566,1.5,"CH05ER25","2022_Jan_31_1041","square","speed_accuracy_first","MainTask",80,"ITI","NoGo","speed_accuracy",1,NA,"post_error_resp",78.968253968254
251.0595527,0.5,"CH05ER25","2022_Jan_31_1041","square","speed_accuracy_first","MainTask",81,"Fixation","NoGo","speed_accuracy",1,NA,"post_correct_inh",78.968253968254
251.5450992,0.1,"CH05ER25","2022_Jan_31_1041","square","speed_accuracy_first","MainTask",81,"Target","NoGo","speed_accuracy",1,NA,"post_correct_inh",78.968253968254
251.6449837,1.5,"CH05ER25","2022_Jan_31_1041","square","speed_accuracy_first","MainTask",81,"ITI","NoGo","speed_accuracy",1,NA,"post_correct_inh",78.968253968254
253.1463806,0.5,"CH05ER25","2022_Jan_31_1041","square","speed_accuracy_first","MainTask",82,"Fixation","Go","speed_accuracy",1,0.521548100000473,"post_correct_inh",78.968253968254
253.6451006,0.1,"CH05ER25","2022_Jan_31_1041","square","speed_accuracy_first","MainTask",82,"Target","Go","speed_accuracy",1,0.521548100000473,"post_correct_inh",78.968253968254
253.7450012,1.42154810000047,"CH05ER25","2022_Jan_31_1041","square","speed_accuracy_first","MainTask",82,"ITI","Go","speed_accuracy",1,0.521548100000473,"post_correct_inh",78.968253968254
254.1666487,0,"CH05ER25","2022_Jan_31_1041","square","speed_accuracy_first","MainTask",82,"Response","Go","speed_accuracy",1,0.521548100000473,"post_correct_inh",78.968253968254
255.2261469,0.5,"CH05ER25","2022_Jan_31_1041","square","speed_accuracy_first","MainTask",83,"Fixation","Go","speed_accuracy",1,0.371814600000107,"post_correct_resp",78.968253968254
255.7118285,0.1,"CH05ER25","2022_Jan_31_1041","square","speed_accuracy_first","MainTask",83,"Target","Go","speed_accuracy",1,0.371814600000107,"post_correct_resp",78.968253968254
255.8115876,1.27181460000011,"CH05ER25","2022_Jan_31_1041","square","speed_accuracy_first","MainTask",83,"ITI","Go","speed_accuracy",1,0.371814600000107,"post_correct_resp",78.968253968254
256.0836431,0,"CH05ER25","2022_Jan_31_1041","square","speed_accuracy_first","MainTask",83,"Response","Go","speed_accuracy",1,0.371814600000107,"post_correct_resp",78.968253968254
257.1427769,0.5,"CH05ER25","2022_Jan_31_1041","square","speed_accuracy_first","MainTask",84,"Fixation","Go","speed_accuracy",1,0.372176699999727,"post_correct_resp",78.968253968254
257.6284872,0.1,"CH05ER25","2022_Jan_31_1041","square","speed_accuracy_first","MainTask",84,"Target","Go","speed_accuracy",1,0.372176699999727,"post_correct_resp",78.968253968254
257.7283283,1.27217669999973,"CH05ER25","2022_Jan_31_1041","square","speed_accuracy_first","MainTask",84,"ITI","Go","speed_accuracy",1,0.372176699999727,"post_correct_resp",78.968253968254
258.000663899999,0,"CH05ER25","2022_Jan_31_1041","square","speed_accuracy_first","MainTask",84,"Response","Go","speed_accuracy",1,0.372176699999727,"post_correct_resp",78.968253968254
259.059359899999,0.5,"CH05ER25","2022_Jan_31_1041","square","speed_accuracy_first","MainTask",85,"Fixation","Go","speed_accuracy",1,0.30353070000001,"post_correct_resp",78.968253968254
259.5450999,0.1,"CH05ER25","2022_Jan_31_1041","square","speed_accuracy_first","MainTask",85,"Target","Go","speed_accuracy",1,0.30353070000001,"post_correct_resp",78.968253968254
259.6450302,1.20353070000001,"CH05ER25","2022_Jan_31_1041","square","speed_accuracy_first","MainTask",85,"ITI","Go","speed_accuracy",1,0.30353070000001,"post_correct_resp",78.968253968254
259.8486306,0,"CH05ER25","2022_Jan_31_1041","square","speed_accuracy_first","MainTask",85,"Response","Go","speed_accuracy",1,0.30353070000001,"post_correct_resp",78.968253968254
260.9094702,0.5,"CH05ER25","2022_Jan_31_1041","square","speed_accuracy_first","MainTask",86,"Fixation","Go","speed_accuracy",1,0.361573299999691,"post_correct_resp",78.968253968254
261.3951559,0.1,"CH05ER25","2022_Jan_31_1041","square","speed_accuracy_first","MainTask",86,"Target","Go","speed_accuracy",1,0.361573299999691,"post_correct_resp",78.968253968254
261.4950916,1.26157329999969,"CH05ER25","2022_Jan_31_1041","square","speed_accuracy_first","MainTask",86,"ITI","Go","speed_accuracy",1,0.361573299999691,"post_correct_resp",78.968253968254
261.756729199999,0,"CH05ER25","2022_Jan_31_1041","square","speed_accuracy_first","MainTask",86,"Response","Go","speed_accuracy",1,0.361573299999691,"post_correct_resp",78.968253968254
262.7950679,0.5,"CH05ER25","2022_Jan_31_1041","square","speed_accuracy_first","MainTask",87,"Fixation","NoGo","speed_accuracy",1,NA,"post_correct_resp",78.968253968254
263.2950166,0.1,"CH05ER25","2022_Jan_31_1041","square","speed_accuracy_first","MainTask",87,"Target","NoGo","speed_accuracy",1,NA,"post_correct_resp",78.968253968254
263.3950696,1.5,"CH05ER25","2022_Jan_31_1041","square","speed_accuracy_first","MainTask",87,"ITI","NoGo","speed_accuracy",1,NA,"post_correct_resp",78.968253968254
264.8956555,0.5,"CH05ER25","2022_Jan_31_1041","square","speed_accuracy_first","MainTask",88,"Fixation","Go","speed_accuracy",1,0.369666900000084,"post_correct_inh",78.968253968254
265.3951141,0.1,"CH05ER25","2022_Jan_31_1041","square","speed_accuracy_first","MainTask",88,"Target","Go","speed_accuracy",1,0.369666900000084,"post_correct_inh",78.968253968254
265.4949357,1.26966690000008,"CH05ER25","2022_Jan_31_1041","square","speed_accuracy_first","MainTask",88,"ITI","Go","speed_accuracy",1,0.369666900000084,"post_correct_inh",78.968253968254
265.764781,0,"CH05ER25","2022_Jan_31_1041","square","speed_accuracy_first","MainTask",88,"Response","Go","speed_accuracy",1,0.369666900000084,"post_correct_inh",78.968253968254
266.8260976,0.5,"CH05ER25","2022_Jan_31_1041","square","speed_accuracy_first","MainTask",89,"Fixation","Go","speed_accuracy",1,0.436951299999237,"post_correct_resp",78.968253968254
267.3116245,0.1,"CH05ER25","2022_Jan_31_1041","square","speed_accuracy_first","MainTask",89,"Target","Go","speed_accuracy",1,0.436951299999237,"post_correct_resp",78.968253968254
267.4115762,1.33695129999924,"CH05ER25","2022_Jan_31_1041","square","speed_accuracy_first","MainTask",89,"ITI","Go","speed_accuracy",1,0.436951299999237,"post_correct_resp",78.968253968254
267.748575799999,0,"CH05ER25","2022_Jan_31_1041","square","speed_accuracy_first","MainTask",89,"Response","Go","speed_accuracy",1,0.436951299999237,"post_correct_resp",78.968253968254
268.809587799999,0.5,"CH05ER25","2022_Jan_31_1041","square","speed_accuracy_first","MainTask",90,"Fixation","Go","speed_accuracy",1,0.294672100000753,"post_correct_resp",78.968253968254
269.2950285,0.1,"CH05ER25","2022_Jan_31_1041","square","speed_accuracy_first","MainTask",90,"Target","Go","speed_accuracy",1,0.294672100000753,"post_correct_resp",78.968253968254
269.3950106,1.19467210000075,"CH05ER25","2022_Jan_31_1041","square","speed_accuracy_first","MainTask",90,"ITI","Go","speed_accuracy",1,0.294672100000753,"post_correct_resp",78.968253968254
269.5897006,0,"CH05ER25","2022_Jan_31_1041","square","speed_accuracy_first","MainTask",90,"Response","Go","speed_accuracy",1,0.294672100000753,"post_correct_resp",78.968253968254
270.6424086,0.5,"CH05ER25","2022_Jan_31_1041","square","speed_accuracy_first","MainTask",91,"Fixation","NoGo","speed_accuracy",1,NA,"post_correct_resp",78.968253968254
271.1282986,0.1,"CH05ER25","2022_Jan_31_1041","square","speed_accuracy_first","MainTask",91,"Target","NoGo","speed_accuracy",1,NA,"post_correct_resp",78.968253968254
271.2284041,1.5,"CH05ER25","2022_Jan_31_1041","square","speed_accuracy_first","MainTask",91,"ITI","NoGo","speed_accuracy",1,NA,"post_correct_resp",78.968253968254
272.7596177,0.5,"CH05ER25","2022_Jan_31_1041","square","speed_accuracy_first","MainTask",92,"Fixation","NoGo","speed_accuracy",1,NA,"post_correct_inh",78.968253968254
273.2449639,0.1,"CH05ER25","2022_Jan_31_1041","square","speed_accuracy_first","MainTask",92,"Target","NoGo","speed_accuracy",1,NA,"post_correct_inh",78.968253968254
273.3451039,1.5,"CH05ER25","2022_Jan_31_1041","square","speed_accuracy_first","MainTask",92,"ITI","NoGo","speed_accuracy",1,NA,"post_correct_inh",78.968253968254
274.8593635,0.5,"CH05ER25","2022_Jan_31_1041","square","speed_accuracy_first","MainTask",93,"Fixation","NoGo","speed_accuracy",0,0.303498000000218,"post_correct_inh",78.968253968254
275.3451252,0.1,"CH05ER25","2022_Jan_31_1041","square","speed_accuracy_first","MainTask",93,"Target","NoGo","speed_accuracy",0,0.303498000000218,"post_correct_inh",78.968253968254
275.4450814,1.20349800000022,"CH05ER25","2022_Jan_31_1041","square","speed_accuracy_first","MainTask",93,"ITI","NoGo","speed_accuracy",0,0.303498000000218,"post_correct_inh",78.968253968254
275.6486232,0,"CH05ER25","2022_Jan_31_1041","square","speed_accuracy_first","MainTask",93,"Response","NoGo","speed_accuracy",0,0.303498000000218,"post_correct_inh",78.968253968254
276.679037299999,0.5,"CH05ER25","2022_Jan_31_1041","square","speed_accuracy_first","MainTask",94,"Fixation","Go","speed_accuracy",1,0.390680800000155,"post_error_resp",78.968253968254
277.1779922,0.1,"CH05ER25","2022_Jan_31_1041","square","speed_accuracy_first","MainTask",94,"Target","Go","speed_accuracy",1,0.390680800000155,"post_error_resp",78.968253968254
277.2783813,1.29068080000015,"CH05ER25","2022_Jan_31_1041","square","speed_accuracy_first","MainTask",94,"ITI","Go","speed_accuracy",1,0.390680800000155,"post_error_resp",78.968253968254
277.568673,0,"CH05ER25","2022_Jan_31_1041","square","speed_accuracy_first","MainTask",94,"Response","Go","speed_accuracy",1,0.390680800000155,"post_error_resp",78.968253968254
278.6258706,0.5,"CH05ER25","2022_Jan_31_1041","square","speed_accuracy_first","MainTask",95,"Fixation","Go","speed_accuracy",1,0.44215770000028,"post_correct_resp",78.968253968254
279.1113015,0.1,"CH05ER25","2022_Jan_31_1041","square","speed_accuracy_first","MainTask",95,"Target","Go","speed_accuracy",1,0.44215770000028,"post_correct_resp",78.968253968254
279.2116709,1.34215770000028,"CH05ER25","2022_Jan_31_1041","square","speed_accuracy_first","MainTask",95,"ITI","Go","speed_accuracy",1,0.44215770000028,"post_correct_resp",78.968253968254
279.5534592,0,"CH05ER25","2022_Jan_31_1041","square","speed_accuracy_first","MainTask",95,"Response","Go","speed_accuracy",1,0.44215770000028,"post_correct_resp",78.968253968254
280.5939641,0.5,"CH05ER25","2022_Jan_31_1041","square","speed_accuracy_first","MainTask",96,"Fixation","Go","speed_accuracy",1,0.313341400000354,"post_correct_resp",78.968253968254
281.077438,0.1,"CH05ER25","2022_Jan_31_1041","square","speed_accuracy_first","MainTask",96,"Target","Go","speed_accuracy",1,0.313341400000354,"post_correct_resp",78.968253968254
281.178244199999,1.21334140000035,"CH05ER25","2022_Jan_31_1041","square","speed_accuracy_first","MainTask",96,"ITI","Go","speed_accuracy",1,0.313341400000354,"post_correct_resp",78.968253968254
281.390779400001,0,"CH05ER25","2022_Jan_31_1041","square","speed_accuracy_first","MainTask",96,"Response","Go","speed_accuracy",1,0.313341400000354,"post_correct_resp",78.968253968254
282.4290321,0.5,"CH05ER25","2022_Jan_31_1041","square","speed_accuracy_first","MainTask",97,"Fixation","Go","speed_accuracy",1,0.314314500000364,"post_correct_resp",78.968253968254
282.9282379,0.1,"CH05ER25","2022_Jan_31_1041","square","speed_accuracy_first","MainTask",97,"Target","Go","speed_accuracy",1,0.314314500000364,"post_correct_resp",78.968253968254
283.0283123,1.21431450000036,"CH05ER25","2022_Jan_31_1041","square","speed_accuracy_first","MainTask",97,"ITI","Go","speed_accuracy",1,0.314314500000364,"post_correct_resp",78.968253968254
283.2425524,0,"CH05ER25","2022_Jan_31_1041","square","speed_accuracy_first","MainTask",97,"Response","Go","speed_accuracy",1,0.314314500000364,"post_correct_resp",78.968253968254
284.2790488,0.5,"CH05ER25","2022_Jan_31_1041","square","speed_accuracy_first","MainTask",98,"Fixation","NoGo","speed_accuracy",1,NA,"post_correct_resp",78.968253968254
284.7779222,0.1,"CH05ER25","2022_Jan_31_1041","square","speed_accuracy_first","MainTask",98,"Target","NoGo","speed_accuracy",1,NA,"post_correct_resp",78.968253968254
284.8781877,1.5,"CH05ER25","2022_Jan_31_1041","square","speed_accuracy_first","MainTask",98,"ITI","NoGo","speed_accuracy",1,NA,"post_correct_resp",78.968253968254
286.3927169,0.5,"CH05ER25","2022_Jan_31_1041","square","speed_accuracy_first","MainTask",99,"Fixation","NoGo","speed_accuracy",1,NA,"post_correct_inh",78.968253968254
286.8782527,0.1,"CH05ER25","2022_Jan_31_1041","square","speed_accuracy_first","MainTask",99,"Target","NoGo","speed_accuracy",1,NA,"post_correct_inh",78.968253968254
286.9783239,1.5,"CH05ER25","2022_Jan_31_1041","square","speed_accuracy_first","MainTask",99,"ITI","NoGo","speed_accuracy",1,NA,"post_correct_inh",78.968253968254
288.4789874,0.5,"CH05ER25","2022_Jan_31_1041","square","speed_accuracy_first","MainTask",100,"Fixation","Go","speed_accuracy",1,0.402169699999831,"post_correct_inh",78.968253968254
288.9783878,0.1,"CH05ER25","2022_Jan_31_1041","square","speed_accuracy_first","MainTask",100,"Target","Go","speed_accuracy",1,0.402169699999831,"post_correct_inh",78.968253968254
289.0784002,1.30216969999983,"CH05ER25","2022_Jan_31_1041","square","speed_accuracy_first","MainTask",100,"ITI","Go","speed_accuracy",1,0.402169699999831,"post_correct_inh",78.968253968254
289.3805575,0,"CH05ER25","2022_Jan_31_1041","square","speed_accuracy_first","MainTask",100,"Response","Go","speed_accuracy",1,0.402169699999831,"post_correct_inh",78.968253968254
290.4428791,0.5,"CH05ER25","2022_Jan_31_1041","square","speed_accuracy_first","MainTask",101,"Fixation","Go","speed_accuracy",1,0.380786000000626,"post_correct_resp",78.968253968254
290.9283193,0.1,"CH05ER25","2022_Jan_31_1041","square","speed_accuracy_first","MainTask",101,"Target","Go","speed_accuracy",1,0.380786000000626,"post_correct_resp",78.968253968254
291.0284007,1.28078600000063,"CH05ER25","2022_Jan_31_1041","square","speed_accuracy_first","MainTask",101,"ITI","Go","speed_accuracy",1,0.380786000000626,"post_correct_resp",78.968253968254
291.309105300001,0,"CH05ER25","2022_Jan_31_1041","square","speed_accuracy_first","MainTask",101,"Response","Go","speed_accuracy",1,0.380786000000626,"post_correct_resp",78.968253968254
292.3594954,0.5,"CH05ER25","2022_Jan_31_1041","square","speed_accuracy_first","MainTask",102,"Fixation","Go","speed_accuracy",1,0.438394100000551,"post_correct_resp",78.968253968254
292.8451053,0.1,"CH05ER25","2022_Jan_31_1041","square","speed_accuracy_first","MainTask",102,"Target","Go","speed_accuracy",1,0.438394100000551,"post_correct_resp",78.968253968254
292.9449377,1.33839410000055,"CH05ER25","2022_Jan_31_1041","square","speed_accuracy_first","MainTask",102,"ITI","Go","speed_accuracy",1,0.438394100000551,"post_correct_resp",78.968253968254
293.2834994,0,"CH05ER25","2022_Jan_31_1041","square","speed_accuracy_first","MainTask",102,"Response","Go","speed_accuracy",1,0.438394100000551,"post_correct_resp",78.968253968254
294.3289824,0.5,"CH05ER25","2022_Jan_31_1041","square","speed_accuracy_first","MainTask",103,"Fixation","NoGo","speed_accuracy",1,NA,"post_correct_resp",78.968253968254
294.8280593,0.1,"CH05ER25","2022_Jan_31_1041","square","speed_accuracy_first","MainTask",103,"Target","NoGo","speed_accuracy",1,NA,"post_correct_resp",78.968253968254
294.928384,1.5,"CH05ER25","2022_Jan_31_1041","square","speed_accuracy_first","MainTask",103,"ITI","NoGo","speed_accuracy",1,NA,"post_correct_resp",78.968253968254
296.4290461,0.5,"CH05ER25","2022_Jan_31_1041","square","speed_accuracy_first","MainTask",104,"Fixation","Go","speed_accuracy",1,0.33627720000004,"post_correct_inh",78.968253968254
296.9283031,0.1,"CH05ER25","2022_Jan_31_1041","square","speed_accuracy_first","MainTask",104,"Target","Go","speed_accuracy",1,0.33627720000004,"post_correct_inh",78.968253968254
297.0283812,1.23627720000004,"CH05ER25","2022_Jan_31_1041","square","speed_accuracy_first","MainTask",104,"ITI","Go","speed_accuracy",1,0.33627720000004,"post_correct_inh",78.968253968254
297.2645803,0,"CH05ER25","2022_Jan_31_1041","square","speed_accuracy_first","MainTask",104,"Response","Go","speed_accuracy",1,0.33627720000004,"post_correct_inh",78.968253968254
298.3130838,0.5,"CH05ER25","2022_Jan_31_1041","square","speed_accuracy_first","MainTask",105,"Fixation","NoGo","speed_accuracy",1,NA,"post_correct_resp",78.968253968254
298.8115914,0.1,"CH05ER25","2022_Jan_31_1041","square","speed_accuracy_first","MainTask",105,"Target","NoGo","speed_accuracy",1,NA,"post_correct_resp",78.968253968254
298.9114813,1.5,"CH05ER25","2022_Jan_31_1041","square","speed_accuracy_first","MainTask",105,"ITI","NoGo","speed_accuracy",1,NA,"post_correct_resp",78.968253968254
300.4425579,0.5,"CH05ER25","2022_Jan_31_1041","square","speed_accuracy_first","MainTask",106,"Fixation","NoGo","speed_accuracy",1,NA,"post_correct_inh",78.968253968254
300.928319099999,0.1,"CH05ER25","2022_Jan_31_1041","square","speed_accuracy_first","MainTask",106,"Target","NoGo","speed_accuracy",1,NA,"post_correct_inh",78.968253968254
301.0283328,1.5,"CH05ER25","2022_Jan_31_1041","square","speed_accuracy_first","MainTask",106,"ITI","NoGo","speed_accuracy",1,NA,"post_correct_inh",78.968253968254
302.5288823,0.5,"CH05ER25","2022_Jan_31_1041","square","speed_accuracy_first","MainTask",107,"Fixation","Go","speed_accuracy",1,0.417272099999536,"post_correct_inh",78.968253968254
303.0281829,0.1,"CH05ER25","2022_Jan_31_1041","square","speed_accuracy_first","MainTask",107,"Target","Go","speed_accuracy",1,0.417272099999536,"post_correct_inh",78.968253968254
303.1283683,1.31727209999954,"CH05ER25","2022_Jan_31_1041","square","speed_accuracy_first","MainTask",107,"ITI","Go","speed_accuracy",1,0.417272099999536,"post_correct_inh",78.968253968254
303.445454999999,0,"CH05ER25","2022_Jan_31_1041","square","speed_accuracy_first","MainTask",107,"Response","Go","speed_accuracy",1,0.417272099999536,"post_correct_inh",78.968253968254
304.4789935,0.5,"CH05ER25","2022_Jan_31_1041","square","speed_accuracy_first","MainTask",108,"Fixation","NoGo","speed_accuracy",1,NA,"post_correct_resp",78.968253968254
304.9783593,0.1,"CH05ER25","2022_Jan_31_1041","square","speed_accuracy_first","MainTask",108,"Target","NoGo","speed_accuracy",1,NA,"post_correct_resp",78.968253968254
305.0783242,1.5,"CH05ER25","2022_Jan_31_1041","square","speed_accuracy_first","MainTask",108,"ITI","NoGo","speed_accuracy",1,NA,"post_correct_resp",78.968253968254
306.5789757,0.5,"CH05ER25","2022_Jan_31_1041","square","speed_accuracy_first","MainTask",109,"Fixation","Go","speed_accuracy",1,0.450453099999322,"post_correct_inh",78.968253968254
307.0782946,0.1,"CH05ER25","2022_Jan_31_1041","square","speed_accuracy_first","MainTask",109,"Target","Go","speed_accuracy",1,0.450453099999322,"post_correct_inh",78.968253968254
307.1782732,1.35045309999932,"CH05ER25","2022_Jan_31_1041","square","speed_accuracy_first","MainTask",109,"ITI","Go","speed_accuracy",1,0.450453099999322,"post_correct_inh",78.968253968254
307.528747699999,0,"CH05ER25","2022_Jan_31_1041","square","speed_accuracy_first","MainTask",109,"Response","Go","speed_accuracy",1,0.450453099999322,"post_correct_inh",78.968253968254
308.575842,0.5,"CH05ER25","2022_Jan_31_1041","square","speed_accuracy_first","MainTask",110,"Fixation","Go","speed_accuracy",1,0.401865900000303,"post_correct_resp",78.968253968254
309.061726299999,0.1,"CH05ER25","2022_Jan_31_1041","square","speed_accuracy_first","MainTask",110,"Target","Go","speed_accuracy",1,0.401865900000303,"post_correct_resp",78.968253968254
309.1615139,1.3018659000003,"CH05ER25","2022_Jan_31_1041","square","speed_accuracy_first","MainTask",110,"ITI","Go","speed_accuracy",1,0.401865900000303,"post_correct_resp",78.968253968254
309.4635922,0,"CH05ER25","2022_Jan_31_1041","square","speed_accuracy_first","MainTask",110,"Response","Go","speed_accuracy",1,0.401865900000303,"post_correct_resp",78.968253968254
310.5125946,0.5,"CH05ER25","2022_Jan_31_1041","square","speed_accuracy_first","MainTask",111,"Fixation","Go","speed_accuracy",1,0.320894299999964,"post_correct_resp",78.968253968254
311.0116727,0.1,"CH05ER25","2022_Jan_31_1041","square","speed_accuracy_first","MainTask",111,"Target","Go","speed_accuracy",1,0.320894299999964,"post_correct_resp",78.968253968254
311.1117288,1.22089429999996,"CH05ER25","2022_Jan_31_1041","square","speed_accuracy_first","MainTask",111,"ITI","Go","speed_accuracy",1,0.320894299999964,"post_correct_resp",78.968253968254
311.332566999999,0,"CH05ER25","2022_Jan_31_1041","square","speed_accuracy_first","MainTask",111,"Response","Go","speed_accuracy",1,0.320894299999964,"post_correct_resp",78.968253968254
312.3927218,0.5,"CH05ER25","2022_Jan_31_1041","square","speed_accuracy_first","MainTask",112,"Fixation","Go","speed_accuracy",1,0.324167899999338,"post_correct_resp",78.968253968254
312.8784404,0.1,"CH05ER25","2022_Jan_31_1041","square","speed_accuracy_first","MainTask",112,"Target","Go","speed_accuracy",1,0.324167899999338,"post_correct_resp",78.968253968254
312.9783687,1.22416789999934,"CH05ER25","2022_Jan_31_1041","square","speed_accuracy_first","MainTask",112,"ITI","Go","speed_accuracy",1,0.324167899999338,"post_correct_resp",78.968253968254
313.202608299999,0,"CH05ER25","2022_Jan_31_1041","square","speed_accuracy_first","MainTask",112,"Response","Go","speed_accuracy",1,0.324167899999338,"post_correct_resp",78.968253968254
314.2456529,0.5,"CH05ER25","2022_Jan_31_1041","square","speed_accuracy_first","MainTask",113,"Fixation","NoGo","speed_accuracy",1,NA,"post_correct_resp",78.968253968254
314.7448464,0.1,"CH05ER25","2022_Jan_31_1041","square","speed_accuracy_first","MainTask",113,"Target","NoGo","speed_accuracy",1,NA,"post_correct_resp",78.968253968254
314.845032499999,1.5,"CH05ER25","2022_Jan_31_1041","square","speed_accuracy_first","MainTask",113,"ITI","NoGo","speed_accuracy",1,NA,"post_correct_resp",78.968253968254
316.360798799999,0.5,"CH05ER25","2022_Jan_31_1041","square","speed_accuracy_first","MainTask",114,"Fixation","Go","speed_accuracy",1,0.43147990000034,"post_correct_inh",78.968253968254
316.8451112,0.1,"CH05ER25","2022_Jan_31_1041","square","speed_accuracy_first","MainTask",114,"Target","Go","speed_accuracy",1,0.43147990000034,"post_correct_inh",78.968253968254
316.945009999999,1.33147990000034,"CH05ER25","2022_Jan_31_1041","square","speed_accuracy_first","MainTask",114,"ITI","Go","speed_accuracy",1,0.43147990000034,"post_correct_inh",78.968253968254
317.276591100001,0,"CH05ER25","2022_Jan_31_1041","square","speed_accuracy_first","MainTask",114,"Response","Go","speed_accuracy",1,0.43147990000034,"post_correct_inh",78.968253968254
318.3261008,0.5,"CH05ER25","2022_Jan_31_1041","square","speed_accuracy_first","MainTask",115,"Fixation","Go","speed_accuracy",1,0.439791600000717,"post_correct_resp",78.968253968254
318.8117022,0.1,"CH05ER25","2022_Jan_31_1041","square","speed_accuracy_first","MainTask",115,"Target","Go","speed_accuracy",1,0.439791600000717,"post_correct_resp",78.968253968254
318.9115941,1.33979160000072,"CH05ER25","2022_Jan_31_1041","square","speed_accuracy_first","MainTask",115,"ITI","Go","speed_accuracy",1,0.439791600000717,"post_correct_resp",78.968253968254
319.2514938,0,"CH05ER25","2022_Jan_31_1041","square","speed_accuracy_first","MainTask",115,"Response","Go","speed_accuracy",1,0.439791600000717,"post_correct_resp",78.968253968254
320.3093557,0.5,"CH05ER25","2022_Jan_31_1041","square","speed_accuracy_first","MainTask",116,"Fixation","Go","speed_accuracy",1,0.40253919999941,"post_correct_resp",78.968253968254
320.7950277,0.1,"CH05ER25","2022_Jan_31_1041","square","speed_accuracy_first","MainTask",116,"Target","Go","speed_accuracy",1,0.40253919999941,"post_correct_resp",78.968253968254
320.8949817,1.30253919999941,"CH05ER25","2022_Jan_31_1041","square","speed_accuracy_first","MainTask",116,"ITI","Go","speed_accuracy",1,0.40253919999941,"post_correct_resp",78.968253968254
321.197566899999,0,"CH05ER25","2022_Jan_31_1041","square","speed_accuracy_first","MainTask",116,"Response","Go","speed_accuracy",1,0.40253919999941,"post_correct_resp",78.968253968254
322.2593984,0.5,"CH05ER25","2022_Jan_31_1041","square","speed_accuracy_first","MainTask",117,"Fixation","Go","speed_accuracy",1,0.306614300000547,"post_correct_resp",78.968253968254
322.744954,0.1,"CH05ER25","2022_Jan_31_1041","square","speed_accuracy_first","MainTask",117,"Target","Go","speed_accuracy",1,0.306614300000547,"post_correct_resp",78.968253968254
322.845016499999,1.20661430000055,"CH05ER25","2022_Jan_31_1041","square","speed_accuracy_first","MainTask",117,"ITI","Go","speed_accuracy",1,0.306614300000547,"post_correct_resp",78.968253968254
323.0515683,0,"CH05ER25","2022_Jan_31_1041","square","speed_accuracy_first","MainTask",117,"Response","Go","speed_accuracy",1,0.306614300000547,"post_correct_resp",78.968253968254
324.1093503,0.5,"CH05ER25","2022_Jan_31_1041","square","speed_accuracy_first","MainTask",118,"Fixation","Go","speed_accuracy",1,0.293544899999688,"post_correct_resp",78.968253968254
324.5949927,0.1,"CH05ER25","2022_Jan_31_1041","square","speed_accuracy_first","MainTask",118,"Target","Go","speed_accuracy",1,0.293544899999688,"post_correct_resp",78.968253968254
324.6948836,1.19354489999969,"CH05ER25","2022_Jan_31_1041","square","speed_accuracy_first","MainTask",118,"ITI","Go","speed_accuracy",1,0.293544899999688,"post_correct_resp",78.968253968254
324.8885376,0,"CH05ER25","2022_Jan_31_1041","square","speed_accuracy_first","MainTask",118,"Response","Go","speed_accuracy",1,0.293544899999688,"post_correct_resp",78.968253968254
325.9426202,0.5,"CH05ER25","2022_Jan_31_1041","square","speed_accuracy_first","MainTask",119,"Fixation","Go","speed_accuracy",1,0.371205399999781,"post_correct_resp",78.968253968254
326.4282866,0.1,"CH05ER25","2022_Jan_31_1041","square","speed_accuracy_first","MainTask",119,"Target","Go","speed_accuracy",1,0.371205399999781,"post_correct_resp",78.968253968254
326.5282685,1.27120539999978,"CH05ER25","2022_Jan_31_1041","square","speed_accuracy_first","MainTask",119,"ITI","Go","speed_accuracy",1,0.371205399999781,"post_correct_resp",78.968253968254
326.799492,0,"CH05ER25","2022_Jan_31_1041","square","speed_accuracy_first","MainTask",119,"Response","Go","speed_accuracy",1,0.371205399999781,"post_correct_resp",78.968253968254
327.8463202,0.5,"CH05ER25","2022_Jan_31_1041","square","speed_accuracy_first","MainTask",120,"Fixation","NoGo","speed_accuracy",1,NA,"post_correct_resp",78.968253968254
328.3449289,0.1,"CH05ER25","2022_Jan_31_1041","square","speed_accuracy_first","MainTask",120,"Target","NoGo","speed_accuracy",1,NA,"post_correct_resp",78.968253968254
328.4447955,1.5,"CH05ER25","2022_Jan_31_1041","square","speed_accuracy_first","MainTask",120,"ITI","NoGo","speed_accuracy",1,NA,"post_correct_resp",78.968253968254
329.9592465,0.5,"CH05ER25","2022_Jan_31_1041","square","speed_accuracy_first","MainTask",121,"Fixation","Go","speed_accuracy",1,0.306657799999812,"post_correct_inh",78.968253968254
330.4448722,0.1,"CH05ER25","2022_Jan_31_1041","square","speed_accuracy_first","MainTask",121,"Target","Go","speed_accuracy",1,0.306657799999812,"post_correct_inh",78.968253968254
330.5449982,1.20665779999981,"CH05ER25","2022_Jan_31_1041","square","speed_accuracy_first","MainTask",121,"ITI","Go","speed_accuracy",1,0.306657799999812,"post_correct_inh",78.968253968254
330.75153,0,"CH05ER25","2022_Jan_31_1041","square","speed_accuracy_first","MainTask",121,"Response","Go","speed_accuracy",1,0.306657799999812,"post_correct_inh",78.968253968254
331.8093819,0.5,"CH05ER25","2022_Jan_31_1041","square","speed_accuracy_first","MainTask",122,"Fixation","Go","speed_accuracy",1,0.362513700000818,"post_correct_resp",78.968253968254
332.2950025,0.1,"CH05ER25","2022_Jan_31_1041","square","speed_accuracy_first","MainTask",122,"Target","Go","speed_accuracy",1,0.362513700000818,"post_correct_resp",78.968253968254
332.3949269,1.26251370000082,"CH05ER25","2022_Jan_31_1041","square","speed_accuracy_first","MainTask",122,"ITI","Go","speed_accuracy",1,0.362513700000818,"post_correct_resp",78.968253968254
332.657516200001,0,"CH05ER25","2022_Jan_31_1041","square","speed_accuracy_first","MainTask",122,"Response","Go","speed_accuracy",1,0.362513700000818,"post_correct_resp",78.968253968254
333.709494,0.5,"CH05ER25","2022_Jan_31_1041","square","speed_accuracy_first","MainTask",123,"Fixation","Go","speed_accuracy",0,NA,"post_correct_resp",78.968253968254
334.1950485,0.1,"CH05ER25","2022_Jan_31_1041","square","speed_accuracy_first","MainTask",123,"Target","Go","speed_accuracy",0,NA,"post_correct_resp",78.968253968254
334.295016,1.5,"CH05ER25","2022_Jan_31_1041","square","speed_accuracy_first","MainTask",123,"ITI","Go","speed_accuracy",0,NA,"post_correct_resp",78.968253968254
335.8094936,0.5,"CH05ER25","2022_Jan_31_1041","square","speed_accuracy_first","MainTask",124,"Fixation","Go","speed_accuracy",1,0.331022399999711,"post_error_inh",78.968253968254
336.294596,0.1,"CH05ER25","2022_Jan_31_1041","square","speed_accuracy_first","MainTask",124,"Target","Go","speed_accuracy",1,0.331022399999711,"post_error_inh",78.968253968254
336.3949849,1.23102239999971,"CH05ER25","2022_Jan_31_1041","square","speed_accuracy_first","MainTask",124,"ITI","Go","speed_accuracy",1,0.331022399999711,"post_error_inh",78.968253968254
336.625618399999,0,"CH05ER25","2022_Jan_31_1041","square","speed_accuracy_first","MainTask",124,"Response","Go","speed_accuracy",1,0.331022399999711,"post_error_inh",78.968253968254
337.6621942,0.5,"CH05ER25","2022_Jan_31_1041","square","speed_accuracy_first","MainTask",125,"Fixation","NoGo","speed_accuracy",1,NA,"post_correct_resp",78.968253968254
338.1615075,0.1,"CH05ER25","2022_Jan_31_1041","square","speed_accuracy_first","MainTask",125,"Target","NoGo","speed_accuracy",1,NA,"post_correct_resp",78.968253968254
338.2617247,1.5,"CH05ER25","2022_Jan_31_1041","square","speed_accuracy_first","MainTask",125,"ITI","NoGo","speed_accuracy",1,NA,"post_correct_resp",78.968253968254
339.7836792,30.3960766,"CH05ER25","2022_Jan_31_1041","square","speed_accuracy_first","MainTask",125,"Break",NA,NA,NA,NA,NA,78.968253968254
372.178375,0.5,"CH05ER25","2022_Jan_31_1041","square","speed_accuracy_first","MainTask",126,"Fixation","NoGo","speed_accuracy",1,NA,"post_break",78.968253968254
372.678250299999,0.1,"CH05ER25","2022_Jan_31_1041","square","speed_accuracy_first","MainTask",126,"Target","NoGo","speed_accuracy",1,NA,"post_break",78.968253968254
372.7782691,1.5,"CH05ER25","2022_Jan_31_1041","square","speed_accuracy_first","MainTask",126,"ITI","NoGo","speed_accuracy",1,NA,"post_break",78.968253968254
374.3001431,0.5,"CH05ER25","2022_Jan_31_1041","square","speed_accuracy_first","MainTask",127,"Fixation","Go","speed_accuracy",1,0.337555499999326,"post_correct_inh",78.968253968254
374.7949361,0.1,"CH05ER25","2022_Jan_31_1041","square","speed_accuracy_first","MainTask",127,"Target","Go","speed_accuracy",1,0.337555499999326,"post_correct_inh",78.968253968254
374.8947481,1.23755549999933,"CH05ER25","2022_Jan_31_1041","square","speed_accuracy_first","MainTask",127,"ITI","Go","speed_accuracy",1,0.337555499999326,"post_correct_inh",78.968253968254
375.132491599999,0,"CH05ER25","2022_Jan_31_1041","square","speed_accuracy_first","MainTask",127,"Response","Go","speed_accuracy",1,0.337555499999326,"post_correct_inh",78.968253968254
376.1927024,0.5,"CH05ER25","2022_Jan_31_1041","square","speed_accuracy_first","MainTask",128,"Fixation","Go","speed_accuracy",1,0.307150799999363,"post_correct_resp",78.968253968254
376.6783041,0.1,"CH05ER25","2022_Jan_31_1041","square","speed_accuracy_first","MainTask",128,"Target","Go","speed_accuracy",1,0.307150799999363,"post_correct_resp",78.968253968254
376.7782268,1.20715079999936,"CH05ER25","2022_Jan_31_1041","square","speed_accuracy_first","MainTask",128,"ITI","Go","speed_accuracy",1,0.307150799999363,"post_correct_resp",78.968253968254
376.985454899999,0,"CH05ER25","2022_Jan_31_1041","square","speed_accuracy_first","MainTask",128,"Response","Go","speed_accuracy",1,0.307150799999363,"post_correct_resp",78.968253968254
378.0426477,0.5,"CH05ER25","2022_Jan_31_1041","square","speed_accuracy_first","MainTask",129,"Fixation","Go","speed_accuracy",1,0.291198699999768,"post_correct_resp",78.968253968254
378.5283068,0.1,"CH05ER25","2022_Jan_31_1041","square","speed_accuracy_first","MainTask",129,"Target","Go","speed_accuracy",1,0.291198699999768,"post_correct_resp",78.968253968254
378.6282604,1.19119869999977,"CH05ER25","2022_Jan_31_1041","square","speed_accuracy_first","MainTask",129,"ITI","Go","speed_accuracy",1,0.291198699999768,"post_correct_resp",78.968253968254
378.8195055,0,"CH05ER25","2022_Jan_31_1041","square","speed_accuracy_first","MainTask",129,"Response","Go","speed_accuracy",1,0.291198699999768,"post_correct_resp",78.968253968254
379.8761886,0.5,"CH05ER25","2022_Jan_31_1041","square","speed_accuracy_first","MainTask",130,"Fixation","Go","speed_accuracy",1,0.276223699999719,"post_correct_resp",78.968253968254
380.3615694,0.1,"CH05ER25","2022_Jan_31_1041","square","speed_accuracy_first","MainTask",130,"Target","Go","speed_accuracy",1,0.276223699999719,"post_correct_resp",78.968253968254
380.461588,1.17622369999972,"CH05ER25","2022_Jan_31_1041","square","speed_accuracy_first","MainTask",130,"ITI","Go","speed_accuracy",1,0.276223699999719,"post_correct_resp",78.968253968254
380.6377931,0,"CH05ER25","2022_Jan_31_1041","square","speed_accuracy_first","MainTask",130,"Response","Go","speed_accuracy",1,0.276223699999719,"post_correct_resp",78.968253968254
381.6815452,0.5,"CH05ER25","2022_Jan_31_1041","square","speed_accuracy_first","MainTask",131,"Fixation","NoGo","speed_accuracy",1,NA,"post_correct_resp",78.968253968254
382.1779722,0.1,"CH05ER25","2022_Jan_31_1041","square","speed_accuracy_first","MainTask",131,"Target","NoGo","speed_accuracy",1,NA,"post_correct_resp",78.968253968254
382.2781564,1.5,"CH05ER25","2022_Jan_31_1041","square","speed_accuracy_first","MainTask",131,"ITI","NoGo","speed_accuracy",1,NA,"post_correct_resp",78.968253968254
383.7798037,0.5,"CH05ER25","2022_Jan_31_1041","square","speed_accuracy_first","MainTask",132,"Fixation","Go","speed_accuracy",1,0.442269099999976,"post_correct_inh",78.968253968254
384.2783296,0.1,"CH05ER25","2022_Jan_31_1041","square","speed_accuracy_first","MainTask",132,"Target","Go","speed_accuracy",1,0.442269099999976,"post_correct_inh",78.968253968254
384.3782087,1.34226909999998,"CH05ER25","2022_Jan_31_1041","square","speed_accuracy_first","MainTask",132,"ITI","Go","speed_accuracy",1,0.442269099999976,"post_correct_inh",78.968253968254
384.7205987,0,"CH05ER25","2022_Jan_31_1041","square","speed_accuracy_first","MainTask",132,"Response","Go","speed_accuracy",1,0.442269099999976,"post_correct_inh",78.968253968254
385.7760905,0.5,"CH05ER25","2022_Jan_31_1041","square","speed_accuracy_first","MainTask",133,"Fixation","Go","speed_accuracy",1,0.310907799999768,"post_correct_resp",78.968253968254
386.2616501,0.1,"CH05ER25","2022_Jan_31_1041","square","speed_accuracy_first","MainTask",133,"Target","Go","speed_accuracy",1,0.310907799999768,"post_correct_resp",78.968253968254
