Instruction_Condition,MarkCondition,Type,Letter,CorrectResponse,Condition,RandomizeBlocks.thisRepN,RandomizeBlocks.thisTrialN,RandomizeBlocks.thisN,RandomizeBlocks.thisIndex,Practice.thisRepN,Practice.thisTrialN,Practice.thisN,Practice.thisIndex,Trials.thisRepN,Trials.thisTrialN,Trials.thisN,Trials.thisIndex,Target_Mapping,Fixation_practice.started,Fixation_practice.stopped,Target_practice.started,Target_practice.stopped,Target_resp_practice.keys,Target_resp_practice.corr,Target_resp_practice.started,Target_resp_practice.stopped,ITI_resp_practice.started,ITI_resp_practice.stopped,ITI_Duration,ITI.started,ITI.stopped,square2.started,square2.stopped,Target_resp_practice.rt,Instr_Repe.started,Instr_Repe.stopped,Trigger_Target,TriggerResp,Fixation.started,Fixation.stopped,Target.started,Target.stopped,Target_resp.keys,Target_resp.corr,Target_resp.started,Target_resp.stopped,ITI_resp.started,ITI_resp.stopped,square1.started,square1.stopped,showReminder,ReminderErrors.started,ReminderErrors.stopped,ReminderErrorsResp.keys,ReminderErrorsResp.started,ReminderErrorsResp.stopped,break_block.started,break_block.stopped,break_block_resp.keys,Target_resp.rt,break_block_resp.rt,SelfReport.started,SelfReport.stopped,anxious.response,anxious.rt,peppy.response,peppy.rt,peeved.response,peeved.rt,happy.response,happy.rt,tired.response,tired.rt,relaxed.response,relaxed.rt,sad.response,sad.rt,calm.response,calm.rt,exhausted.response,exhausted.rt,irritated.response,irritated.rt,break_cond.started,break_cond.stopped,break_cond_resp.keys,break_cond_resp.rt,ReminderErrorsResp.rt,participant,session,EEGPort,LogFilesFolder,date,expName,psychopyVersion,frameRate,
DRÜCKEN SIE IM FOLGENDEN BITTE SO SCHNELL SIE KÖNNEN. BITTE ZEIGEN SIE IHRE MAXIMAL MÖGLICHE LEISTUNG!,200,NoGo,nogo,None,0,0,0,0,1,0,0,0,2,,,,,square,55.20822369999951,55.71180469999945,55.69529020000027,55.79529480000019,None,1,55.69529020000027,None,55.79529480000019,None,0.9,56.39442299999973,None,56.39442299999973,None,,,,,,,,,,,,,,,,,,,,,,,,,,,,,,,,,,,,,,,,,,,,,,,,,,,,,,,,CH05ER25,1,0x5FB8,D:\CoScience\Logfiles\,2022_Jan_31_1041,GoNoGo,2020.1.3,60.08745127663911,
DRÜCKEN SIE IM FOLGENDEN BITTE SO SCHNELL SIE KÖNNEN. BITTE ZEIGEN SIE IHRE MAXIMAL MÖGLICHE LEISTUNG!,200,Go,go,4,0,0,0,0,1,0,1,1,1,,,,,,57.30975279999984,57.811777099999745,57.795312499999454,57.895293099999435,4,1,57.795312499999454,None,57.895293099999435,None,1,58.24585200000001,None,58.24585200000001,None,0.4345879000002242,,,,,,,,,,,,,,,,,,,,,,,,,,,,,,,,,,,,,,,,,,,,,,,,,,,,,,,CH05ER25,1,0x5FB8,D:\CoScience\Logfiles\,2022_Jan_31_1041,GoNoGo,2020.1.3,60.08745127663911,
DRÜCKEN SIE IM FOLGENDEN BITTE SO SCHNELL SIE KÖNNEN. BITTE ZEIGEN SIE IHRE MAXIMAL MÖGLICHE LEISTUNG!,200,Go,go,4,0,0,0,0,1,0,2,2,1,,,,,,59.245034900000064,59.74510740000005,59.7286981999996,59.82863699999962,4,1,59.7286981999996,None,59.82863699999962,None,1,60.06194669999968,None,60.06194669999968,None,0.3170966000006956,,,,,,,,,,,,,,,,,,,,,,,,,,,,,,,,,,,,,,,,,,,,,,,,,,,,,,,CH05ER25,1,0x5FB8,D:\CoScience\Logfiles\,2022_Jan_31_1041,GoNoGo,2020.1.3,60.08745127663911,
DRÜCKEN SIE IM FOLGENDEN BITTE SO SCHNELL SIE KÖNNEN. BITTE ZEIGEN SIE IHRE MAXIMAL MÖGLICHE LEISTUNG!,200,Go,go,4,0,0,0,0,1,1,0,3,0,,,,,,61.061624400000255,61.56172450000031,61.54544029999943,61.64523519999966,4,1,61.54544029999943,None,61.64523519999966,None,1,61.894558199999665,None,61.894558199999665,None,0.3323837999996613,,,,,,,,,,,,,,,,,,,,,,,,,,,,,,,,,,,,,,,,,,,,,,,,,,,,,,,CH05ER25,1,0x5FB8,D:\CoScience\Logfiles\,2022_Jan_31_1041,GoNoGo,2020.1.3,60.08745127663911,
DRÜCKEN SIE IM FOLGENDEN BITTE SO SCHNELL SIE KÖNNEN. BITTE ZEIGEN SIE IHRE MAXIMAL MÖGLICHE LEISTUNG!,200,Go,go,4,0,0,0,0,1,1,1,4,1,,,,,,62.89488489999985,63.39517280000018,63.378638899999714,63.47856799999954,4,1,63.378638899999714,None,63.47856799999954,None,1,63.7613652,None,63.7613652,None,0.36217650000071444,,,,,,,,,,,,,,,,,,,,,,,,,,,,,,,,,,,,,,,,,,,,,,,,,,,,,,,CH05ER25,1,0x5FB8,D:\CoScience\Logfiles\,2022_Jan_31_1041,GoNoGo,2020.1.3,60.08745127663911,
DRÜCKEN SIE IM FOLGENDEN BITTE SO SCHNELL SIE KÖNNEN. BITTE ZEIGEN SIE IHRE MAXIMAL MÖGLICHE LEISTUNG!,200,Go,go,4,0,0,0,0,1,1,2,5,1,,,,,,64.76153619999968,65.26192269999956,65.24523669999962,65.34524609999971,4,1,65.24523669999962,None,65.34524609999971,None,1,65.62801969999964,None,65.62801969999964,None,0.35466730000007374,,,,,,,,,,,,,,,,,,,,,,,,,,,,,,,,,,,,,,,,,,,,,,,,,,,,,,,CH05ER25,1,0x5FB8,D:\CoScience\Logfiles\,2022_Jan_31_1041,GoNoGo,2020.1.3,60.08745127663911,
DRÜCKEN SIE IM FOLGENDEN BITTE SO SCHNELL SIE KÖNNEN. BITTE ZEIGEN SIE IHRE MAXIMAL MÖGLICHE LEISTUNG!,200,Go,go,4,0,0,0,0,1,2,0,6,1,,,,,,66.6282799999999,67.1284182999998,67.11194259999957,67.21197609999945,4,1,67.11194259999957,None,67.21197609999945,None,1,67.49463599999945,None,67.49463599999945,None,0.3671219999996538,,,,,,,,,,,,,,,,,,,,,,,,,,,,,,,,,,,,,,,,,,,,,,,,,,,,,,,CH05ER25,1,0x5FB8,D:\CoScience\Logfiles\,2022_Jan_31_1041,GoNoGo,2020.1.3,60.08745127663911,
DRÜCKEN SIE IM FOLGENDEN BITTE SO SCHNELL SIE KÖNNEN. BITTE ZEIGEN SIE IHRE MAXIMAL MÖGLICHE LEISTUNG!,200,NoGo,nogo,None,0,0,0,0,1,2,1,7,2,,,,,,68.49427159999959,68.99512460000005,68.97869119999996,69.07862810000006,None,1,68.97869119999996,None,69.07862810000006,None,0.9,69.67813659999956,None,69.67813659999956,None,,,,,,,,,,,,,,,,,,,,,,,,,,,,,,,,,,,,,,,,,,,,,,,,,,,,,,,,CH05ER25,1,0x5FB8,D:\CoScience\Logfiles\,2022_Jan_31_1041,GoNoGo,2020.1.3,60.08745127663911,
DRÜCKEN SIE IM FOLGENDEN BITTE SO SCHNELL SIE KÖNNEN. BITTE ZEIGEN SIE IHRE MAXIMAL MÖGLICHE LEISTUNG!,200,Go,go,4,0,0,0,0,1,2,2,8,0,,,,,,70.57763599999998,71.07844860000023,71.06190069999957,71.16186070000003,4,1,71.06190069999957,None,71.16186070000003,None,1,71.57900679999966,None,71.57900679999966,None,0.4899072000007436,,,,,,,,,,,,,,,,,,,,,,,,,,,,,,,,,,,,,,,,,,,,,,,,,,,,,,,CH05ER25,1,0x5FB8,D:\CoScience\Logfiles\,2022_Jan_31_1041,GoNoGo,2020.1.3,60.08745127663911,
DRÜCKEN SIE IM FOLGENDEN BITTE SO SCHNELL SIE KÖNNEN. BITTE ZEIGEN SIE IHRE MAXIMAL MÖGLICHE LEISTUNG!,200,Go,go,4,0,0,0,0,1,3,0,9,0,,,,,,72.57834559999992,73.07857309999963,73.06203300000016,73.1618724,4,1,73.06203300000016,None,73.1618724,None,1,73.42736150000019,None,73.42736150000019,None,0.3459259999999631,,,,,,,,,,,,,,,,,,,,,,,,,,,,,,,,,,,,,,,,,,,,,,,,,,,,,,,CH05ER25,1,0x5FB8,D:\CoScience\Logfiles\,2022_Jan_31_1041,GoNoGo,2020.1.3,60.08745127663911,
DRÜCKEN SIE IM FOLGENDEN BITTE SO SCHNELL SIE KÖNNEN. BITTE ZEIGEN SIE IHRE MAXIMAL MÖGLICHE LEISTUNG!,200,NoGo,nogo,None,0,0,0,0,1,3,1,10,2,,,,,,74.42720389999977,74.92860709999968,74.91200519999984,75.0116607,None,1,74.91200519999984,None,75.0116607,None,0.9,75.61149099999966,None,75.61149099999966,None,,,,,,,,,,,,,,,,,,,,,,,,,,,,,,,,,,,,,,,,,,,,,,,,,,,,,,,,CH05ER25,1,0x5FB8,D:\CoScience\Logfiles\,2022_Jan_31_1041,GoNoGo,2020.1.3,60.08745127663911,
DRÜCKEN SIE IM FOLGENDEN BITTE SO SCHNELL SIE KÖNNEN. BITTE ZEIGEN SIE IHRE MAXIMAL MÖGLICHE LEISTUNG!,200,NoGo,nogo,None,0,0,0,0,1,3,2,11,2,,,,,,76.5116208999998,77.01185669999995,76.99529910000001,77.09488559999954,None,1,76.99529910000001,None,77.09488559999954,None,0.9,77.69467009999971,None,77.69467009999971,None,,,,,,,,,,,,,,,,,,,,,,,,,,,,,,,,,,,,,,,,,,,,,,,,,,,,,,,,CH05ER25,1,0x5FB8,D:\CoScience\Logfiles\,2022_Jan_31_1041,GoNoGo,2020.1.3,60.08745127663911,
DRÜCKEN SIE IM FOLGENDEN BITTE SO SCHNELL SIE KÖNNEN. BITTE ZEIGEN SIE IHRE MAXIMAL MÖGLICHE LEISTUNG!,200,Go,go,4,0,0,0,0,1,4,0,12,0,,,,,,78.5942844000001,79.09510959999989,79.07863019999968,79.17863260000013,4,1,79.07863019999968,None,79.17863260000013,None,1,79.52836539999953,None,79.52836539999953,None,0.4233266999999614,,,,,,,,,,,,,,,,,,,,,,,,,,,,,,,,,,,,,,,,,,,,,,,,,,,,,,,CH05ER25,1,0x5FB8,D:\CoScience\Logfiles\,2022_Jan_31_1041,GoNoGo,2020.1.3,60.08745127663911,
DRÜCKEN SIE IM FOLGENDEN BITTE SO SCHNELL SIE KÖNNEN. BITTE ZEIGEN SIE IHRE MAXIMAL MÖGLICHE LEISTUNG!,200,NoGo,nogo,None,0,0,0,0,1,4,1,13,2,,,,,,80.52759799999967,81.0284644000003,81.01183769999989,81.11180719999993,None,1,81.01183769999989,None,81.11180719999993,None,0.9,81.7113816000001,None,81.7113816000001,None,,,,,,,,,,,,,,,,,,,,,,,,,,,,,,,,,,,,,,,,,,,,,,,,,,,,,,,,CH05ER25,1,0x5FB8,D:\CoScience\Logfiles\,2022_Jan_31_1041,GoNoGo,2020.1.3,60.08745127663911,
DRÜCKEN SIE IM FOLGENDEN BITTE SO SCHNELL SIE KÖNNEN. BITTE ZEIGEN SIE IHRE MAXIMAL MÖGLICHE LEISTUNG!,200,Go,go,4,0,0,0,0,1,4,2,14,0,,,,,,82.61097939999945,83.11173669999971,83.09523819999959,83.19514929999968,4,1,83.09523819999959,None,83.19514929999968,None,1,83.46119060000001,None,83.46119060000001,None,0.3426701000007597,,,,,,,,,,,,,,,,,,,,,,,,,,,,,,,,,,,,,,,,,,,,,,,,,,,,,,,CH05ER25,1,0x5FB8,D:\CoScience\Logfiles\,2022_Jan_31_1041,GoNoGo,2020.1.3,60.08745127663911,
DRÜCKEN SIE IM FOLGENDEN BITTE SO SCHNELL SIE KÖNNEN. BITTE ZEIGEN SIE IHRE MAXIMAL MÖGLICHE LEISTUNG!,200,NoGo,nogo,None,2,0,0,0,1,,,,,0,0,0,2,,,,,,,,,,,,0.9,96.16403859999991,None,96.16403859999991,None,,84.4894334999999,None,202,0,94.97329449999961,95.47831070000029,95.46181389999947,95.56197489999977,None,1,95.46181389999947,None,95.56197489999977,None,95.46181389999947,None,False,None,None,None,None,None,None,None,None,,,,,,,,,,,,,,,,,,,,,,,,,,,,,,CH05ER25,1,0x5FB8,D:\CoScience\Logfiles\,2022_Jan_31_1041,GoNoGo,2020.1.3,60.08745127663911,
DRÜCKEN SIE IM FOLGENDEN BITTE SO SCHNELL SIE KÖNNEN. BITTE ZEIGEN SIE IHRE MAXIMAL MÖGLICHE LEISTUNG!,200,Go,go,4,1,0,0,0,1,,,,,0,1,1,1,,,,,,,,,,,,1,97.93138459999955,None,97.93138459999955,None,,,,201,211,97.08994489999986,97.59505220000028,97.57863279999947,97.67841429999953,4,1,97.57863279999947,None,97.67841429999953,None,97.57863279999947,None,False,None,None,None,None,None,None,None,None,0.33415809999951307,,,,,,,,,,,,,,,,,,,,,,,,,,,,,CH05ER25,1,0x5FB8,D:\CoScience\Logfiles\,2022_Jan_31_1041,GoNoGo,2020.1.3,60.08745127663911,
DRÜCKEN SIE IM FOLGENDEN BITTE SO SCHNELL SIE KÖNNEN. BITTE ZEIGEN SIE IHRE MAXIMAL MÖGLICHE LEISTUNG!,200,NoGo,nogo,None,2,0,0,0,1,,,,,0,2,2,2,,,,,,,,,,,,0.9,100.14631009999994,None,100.14631009999994,None,,,,202,0,98.94661410000026,99.4616401000003,99.44523519999984,99.54517709999982,None,1,99.44523519999984,None,99.54517709999982,None,99.44523519999984,None,False,None,None,None,None,None,None,None,None,,,,,,,,,,,,,,,,,,,,,,,,,,,,,,CH05ER25,1,0x5FB8,D:\CoScience\Logfiles\,2022_Jan_31_1041,GoNoGo,2020.1.3,60.08745127663911,
DRÜCKEN SIE IM FOLGENDEN BITTE SO SCHNELL SIE KÖNNEN. BITTE ZEIGEN SIE IHRE MAXIMAL MÖGLICHE LEISTUNG!,200,Go,go,4,1,0,0,0,1,,,,,1,0,3,1,,,,,,,,,,,,1,101.81523370000014,None,101.81523370000014,None,,,,201,211,101.04662180000014,101.56174480000027,101.54525920000015,101.64512730000024,4,1,101.54525920000015,None,101.64512730000024,None,101.54525920000015,None,False,None,None,None,None,None,None,None,None,0.23954909999974916,,,,,,,,,,,,,,,,,,,,,,,,,,,,,CH05ER25,1,0x5FB8,D:\CoScience\Logfiles\,2022_Jan_31_1041,GoNoGo,2020.1.3,60.08745127663911,
DRÜCKEN SIE IM FOLGENDEN BITTE SO SCHNELL SIE KÖNNEN. BITTE ZEIGEN SIE IHRE MAXIMAL MÖGLICHE LEISTUNG!,200,Go,go,4,1,0,0,0,1,,,,,1,1,4,0,,,,,,,,,,,,1,103.73142649999954,None,103.73142649999954,None,,,,201,211,102.84290839999994,103.34503529999984,103.3286121000001,103.42857449999974,4,1,103.3286121000001,None,103.42857449999974,None,103.3286121000001,None,False,None,None,None,None,None,None,None,None,0.370145699999739,,,,,,,,,,,,,,,,,,,,,,,,,,,,,CH05ER25,1,0x5FB8,D:\CoScience\Logfiles\,2022_Jan_31_1041,GoNoGo,2020.1.3,60.08745127663911,
DRÜCKEN SIE IM FOLGENDEN BITTE SO SCHNELL SIE KÖNNEN. BITTE ZEIGEN SIE IHRE MAXIMAL MÖGLICHE LEISTUNG!,200,Go,go,4,1,0,0,0,1,,,,,1,2,5,1,,,,,,,,,,,,1,105.53153839999959,None,105.53153839999959,None,,,,201,211,104.75976309999987,105.26173250000011,105.24523299999964,105.34521589999986,4,1,105.24523299999964,None,105.34521589999986,None,105.24523299999964,None,False,None,None,None,None,None,None,None,None,0.2616718999997829,,,,,,,,,,,,,,,,,,,,,,,,,,,,,CH05ER25,1,0x5FB8,D:\CoScience\Logfiles\,2022_Jan_31_1041,GoNoGo,2020.1.3,60.08745127663911,
DRÜCKEN SIE IM FOLGENDEN BITTE SO SCHNELL SIE KÖNNEN. BITTE ZEIGEN SIE IHRE MAXIMAL MÖGLICHE LEISTUNG!,200,NoGo,nogo,None,2,0,0,0,1,,,,,2,0,6,2,,,,,,,,,,,,0.9,107.74652349999997,None,107.74652349999997,None,,,,202,0,106.54581570000028,107.04514370000015,107.04514370000015,107.14511949999996,None,1,107.04514370000015,None,107.14511949999996,None,107.04514370000015,None,False,None,None,None,None,None,None,None,None,,,,,,,,,,,,,,,,,,,,,,,,,,,,,,CH05ER25,1,0x5FB8,D:\CoScience\Logfiles\,2022_Jan_31_1041,GoNoGo,2020.1.3,60.08745127663911,
DRÜCKEN SIE IM FOLGENDEN BITTE SO SCHNELL SIE KÖNNEN. BITTE ZEIGEN SIE IHRE MAXIMAL MÖGLICHE LEISTUNG!,200,Go,go,4,1,0,0,0,1,,,,,2,1,7,0,,,,,,,,,,,,1,109.41535449999992,None,109.41535449999992,None,,,,201,211,108.66063740000027,109.16055359999973,109.1438892999995,109.24388790000012,4,1,109.1438892999995,None,109.24388790000012,None,109.1438892999995,None,False,None,None,None,None,None,None,None,None,0.24189469999964786,,,,,,,,,,,,,,,,,,,,,,,,,,,,,CH05ER25,1,0x5FB8,D:\CoScience\Logfiles\,2022_Jan_31_1041,GoNoGo,2020.1.3,60.08745127663911,
DRÜCKEN SIE IM FOLGENDEN BITTE SO SCHNELL SIE KÖNNEN. BITTE ZEIGEN SIE IHRE MAXIMAL MÖGLICHE LEISTUNG!,200,NoGo,nogo,None,2,0,0,0,1,,,,,2,2,8,2,,,,,,,,,,,,0.9,111.62924029999976,None,111.62924029999976,None,,,,202,0,110.42921849999948,110.92851350000001,110.92851350000001,111.0284117000001,None,1,110.92851350000001,None,111.0284117000001,None,110.92851350000001,None,False,None,None,None,None,None,None,None,None,,,,,,,,,,,,,,,,,,,,,,,,,,,,,,CH05ER25,1,0x5FB8,D:\CoScience\Logfiles\,2022_Jan_31_1041,GoNoGo,2020.1.3,60.08745127663911,
DRÜCKEN SIE IM FOLGENDEN BITTE SO SCHNELL SIE KÖNNEN. BITTE ZEIGEN SIE IHRE MAXIMAL MÖGLICHE LEISTUNG!,200,Go,go,4,1,0,0,0,1,,,,,3,0,9,0,,,,,,,,,,,,1,113.28056209999977,None,113.28056209999977,None,,,,201,211,112.52949340000032,113.02843889999986,113.02843889999986,113.1285998000003,4,1,113.02843889999986,None,113.1285998000003,None,113.02843889999986,None,False,None,None,None,None,None,None,None,None,0.23343109999950684,,,,,,,,,,,,,,,,,,,,,,,,,,,,,CH05ER25,1,0x5FB8,D:\CoScience\Logfiles\,2022_Jan_31_1041,GoNoGo,2020.1.3,60.08745127663911,
DRÜCKEN SIE IM FOLGENDEN BITTE SO SCHNELL SIE KÖNNEN. BITTE ZEIGEN SIE IHRE MAXIMAL MÖGLICHE LEISTUNG!,200,Go,go,4,1,0,0,0,1,,,,,3,1,10,1,,,,,,,,,,,,1,115.14781270000003,None,115.14781270000003,None,,,,201,211,114.30975949999993,114.81136640000022,114.79491529999996,114.89523610000015,4,1,114.79491529999996,None,114.89523610000015,None,114.79491529999996,None,False,None,None,None,None,None,None,None,None,0.32886079999934736,,,,,,,,,,,,,,,,,,,,,,,,,,,,,CH05ER25,1,0x5FB8,D:\CoScience\Logfiles\,2022_Jan_31_1041,GoNoGo,2020.1.3,60.08745127663911,
DRÜCKEN SIE IM FOLGENDEN BITTE SO SCHNELL SIE KÖNNEN. BITTE ZEIGEN SIE IHRE MAXIMAL MÖGLICHE LEISTUNG!,200,NoGo,nogo,None,2,0,0,0,1,,,,,3,2,11,2,,,,,,,,,,,,0.9,117.36282130000018,None,117.36282130000018,None,,,,202,0,116.16337550000026,116.67841820000012,116.6616670000003,116.76175739999962,None,1,116.6616670000003,None,116.76175739999962,None,116.6616670000003,None,False,None,None,None,None,None,None,None,None,,,,,,,,,,,,,,,,,,,,,,,,,,,,,,CH05ER25,1,0x5FB8,D:\CoScience\Logfiles\,2022_Jan_31_1041,GoNoGo,2020.1.3,60.08745127663911,
DRÜCKEN SIE IM FOLGENDEN BITTE SO SCHNELL SIE KÖNNEN. BITTE ZEIGEN SIE IHRE MAXIMAL MÖGLICHE LEISTUNG!,200,Go,go,4,1,0,0,0,1,,,,,4,0,12,1,,,,,,,,,,,,1,119.03110319999996,None,119.03110319999996,None,,,,201,211,118.26249899999948,118.76156859999992,118.76156859999992,118.86179670000001,4,1,118.76156859999992,None,118.86179670000001,None,118.76156859999992,None,False,None,None,None,None,None,None,None,None,0.2502355999995416,,,,,,,,,,,,,,,,,,,,,,,,,,,,,CH05ER25,1,0x5FB8,D:\CoScience\Logfiles\,2022_Jan_31_1041,GoNoGo,2020.1.3,60.08745127663911,
DRÜCKEN SIE IM FOLGENDEN BITTE SO SCHNELL SIE KÖNNEN. BITTE ZEIGEN SIE IHRE MAXIMAL MÖGLICHE LEISTUNG!,200,Go,go,4,1,0,0,0,1,,,,,4,1,13,1,,,,,,,,,,,,1,120.98180169999978,None,120.98180169999978,None,,,,201,211,120.05964669999958,120.56183479999982,120.54522199999974,120.64521239999976,4,1,120.54522199999974,None,120.64521239999976,None,120.54522199999974,None,False,None,None,None,None,None,None,None,None,0.41066159999991214,,,,,,,,,,,,,,,,,,,,,,,,,,,,,CH05ER25,1,0x5FB8,D:\CoScience\Logfiles\,2022_Jan_31_1041,GoNoGo,2020.1.3,60.08745127663911,
DRÜCKEN SIE IM FOLGENDEN BITTE SO SCHNELL SIE KÖNNEN. BITTE ZEIGEN SIE IHRE MAXIMAL MÖGLICHE LEISTUNG!,200,Go,go,4,1,0,0,0,1,,,,,4,2,14,1,,,,,,,,,,,,1,122.79862479999974,None,122.79862479999974,None,,,,201,211,122.00966019999942,122.51168770000004,122.49531209999986,122.59521459999996,4,1,122.49531209999986,None,122.59521459999996,None,122.49531209999986,None,False,None,None,None,None,None,None,None,None,0.2734800999996878,,,,,,,,,,,,,,,,,,,,,,,,,,,,,CH05ER25,1,0x5FB8,D:\CoScience\Logfiles\,2022_Jan_31_1041,GoNoGo,2020.1.3,60.08745127663911,
DRÜCKEN SIE IM FOLGENDEN BITTE SO SCHNELL SIE KÖNNEN. BITTE ZEIGEN SIE IHRE MAXIMAL MÖGLICHE LEISTUNG!,200,NoGo,nogo,None,2,0,0,0,1,,,,,5,0,15,2,,,,,,,,,,,,0.9,125.01280959999985,None,125.01280959999985,None,,,,202,0,123.81254369999988,124.31187069999942,124.31187069999942,124.41182529999969,None,1,124.31187069999942,None,124.41182529999969,None,124.31187069999942,None,False,None,None,None,None,None,None,None,None,,,,,,,,,,,,,,,,,,,,,,,,,,,,,,CH05ER25,1,0x5FB8,D:\CoScience\Logfiles\,2022_Jan_31_1041,GoNoGo,2020.1.3,60.08745127663911,
DRÜCKEN SIE IM FOLGENDEN BITTE SO SCHNELL SIE KÖNNEN. BITTE ZEIGEN SIE IHRE MAXIMAL MÖGLICHE LEISTUNG!,200,Go,go,4,1,0,0,0,1,,,,,5,1,16,1,,,,,,,,,,,,1,126.81475909999972,None,126.81475909999972,None,,,,201,211,125.91272690000005,126.4118939,126.4118939,126.51179520000005,4,1,126.4118939,None,126.51179520000005,None,126.4118939,None,False,None,None,None,None,None,None,None,None,0.3808119000004808,,,,,,,,,,,,,,,,,,,,,,,,,,,,,CH05ER25,1,0x5FB8,D:\CoScience\Logfiles\,2022_Jan_31_1041,GoNoGo,2020.1.3,60.08745127663911,
DRÜCKEN SIE IM FOLGENDEN BITTE SO SCHNELL SIE KÖNNEN. BITTE ZEIGEN SIE IHRE MAXIMAL MÖGLICHE LEISTUNG!,200,Go,go,4,1,0,0,0,1,,,,,5,2,17,1,,,,,,,,,,,,1,128.68132890000015,None,128.68132890000015,None,,,,201,211,127.84301830000004,128.34451079999963,128.3283277999999,128.42786199999955,4,1,128.3283277999999,None,128.42786199999955,None,128.3283277999999,None,False,None,None,None,None,None,None,None,None,0.33444890000009764,,,,,,,,,,,,,,,,,,,,,,,,,,,,,CH05ER25,1,0x5FB8,D:\CoScience\Logfiles\,2022_Jan_31_1041,GoNoGo,2020.1.3,60.08745127663911,
DRÜCKEN SIE IM FOLGENDEN BITTE SO SCHNELL SIE KÖNNEN. BITTE ZEIGEN SIE IHRE MAXIMAL MÖGLICHE LEISTUNG!,200,NoGo,nogo,None,2,0,0,0,1,,,,,6,0,18,2,,,,,,,,,,,,0.9,130.8958974999996,None,130.8958974999996,None,,,,202,0,129.69587349999983,130.19507819999944,130.19507819999944,130.29515840000022,None,1,130.19507819999944,None,130.29515840000022,None,130.19507819999944,None,False,None,None,None,None,None,None,None,None,,,,,,,,,,,,,,,,,,,,,,,,,,,,,,CH05ER25,1,0x5FB8,D:\CoScience\Logfiles\,2022_Jan_31_1041,GoNoGo,2020.1.3,60.08745127663911,
DRÜCKEN SIE IM FOLGENDEN BITTE SO SCHNELL SIE KÖNNEN. BITTE ZEIGEN SIE IHRE MAXIMAL MÖGLICHE LEISTUNG!,200,Go,go,4,1,0,0,0,1,,,,,6,1,19,0,,,,,,,,,,,,1,132.68156439999984,None,132.68156439999984,None,,,,201,211,131.79654169999958,132.31158940000023,132.29502969999976,132.39515089999986,4,1,132.29502969999976,None,132.39515089999986,None,132.29502969999976,None,False,None,None,None,None,None,None,None,None,0.3599441999995179,,,,,,,,,,,,,,,,,,,,,,,,,,,,,CH05ER25,1,0x5FB8,D:\CoScience\Logfiles\,2022_Jan_31_1041,GoNoGo,2020.1.3,60.08745127663911,
DRÜCKEN SIE IM FOLGENDEN BITTE SO SCHNELL SIE KÖNNEN. BITTE ZEIGEN SIE IHRE MAXIMAL MÖGLICHE LEISTUNG!,200,Go,go,4,1,0,0,0,1,,,,,6,2,20,1,,,,,,,,,,,,1,134.54860860000008,None,134.54860860000008,None,,,,201,211,133.7095736000001,134.21154990000014,134.19523479999953,134.29524409999976,4,1,134.19523479999953,None,134.29524409999976,None,134.19523479999953,None,False,None,None,None,None,None,None,None,None,0.3315290000000459,,,,,,,,,,,,,,,,,,,,,,,,,,,,,CH05ER25,1,0x5FB8,D:\CoScience\Logfiles\,2022_Jan_31_1041,GoNoGo,2020.1.3,60.08745127663911,
DRÜCKEN SIE IM FOLGENDEN BITTE SO SCHNELL SIE KÖNNEN. BITTE ZEIGEN SIE IHRE MAXIMAL MÖGLICHE LEISTUNG!,200,Go,go,4,1,0,0,0,1,,,,,7,0,21,1,,,,,,,,,,,,1,136.43198310000025,None,136.43198310000025,None,,,,201,211,135.57628899999963,136.07846150000023,136.061909,136.16165219999948,4,1,136.061909,None,136.16165219999948,None,136.061909,None,False,None,None,None,None,None,None,None,None,0.3458755999999994,,,,,,,,,,,,,,,,,,,,,,,,,,,,,CH05ER25,1,0x5FB8,D:\CoScience\Logfiles\,2022_Jan_31_1041,GoNoGo,2020.1.3,60.08745127663911,
DRÜCKEN SIE IM FOLGENDEN BITTE SO SCHNELL SIE KÖNNEN. BITTE ZEIGEN SIE IHRE MAXIMAL MÖGLICHE LEISTUNG!,200,Go,go,4,1,0,0,0,1,,,,,7,1,22,0,,,,,,,,,,,,1,138.34741029999986,None,138.34741029999986,None,,,,201,211,137.45960019999984,137.96177910000006,137.94518770000013,138.04516609999973,4,1,137.94518770000013,None,138.04516609999973,None,137.94518770000013,None,False,None,None,None,None,None,None,None,None,0.3768128000001525,,,,,,,,,,,,,,,,,,,,,,,,,,,,,CH05ER25,1,0x5FB8,D:\CoScience\Logfiles\,2022_Jan_31_1041,GoNoGo,2020.1.3,60.08745127663911,
DRÜCKEN SIE IM FOLGENDEN BITTE SO SCHNELL SIE KÖNNEN. BITTE ZEIGEN SIE IHRE MAXIMAL MÖGLICHE LEISTUNG!,200,Go,go,4,1,0,0,0,1,,,,,7,2,23,1,,,,,,,,,,,,1,140.2315421000003,None,140.2315421000003,None,,,,201,211,139.3759844999995,139.8784373999997,139.86182869999993,139.96192580000024,4,1,139.86182869999993,None,139.96192580000024,None,139.86182869999993,None,False,None,None,None,None,None,None,None,None,0.3459316000007675,,,,,,,,,,,,,,,,,,,,,,,,,,,,,CH05ER25,1,0x5FB8,D:\CoScience\Logfiles\,2022_Jan_31_1041,GoNoGo,2020.1.3,60.08745127663911,
DRÜCKEN SIE IM FOLGENDEN BITTE SO SCHNELL SIE KÖNNEN. BITTE ZEIGEN SIE IHRE MAXIMAL MÖGLICHE LEISTUNG!,200,NoGo,nogo,None,2,0,0,0,1,,,,,8,0,24,2,,,,,,,,,,,,0.9,142.44586439999966,None,142.44586439999966,None,,,,202,0,141.2467305,141.76182859999972,141.74497969999993,141.84516129999975,None,1,141.74497969999993,None,141.84516129999975,None,141.74497969999993,None,False,None,None,None,None,None,None,None,None,,,,,,,,,,,,,,,,,,,,,,,,,,,,,,CH05ER25,1,0x5FB8,D:\CoScience\Logfiles\,2022_Jan_31_1041,GoNoGo,2020.1.3,60.08745127663911,
DRÜCKEN SIE IM FOLGENDEN BITTE SO SCHNELL SIE KÖNNEN. BITTE ZEIGEN SIE IHRE MAXIMAL MÖGLICHE LEISTUNG!,200,Go,go,4,1,0,0,0,1,,,,,8,1,25,0,,,,,,,,,,,,1,144.31420230000003,None,144.31420230000003,None,,,,201,211,143.34653919999982,143.86169869999958,143.84518239999943,143.94502659999944,4,1,143.84518239999943,None,143.94502659999944,None,143.84518239999943,None,False,None,None,None,None,None,None,None,None,0.442638800000168,,,,,,,,,,,,,,,,,,,,,,,,,,,,,CH05ER25,1,0x5FB8,D:\CoScience\Logfiles\,2022_Jan_31_1041,GoNoGo,2020.1.3,60.08745127663911,
DRÜCKEN SIE IM FOLGENDEN BITTE SO SCHNELL SIE KÖNNEN. BITTE ZEIGEN SIE IHRE MAXIMAL MÖGLICHE LEISTUNG!,200,Go,go,4,1,0,0,0,1,,,,,8,2,26,1,,,,,,,,,,,,1,146.15086599999995,None,146.15086599999995,None,,,,201,211,145.3428441999995,145.84504000000015,145.8285122999996,145.92851539999992,4,1,145.8285122999996,None,145.92851539999992,None,145.8285122999996,None,False,None,None,None,None,None,None,None,None,0.295236400000249,,,,,,,,,,,,,,,,,,,,,,,,,,,,,CH05ER25,1,0x5FB8,D:\CoScience\Logfiles\,2022_Jan_31_1041,GoNoGo,2020.1.3,60.08745127663911,
DRÜCKEN SIE IM FOLGENDEN BITTE SO SCHNELL SIE KÖNNEN. BITTE ZEIGEN SIE IHRE MAXIMAL MÖGLICHE LEISTUNG!,200,Go,go,4,1,0,0,0,1,,,,,9,0,27,1,,,,,,,,,,,,1,147.9812251000003,None,147.9812251000003,None,,,,201,211,147.17620559999978,147.6779336999998,147.66177210000023,147.76172810000025,4,1,147.66177210000023,None,147.76172810000025,None,147.66177210000023,None,False,None,None,None,None,None,None,None,None,0.2859445999993113,,,,,,,,,,,,,,,,,,,,,,,,,,,,,CH05ER25,1,0x5FB8,D:\CoScience\Logfiles\,2022_Jan_31_1041,GoNoGo,2020.1.3,60.08745127663911,
DRÜCKEN SIE IM FOLGENDEN BITTE SO SCHNELL SIE KÖNNEN. BITTE ZEIGEN SIE IHRE MAXIMAL MÖGLICHE LEISTUNG!,200,Go,go,4,1,0,0,0,1,,,,,9,1,28,1,,,,,,,,,,,,1,149.84872449999966,None,149.84872449999966,None,,,,201,211,149.00946229999954,149.51173569999992,149.49517639999976,149.59475759999987,4,1,149.49517639999976,None,149.59475759999987,None,149.49517639999976,None,False,None,None,None,None,None,None,None,None,0.3226942000001145,,,,,,,,,,,,,,,,,,,,,,,,,,,,,CH05ER25,1,0x5FB8,D:\CoScience\Logfiles\,2022_Jan_31_1041,GoNoGo,2020.1.3,60.08745127663911,
DRÜCKEN SIE IM FOLGENDEN BITTE SO SCHNELL SIE KÖNNEN. BITTE ZEIGEN SIE IHRE MAXIMAL MÖGLICHE LEISTUNG!,200,Go,go,4,1,0,0,0,1,,,,,9,2,29,0,,,,,,,,,,,,1,151.73117249999996,None,151.73117249999996,None,,,,201,211,150.87626219999947,151.37835929999983,151.36174709999977,151.4617760000001,4,1,151.36174709999977,None,151.4617760000001,None,151.36174709999977,None,False,None,None,None,None,None,None,None,None,0.33696229999986826,,,,,,,,,,,,,,,,,,,,,,,,,,,,,CH05ER25,1,0x5FB8,D:\CoScience\Logfiles\,2022_Jan_31_1041,GoNoGo,2020.1.3,60.08745127663911,
DRÜCKEN SIE IM FOLGENDEN BITTE SO SCHNELL SIE KÖNNEN. BITTE ZEIGEN SIE IHRE MAXIMAL MÖGLICHE LEISTUNG!,200,NoGo,nogo,None,2,0,0,0,1,,,,,10,0,30,2,,,,,,,,,,,,1,153.5815047999995,None,153.5815047999995,None,,,,202,220,152.74597360000007,153.24517920000017,153.24517920000017,153.34520599999996,4,0,153.24517920000017,None,153.34520599999996,None,153.24517920000017,None,False,None,None,None,None,None,None,None,None,0.31654950000029203,,,,,,,,,,,,,,,,,,,,,,,,,,,,,CH05ER25,1,0x5FB8,D:\CoScience\Logfiles\,2022_Jan_31_1041,GoNoGo,2020.1.3,60.08745127663911,
DRÜCKEN SIE IM FOLGENDEN BITTE SO SCHNELL SIE KÖNNEN. BITTE ZEIGEN SIE IHRE MAXIMAL MÖGLICHE LEISTUNG!,200,Go,go,4,1,0,0,0,1,,,,,10,1,31,0,,,,,,,,,,,,1,155.5640358999999,None,155.5640358999999,None,,,,201,211,154.59575829999994,155.09528880000016,155.09528880000016,155.19527199999993,4,1,155.09528880000016,None,155.19527199999993,None,155.09528880000016,None,False,None,None,None,None,None,None,None,None,0.43541819999973086,,,,,,,,,,,,,,,,,,,,,,,,,,,,,CH05ER25,1,0x5FB8,D:\CoScience\Logfiles\,2022_Jan_31_1041,GoNoGo,2020.1.3,60.08745127663911,
DRÜCKEN SIE IM FOLGENDEN BITTE SO SCHNELL SIE KÖNNEN. BITTE ZEIGEN SIE IHRE MAXIMAL MÖGLICHE LEISTUNG!,200,Go,go,4,1,0,0,0,1,,,,,10,2,32,0,,,,,,,,,,,,1,157.46485200000006,None,157.46485200000006,None,,,,201,211,156.59297220000008,157.0950088999998,157.078528,157.17844460000015,4,1,157.078528,None,157.17844460000015,None,157.078528,None,False,None,None,None,None,None,None,None,None,0.3561774999998306,,,,,,,,,,,,,,,,,,,,,,,,,,,,,CH05ER25,1,0x5FB8,D:\CoScience\Logfiles\,2022_Jan_31_1041,GoNoGo,2020.1.3,60.08745127663911,
DRÜCKEN SIE IM FOLGENDEN BITTE SO SCHNELL SIE KÖNNEN. BITTE ZEIGEN SIE IHRE MAXIMAL MÖGLICHE LEISTUNG!,200,Go,go,4,1,0,0,0,1,,,,,11,0,33,0,,,,,,,,,,,,1,159.28134069999942,None,159.28134069999942,None,,,,201,211,158.49285340000006,158.99469119999958,158.97804629999973,159.07849459999943,4,1,158.97804629999973,None,159.07849459999943,None,158.97804629999973,None,False,None,None,None,None,None,None,None,None,0.28167260000009264,,,,,,,,,,,,,,,,,,,,,,,,,,,,,CH05ER25,1,0x5FB8,D:\CoScience\Logfiles\,2022_Jan_31_1041,GoNoGo,2020.1.3,60.08745127663911,
DRÜCKEN SIE IM FOLGENDEN BITTE SO SCHNELL SIE KÖNNEN. BITTE ZEIGEN SIE IHRE MAXIMAL MÖGLICHE LEISTUNG!,200,NoGo,nogo,None,2,0,0,0,1,,,,,11,1,34,2,,,,,,,,,,,,0.9,161.49573640000017,None,161.49573640000017,None,,,,202,0,160.29523599999993,160.79503980000027,160.79503980000027,160.89510789999986,None,1,160.79503980000027,None,160.89510789999986,None,160.79503980000027,None,False,None,None,None,None,None,None,None,None,,,,,,,,,,,,,,,,,,,,,,,,,,,,,,CH05ER25,1,0x5FB8,D:\CoScience\Logfiles\,2022_Jan_31_1041,GoNoGo,2020.1.3,60.08745127663911,
DRÜCKEN SIE IM FOLGENDEN BITTE SO SCHNELL SIE KÖNNEN. BITTE ZEIGEN SIE IHRE MAXIMAL MÖGLICHE LEISTUNG!,200,Go,go,4,1,0,0,0,1,,,,,11,2,35,1,,,,,,,,,,,,1,163.2314078999998,None,163.2314078999998,None,,,,201,211,162.39578950000032,162.89474340000015,162.89474340000015,162.9950871000001,4,1,162.89474340000015,None,162.9950871000001,None,162.89474340000015,None,False,None,None,None,None,None,None,None,None,0.3019250999996075,,,,,,,,,,,,,,,,,,,,,,,,,,,,,CH05ER25,1,0x5FB8,D:\CoScience\Logfiles\,2022_Jan_31_1041,GoNoGo,2020.1.3,60.08745127663911,
DRÜCKEN SIE IM FOLGENDEN BITTE SO SCHNELL SIE KÖNNEN. BITTE ZEIGEN SIE IHRE MAXIMAL MÖGLICHE LEISTUNG!,200,Go,go,4,1,0,0,0,1,,,,,12,0,36,1,,,,,,,,,,,,1,165.11794829999963,None,165.11794829999963,None,,,,201,211,164.25954769999953,164.76172979999956,164.74522230000002,164.84515399999964,4,1,164.74522230000002,None,164.84515399999964,None,164.74522230000002,None,False,None,None,None,None,None,None,None,None,0.34678639999947336,,,,,,,,,,,,,,,,,,,,,,,,,,,,,CH05ER25,1,0x5FB8,D:\CoScience\Logfiles\,2022_Jan_31_1041,GoNoGo,2020.1.3,60.08745127663911,
DRÜCKEN SIE IM FOLGENDEN BITTE SO SCHNELL SIE KÖNNEN. BITTE ZEIGEN SIE IHRE MAXIMAL MÖGLICHE LEISTUNG!,200,NoGo,nogo,None,2,0,0,0,1,,,,,12,1,37,2,,,,,,,,,,,,0.9,167.32930269999997,None,167.32930269999997,None,,,,202,0,166.1299487999995,166.64495280000028,166.6283315999999,166.7284469999995,None,1,166.6283315999999,None,166.7284469999995,None,166.6283315999999,None,False,None,None,None,None,None,None,None,None,,,,,,,,,,,,,,,,,,,,,,,,,,,,,,CH05ER25,1,0x5FB8,D:\CoScience\Logfiles\,2022_Jan_31_1041,GoNoGo,2020.1.3,60.08745127663911,
DRÜCKEN SIE IM FOLGENDEN BITTE SO SCHNELL SIE KÖNNEN. BITTE ZEIGEN SIE IHRE MAXIMAL MÖGLICHE LEISTUNG!,200,Go,go,4,1,0,0,0,1,,,,,12,2,38,1,,,,,,,,,,,,1,169.050843,None,169.050843,None,,,,201,211,168.22925979999945,168.72851029999947,168.72851029999947,168.82845219999945,4,1,168.72851029999947,None,168.82845219999945,None,168.72851029999947,None,False,None,None,None,None,None,None,None,None,0.2901846000004298,,,,,,,,,,,,,,,,,,,,,,,,,,,,,CH05ER25,1,0x5FB8,D:\CoScience\Logfiles\,2022_Jan_31_1041,GoNoGo,2020.1.3,60.08745127663911,
DRÜCKEN SIE IM FOLGENDEN BITTE SO SCHNELL SIE KÖNNEN. BITTE ZEIGEN SIE IHRE MAXIMAL MÖGLICHE LEISTUNG!,200,Go,go,4,1,0,0,0,1,,,,,13,0,39,0,,,,,,,,,,,,1,170.89803609999944,None,170.89803609999944,None,,,,201,211,170.0762004999997,170.57829459999994,170.5619004,170.66170109999985,4,1,170.5619004,None,170.66170109999985,None,170.5619004,None,False,None,None,None,None,None,None,None,None,0.30476769999950193,,,,,,,,,,,,,,,,,,,,,,,,,,,,,CH05ER25,1,0x5FB8,D:\CoScience\Logfiles\,2022_Jan_31_1041,GoNoGo,2020.1.3,60.08745127663911,
DRÜCKEN SIE IM FOLGENDEN BITTE SO SCHNELL SIE KÖNNEN. BITTE ZEIGEN SIE IHRE MAXIMAL MÖGLICHE LEISTUNG!,200,Go,go,4,1,0,0,0,1,,,,,13,1,40,1,,,,,,,,,,,,1,172.78198780000002,None,172.78198780000002,None,,,,201,211,171.9261789000002,172.42839120000008,172.4117752000002,172.51169279999976,4,1,172.4117752000002,None,172.51169279999976,None,172.4117752000002,None,False,None,None,None,None,None,None,None,None,0.3475569000001997,,,,,,,,,,,,,,,,,,,,,,,,,,,,,CH05ER25,1,0x5FB8,D:\CoScience\Logfiles\,2022_Jan_31_1041,GoNoGo,2020.1.3,60.08745127663911,
DRÜCKEN SIE IM FOLGENDEN BITTE SO SCHNELL SIE KÖNNEN. BITTE ZEIGEN SIE IHRE MAXIMAL MÖGLICHE LEISTUNG!,200,Go,go,4,1,0,0,0,1,,,,,13,2,41,1,,,,,,,,,,,,1,174.7147944999997,None,174.7147944999997,None,,,,201,211,173.80963989999964,174.31164869999975,174.29517020000003,174.3951807000003,4,1,174.29517020000003,None,174.3951807000003,None,174.29517020000003,None,False,None,None,None,None,None,None,None,None,0.3956527999998798,,,,,,,,,,,,,,,,,,,,,,,,,,,,,CH05ER25,1,0x5FB8,D:\CoScience\Logfiles\,2022_Jan_31_1041,GoNoGo,2020.1.3,60.08745127663911,
DRÜCKEN SIE IM FOLGENDEN BITTE SO SCHNELL SIE KÖNNEN. BITTE ZEIGEN SIE IHRE MAXIMAL MÖGLICHE LEISTUNG!,200,Go,go,4,1,0,0,0,1,,,,,14,0,42,1,,,,,,,,,,,,1,176.66431620000003,None,176.66431620000003,None,,,,201,211,175.74286519999987,176.24509099999977,176.22844259999965,176.32846270000027,4,1,176.22844259999965,None,176.32846270000027,None,176.22844259999965,None,False,None,None,None,None,None,None,None,None,0.4122532000001229,,,,,,,,,,,,,,,,,,,,,,,,,,,,,CH05ER25,1,0x5FB8,D:\CoScience\Logfiles\,2022_Jan_31_1041,GoNoGo,2020.1.3,60.08745127663911,
DRÜCKEN SIE IM FOLGENDEN BITTE SO SCHNELL SIE KÖNNEN. BITTE ZEIGEN SIE IHRE MAXIMAL MÖGLICHE LEISTUNG!,200,NoGo,nogo,None,2,0,0,0,1,,,,,14,1,43,2,,,,,,,,,,,,1,178.51501910000025,None,178.51501910000025,None,,,,202,220,177.67975089999982,178.19498139999996,178.1784117999996,178.2783472000001,4,0,178.1784117999996,None,178.2783472000001,None,178.1784117999996,None,False,None,None,None,None,None,None,None,None,0.30726749999939784,,,,,,,,,,,,,,,,,,,,,,,,,,,,,CH05ER25,1,0x5FB8,D:\CoScience\Logfiles\,2022_Jan_31_1041,GoNoGo,2020.1.3,60.08745127663911,
DRÜCKEN SIE IM FOLGENDEN BITTE SO SCHNELL SIE KÖNNEN. BITTE ZEIGEN SIE IHRE MAXIMAL MÖGLICHE LEISTUNG!,200,Go,go,4,1,0,0,0,1,,,,,14,2,44,0,,,,,,,,,,,,1,180.43101529999967,None,180.43101529999967,None,,,,201,211,179.5425433999999,180.04483609999988,180.0285514999996,180.12859649999973,4,1,180.0285514999996,None,180.12859649999973,None,180.0285514999996,None,False,None,None,None,None,None,None,None,None,0.38432150000062393,,,,,,,,,,,,,,,,,,,,,,,,,,,,,CH05ER25,1,0x5FB8,D:\CoScience\Logfiles\,2022_Jan_31_1041,GoNoGo,2020.1.3,60.08745127663911,
DRÜCKEN SIE IM FOLGENDEN BITTE SO SCHNELL SIE KÖNNEN. BITTE ZEIGEN SIE IHRE MAXIMAL MÖGLICHE LEISTUNG!,200,Go,go,4,1,0,0,0,1,,,,,15,0,45,0,,,,,,,,,,,,1,182.3840885999998,None,182.3840885999998,None,,,,201,211,181.4596120999995,181.96166379999977,181.94513370000004,182.04504350000025,4,1,181.94513370000004,None,182.04504350000025,None,181.94513370000004,None,False,None,None,None,None,None,None,None,None,0.4117972000003647,,,,,,,,,,,,,,,,,,,,,,,,,,,,,CH05ER25,1,0x5FB8,D:\CoScience\Logfiles\,2022_Jan_31_1041,GoNoGo,2020.1.3,60.08745127663911,
DRÜCKEN SIE IM FOLGENDEN BITTE SO SCHNELL SIE KÖNNEN. BITTE ZEIGEN SIE IHRE MAXIMAL MÖGLICHE LEISTUNG!,200,Go,go,4,1,0,0,0,1,,,,,15,1,46,1,,,,,,,,,,,,1,184.3479602999996,None,184.3479602999996,None,,,,201,211,183.40941829999974,183.91145649999999,183.89514280000003,183.99503069999992,4,1,183.89514280000003,None,183.99503069999992,None,183.89514280000003,None,False,None,None,None,None,None,None,None,None,0.41960180000023684,,,,,,,,,,,,,,,,,,,,,,,,,,,,,CH05ER25,1,0x5FB8,D:\CoScience\Logfiles\,2022_Jan_31_1041,GoNoGo,2020.1.3,60.08745127663911,
DRÜCKEN SIE IM FOLGENDEN BITTE SO SCHNELL SIE KÖNNEN. BITTE ZEIGEN SIE IHRE MAXIMAL MÖGLICHE LEISTUNG!,200,Go,go,4,1,0,0,0,1,,,,,15,2,47,1,,,,,,,,,,,,1,186.18393250000008,None,186.18393250000008,None,,,,201,211,185.3761414999999,185.87825040000007,185.86190590000024,185.96182229999977,4,1,185.86190590000024,None,185.96182229999977,None,185.86190590000024,None,False,None,None,None,None,None,None,None,None,0.2977722999994512,,,,,,,,,,,,,,,,,,,,,,,,,,,,,CH05ER25,1,0x5FB8,D:\CoScience\Logfiles\,2022_Jan_31_1041,GoNoGo,2020.1.3,60.08745127663911,
DRÜCKEN SIE IM FOLGENDEN BITTE SO SCHNELL SIE KÖNNEN. BITTE ZEIGEN SIE IHRE MAXIMAL MÖGLICHE LEISTUNG!,200,Go,go,4,1,0,0,0,1,,,,,16,0,48,0,,,,,,,,,,,,1,188.04850830000032,None,188.04850830000032,None,,,,201,211,187.20933199999945,187.71154839999963,187.69503559999976,187.79513169999973,4,1,187.69503559999976,None,187.79513169999973,None,187.69503559999976,None,False,None,None,None,None,None,None,None,None,0.33061999999972613,,,,,,,,,,,,,,,,,,,,,,,,,,,,,CH05ER25,1,0x5FB8,D:\CoScience\Logfiles\,2022_Jan_31_1041,GoNoGo,2020.1.3,60.08745127663911,
DRÜCKEN SIE IM FOLGENDEN BITTE SO SCHNELL SIE KÖNNEN. BITTE ZEIGEN SIE IHRE MAXIMAL MÖGLICHE LEISTUNG!,200,Go,go,4,1,0,0,0,1,,,,,16,1,49,1,,,,,,,,,,,,1,189.93197689999943,None,189.93197689999943,None,,,,201,211,189.0763449999995,189.57820989999982,189.56185649999952,189.66162189999977,4,1,189.56185649999952,None,189.66162189999977,None,189.56185649999952,None,False,None,None,None,None,None,None,None,None,0.3358373999999458,,,,,,,,,,,,,,,,,,,,,,,,,,,,,CH05ER25,1,0x5FB8,D:\CoScience\Logfiles\,2022_Jan_31_1041,GoNoGo,2020.1.3,60.08745127663911,
DRÜCKEN SIE IM FOLGENDEN BITTE SO SCHNELL SIE KÖNNEN. BITTE ZEIGEN SIE IHRE MAXIMAL MÖGLICHE LEISTUNG!,200,Go,go,4,1,0,0,0,1,,,,,16,2,50,0,,,,,,,,,,,,1,191.78121569999985,None,191.78121569999985,None,,,,201,211,190.94578099999944,191.44508049999968,191.44508049999968,191.5450407999997,4,1,191.44508049999968,None,191.5450407999997,None,191.44508049999968,None,False,None,None,None,None,None,None,None,None,0.31675820000054955,,,,,,,,,,,,,,,,,,,,,,,,,,,,,CH05ER25,1,0x5FB8,D:\CoScience\Logfiles\,2022_Jan_31_1041,GoNoGo,2020.1.3,60.08745127663911,
DRÜCKEN SIE IM FOLGENDEN BITTE SO SCHNELL SIE KÖNNEN. BITTE ZEIGEN SIE IHRE MAXIMAL MÖGLICHE LEISTUNG!,200,Go,go,4,1,0,0,0,1,,,,,17,0,51,1,,,,,,,,,,,,1,193.61732089999987,None,193.61732089999987,None,,,,201,211,192.80952640000032,193.31170229999952,193.29510349999964,193.39502449999964,4,1,193.29510349999964,None,193.39502449999964,None,193.29510349999964,None,False,None,None,None,None,None,None,None,None,0.30052580000028684,,,,,,,,,,,,,,,,,,,,,,,,,,,,,CH05ER25,1,0x5FB8,D:\CoScience\Logfiles\,2022_Jan_31_1041,GoNoGo,2020.1.3,60.08745127663911,
DRÜCKEN SIE IM FOLGENDEN BITTE SO SCHNELL SIE KÖNNEN. BITTE ZEIGEN SIE IHRE MAXIMAL MÖGLICHE LEISTUNG!,200,NoGo,nogo,None,2,0,0,0,1,,,,,17,1,52,2,,,,,,,,,,,,1,195.4152011999995,None,195.4152011999995,None,,,,202,220,194.62917759999982,195.1285952999997,195.1285952999997,195.22852570000032,4,0,195.1285952999997,None,195.22852570000032,None,195.1285952999997,None,False,None,None,None,None,None,None,None,None,0.2650875999997879,,,,,,,,,,,,,,,,,,,,,,,,,,,,,CH05ER25,1,0x5FB8,D:\CoScience\Logfiles\,2022_Jan_31_1041,GoNoGo,2020.1.3,60.08745127663911,
DRÜCKEN SIE IM FOLGENDEN BITTE SO SCHNELL SIE KÖNNEN. BITTE ZEIGEN SIE IHRE MAXIMAL MÖGLICHE LEISTUNG!,200,Go,go,4,1,0,0,0,1,,,,,17,2,53,0,,,,,,,,,,,,1,197.41394369999944,None,197.41394369999944,None,,,,201,211,196.42910909999955,196.92843410000023,196.92843410000023,197.02846489999956,4,1,196.92843410000023,None,197.02846489999956,None,196.92843410000023,None,False,None,None,None,None,None,None,None,None,0.46719130000019504,,,,,,,,,,,,,,,,,,,,,,,,,,,,,CH05ER25,1,0x5FB8,D:\CoScience\Logfiles\,2022_Jan_31_1041,GoNoGo,2020.1.3,60.08745127663911,
DRÜCKEN SIE IM FOLGENDEN BITTE SO SCHNELL SIE KÖNNEN. BITTE ZEIGEN SIE IHRE MAXIMAL MÖGLICHE LEISTUNG!,200,Go,go,4,1,0,0,0,1,,,,,18,0,54,0,,,,,,,,,,,,1,199.31497209999998,None,199.31497209999998,None,,,,201,211,198.4429567999996,198.94487310000022,198.9284533,199.02844350000032,4,1,198.9284533,None,199.02844350000032,None,198.9284533,None,False,None,None,None,None,None,None,None,None,0.36028040000019246,,,,,,,,,,,,,,,,,,,,,,,,,,,,,CH05ER25,1,0x5FB8,D:\CoScience\Logfiles\,2022_Jan_31_1041,GoNoGo,2020.1.3,60.08745127663911,
DRÜCKEN SIE IM FOLGENDEN BITTE SO SCHNELL SIE KÖNNEN. BITTE ZEIGEN SIE IHRE MAXIMAL MÖGLICHE LEISTUNG!,200,Go,go,4,1,0,0,0,1,,,,,18,1,55,1,,,,,,,,,,,,1,201.18102129999988,None,201.18102129999988,None,,,,201,211,200.34282019999955,200.84502280000015,200.82841569999982,200.92834870000024,4,1,200.82841569999982,None,200.92834870000024,None,200.82841569999982,None,False,None,None,None,None,None,None,None,None,0.3322644999998374,,,,,,,,,,,,,,,,,,,,,,,,,,,,,CH05ER25,1,0x5FB8,D:\CoScience\Logfiles\,2022_Jan_31_1041,GoNoGo,2020.1.3,60.08745127663911,
DRÜCKEN SIE IM FOLGENDEN BITTE SO SCHNELL SIE KÖNNEN. BITTE ZEIGEN SIE IHRE MAXIMAL MÖGLICHE LEISTUNG!,200,NoGo,nogo,None,2,0,0,0,1,,,,,18,2,56,2,,,,,,,,,,,,0.9,203.39566809999997,None,203.39566809999997,None,,,,202,0,202.19572119999975,202.69515169999977,202.69515169999977,202.79507569999987,None,1,202.69515169999977,None,202.79507569999987,None,202.69515169999977,None,False,None,None,None,None,None,None,None,None,,,,,,,,,,,,,,,,,,,,,,,,,,,,,,CH05ER25,1,0x5FB8,D:\CoScience\Logfiles\,2022_Jan_31_1041,GoNoGo,2020.1.3,60.08745127663911,
DRÜCKEN SIE IM FOLGENDEN BITTE SO SCHNELL SIE KÖNNEN. BITTE ZEIGEN SIE IHRE MAXIMAL MÖGLICHE LEISTUNG!,200,Go,go,4,1,0,0,0,1,,,,,19,0,57,1,,,,,,,,,,,,1,205.1173534999998,None,205.1173534999998,None,,,,201,211,204.29568719999952,204.79456200000004,204.79456200000004,204.89496689999942,4,1,204.79456200000004,None,204.89496689999942,None,204.79456200000004,None,False,None,None,None,None,None,None,None,None,0.3010463999999047,,,,,,,,,,,,,,,,,,,,,,,,,,,,,CH05ER25,1,0x5FB8,D:\CoScience\Logfiles\,2022_Jan_31_1041,GoNoGo,2020.1.3,60.08745127663911,
DRÜCKEN SIE IM FOLGENDEN BITTE SO SCHNELL SIE KÖNNEN. BITTE ZEIGEN SIE IHRE MAXIMAL MÖGLICHE LEISTUNG!,200,Go,go,4,1,0,0,0,1,,,,,19,1,58,0,,,,,,,,,,,,1,207.03140689999964,None,207.03140689999964,None,,,,201,211,206.14289399999961,206.64495519999946,206.6284440999998,206.72829509999974,4,1,206.6284440999998,None,206.72829509999974,None,206.6284440999998,None,False,None,None,None,None,None,None,None,None,0.38223309999921184,,,,,,,,,,,,,,,,,,,,,,,,,,,,,CH05ER25,1,0x5FB8,D:\CoScience\Logfiles\,2022_Jan_31_1041,GoNoGo,2020.1.3,60.08745127663911,
DRÜCKEN SIE IM FOLGENDEN BITTE SO SCHNELL SIE KÖNNEN. BITTE ZEIGEN SIE IHRE MAXIMAL MÖGLICHE LEISTUNG!,200,Go,go,4,1,0,0,0,1,,,,,19,2,59,0,,,,,,,,,,,,1,208.9980046999999,None,208.9980046999999,None,,,,201,211,208.0594116000002,208.56154349999997,208.54507560000002,208.6449179000001,4,1,208.54507560000002,None,208.6449179000001,None,208.54507560000002,None,False,None,None,None,None,None,None,None,None,0.43384659999992436,,,,,,,,,,,,,,,,,,,,,,,,,,,,,CH05ER25,1,0x5FB8,D:\CoScience\Logfiles\,2022_Jan_31_1041,GoNoGo,2020.1.3,60.08745127663911,
DRÜCKEN SIE IM FOLGENDEN BITTE SO SCHNELL SIE KÖNNEN. BITTE ZEIGEN SIE IHRE MAXIMAL MÖGLICHE LEISTUNG!,200,Go,go,4,1,0,0,0,1,,,,,20,0,60,0,,,,,,,,,,,,1,210.8678342000003,None,210.8678342000003,None,,,,201,211,210.0262058999997,210.5282728000002,210.51184899999953,210.6118617000002,4,1,210.51184899999953,None,210.6118617000002,None,210.51184899999953,None,False,None,None,None,None,None,None,None,None,0.3288079000003563,,,,,,,,,,,,,,,,,,,,,,,,,,,,,CH05ER25,1,0x5FB8,D:\CoScience\Logfiles\,2022_Jan_31_1041,GoNoGo,2020.1.3,60.08745127663911,
DRÜCKEN SIE IM FOLGENDEN BITTE SO SCHNELL SIE KÖNNEN. BITTE ZEIGEN SIE IHRE MAXIMAL MÖGLICHE LEISTUNG!,200,NoGo,nogo,None,2,0,0,0,1,,,,,20,1,61,2,,,,,,,,,,,,0.9,213.07932600000004,None,213.07932600000004,None,,,,202,0,211.87933239999984,212.3785001999995,212.3785001999995,212.47839490000024,None,1,212.3785001999995,None,212.47839490000024,None,212.3785001999995,None,False,None,None,None,None,None,None,None,None,,,,,,,,,,,,,,,,,,,,,,,,,,,,,,CH05ER25,1,0x5FB8,D:\CoScience\Logfiles\,2022_Jan_31_1041,GoNoGo,2020.1.3,60.08745127663911,
DRÜCKEN SIE IM FOLGENDEN BITTE SO SCHNELL SIE KÖNNEN. BITTE ZEIGEN SIE IHRE MAXIMAL MÖGLICHE LEISTUNG!,200,Go,go,4,1,0,0,0,1,,,,,20,2,62,0,,,,,,,,,,,,1,214.74809189999996,None,214.74809189999996,None,,,,201,211,213.9791365000001,214.47850479999943,214.47850479999943,214.5784646000002,4,1,214.47850479999943,None,214.5784646000002,None,214.47850479999943,None,False,None,None,None,None,None,None,None,None,0.2511989000004178,,,,,,,,,,,,,,,,,,,,,,,,,,,,,CH05ER25,1,0x5FB8,D:\CoScience\Logfiles\,2022_Jan_31_1041,GoNoGo,2020.1.3,60.08745127663911,
DRÜCKEN SIE IM FOLGENDEN BITTE SO SCHNELL SIE KÖNNEN. BITTE ZEIGEN SIE IHRE MAXIMAL MÖGLICHE LEISTUNG!,200,NoGo,nogo,None,2,0,0,0,1,,,,,21,0,63,2,,,,,,,,,,,,0.9,216.9627614000001,None,216.9627614000001,None,,,,202,0,215.7625066999999,216.26181730000008,216.26181730000008,216.36187580000023,None,1,216.26181730000008,None,216.36187580000023,None,216.26181730000008,None,False,None,None,None,None,None,None,None,None,,,,,,,,,,,,,,,,,,,,,,,,,,,,,,CH05ER25,1,0x5FB8,D:\CoScience\Logfiles\,2022_Jan_31_1041,GoNoGo,2020.1.3,60.08745127663911,
DRÜCKEN SIE IM FOLGENDEN BITTE SO SCHNELL SIE KÖNNEN. BITTE ZEIGEN SIE IHRE MAXIMAL MÖGLICHE LEISTUNG!,200,Go,go,4,1,0,0,0,1,,,,,21,1,64,0,,,,,,,,,,,,1,218.73143079999954,None,218.73143079999954,None,,,,201,211,217.8790140000001,218.3783929000001,218.3783929000001,218.47846219999974,4,1,218.3783929000001,None,218.47846219999974,None,218.3783929000001,None,False,None,None,None,None,None,None,None,None,0.32930800000031013,,,,,,,,,,,,,,,,,,,,,,,,,,,,,CH05ER25,1,0x5FB8,D:\CoScience\Logfiles\,2022_Jan_31_1041,GoNoGo,2020.1.3,60.08745127663911,
DRÜCKEN SIE IM FOLGENDEN BITTE SO SCHNELL SIE KÖNNEN. BITTE ZEIGEN SIE IHRE MAXIMAL MÖGLICHE LEISTUNG!,200,Go,go,4,1,0,0,0,1,,,,,21,2,65,1,,,,,,,,,,,,1,220.61722970000028,None,220.61722970000028,None,,,,201,211,219.7596397999996,220.26148379999995,220.24500119999993,220.34501900000032,4,1,220.24500119999993,None,220.34501900000032,None,220.24500119999993,None,False,None,None,None,None,None,None,None,None,0.34367660000043543,,,,,,,,,,,,,,,,,,,,,,,,,,,,,CH05ER25,1,0x5FB8,D:\CoScience\Logfiles\,2022_Jan_31_1041,GoNoGo,2020.1.3,60.08745127663911,
DRÜCKEN SIE IM FOLGENDEN BITTE SO SCHNELL SIE KÖNNEN. BITTE ZEIGEN SIE IHRE MAXIMAL MÖGLICHE LEISTUNG!,200,Go,go,4,1,0,0,0,1,,,,,22,0,66,1,,,,,,,,,,,,1,222.51469180000004,None,222.51469180000004,None,,,,201,211,221.6428163999999,222.14491350000026,222.1285097,222.2283437999995,4,1,222.1285097,None,222.2283437999995,None,222.1285097,None,False,None,None,None,None,None,None,None,None,0.36122449999948003,,,,,,,,,,,,,,,,,,,,,,,,,,,,,CH05ER25,1,0x5FB8,D:\CoScience\Logfiles\,2022_Jan_31_1041,GoNoGo,2020.1.3,60.08745127663911,
DRÜCKEN SIE IM FOLGENDEN BITTE SO SCHNELL SIE KÖNNEN. BITTE ZEIGEN SIE IHRE MAXIMAL MÖGLICHE LEISTUNG!,200,Go,go,4,1,0,0,0,1,,,,,22,1,67,0,,,,,,,,,,,,1,224.36499999999978,None,224.36499999999978,None,,,,201,211,223.54285149999941,224.04496569999992,224.0283698000003,224.12833880000017,4,1,224.0283698000003,None,224.12833880000017,None,224.0283698000003,None,False,None,None,None,None,None,None,None,None,0.312289100000271,,,,,,,,,,,,,,,,,,,,,,,,,,,,,CH05ER25,1,0x5FB8,D:\CoScience\Logfiles\,2022_Jan_31_1041,GoNoGo,2020.1.3,60.08745127663911,
DRÜCKEN SIE IM FOLGENDEN BITTE SO SCHNELL SIE KÖNNEN. BITTE ZEIGEN SIE IHRE MAXIMAL MÖGLICHE LEISTUNG!,200,Go,go,4,1,0,0,0,1,,,,,22,2,68,1,,,,,,,,,,,,1,226.26749409999957,None,226.26749409999957,None,,,,201,211,225.3929006999997,225.89487929999996,225.8784053999998,225.97838929999944,4,1,225.8784053999998,None,225.97838929999944,None,225.8784053999998,None,False,None,None,None,None,None,None,None,None,0.3663488000001962,,,,,,,,,,,,,,,,,,,,,,,,,,,,,CH05ER25,1,0x5FB8,D:\CoScience\Logfiles\,2022_Jan_31_1041,GoNoGo,2020.1.3,60.08745127663911,
DRÜCKEN SIE IM FOLGENDEN BITTE SO SCHNELL SIE KÖNNEN. BITTE ZEIGEN SIE IHRE MAXIMAL MÖGLICHE LEISTUNG!,200,Go,go,4,1,0,0,0,1,,,,,23,0,69,0,,,,,,,,,,,,1,228.16331309999987,None,228.16331309999987,None,,,,201,211,227.29286299999967,227.79483999999957,227.7783214000001,227.87836739999966,4,1,227.7783214000001,None,227.87836739999966,None,227.7783214000001,None,False,None,None,None,None,None,None,None,None,0.3612702000000354,,,,,,,,,,,,,,,,,,,,,,,,,,,,,CH05ER25,1,0x5FB8,D:\CoScience\Logfiles\,2022_Jan_31_1041,GoNoGo,2020.1.3,60.08745127663911,
DRÜCKEN SIE IM FOLGENDEN BITTE SO SCHNELL SIE KÖNNEN. BITTE ZEIGEN SIE IHRE MAXIMAL MÖGLICHE LEISTUNG!,200,Go,go,4,1,0,0,0,1,,,,,23,1,70,0,,,,,,,,,,,,1,230.06562479999957,None,230.06562479999957,None,,,,201,211,229.19259359999978,229.69499180000003,229.67850309999994,229.77841939999962,4,1,229.67850309999994,None,229.77841939999962,None,229.67850309999994,None,False,None,None,None,None,None,None,None,None,0.363362899999629,,,,,,,,,,,,,,,,,,,,,,,,,,,,,CH05ER25,1,0x5FB8,D:\CoScience\Logfiles\,2022_Jan_31_1041,GoNoGo,2020.1.3,60.08745127663911,
DRÜCKEN SIE IM FOLGENDEN BITTE SO SCHNELL SIE KÖNNEN. BITTE ZEIGEN SIE IHRE MAXIMAL MÖGLICHE LEISTUNG!,200,Go,go,4,1,0,0,0,1,,,,,23,2,71,1,,,,,,,,,,,,1,231.88396039999952,None,231.88396039999952,None,,,,201,211,231.09266920000027,231.59380599999986,231.57856689999971,231.6783988999996,4,1,231.57856689999971,None,231.6783988999996,None,231.57856689999971,None,False,None,None,None,None,None,None,None,None,0.27908730000035575,,,,,,,,,,,,,,,,,,,,,,,,,,,,,CH05ER25,1,0x5FB8,D:\CoScience\Logfiles\,2022_Jan_31_1041,GoNoGo,2020.1.3,60.08745127663911,
DRÜCKEN SIE IM FOLGENDEN BITTE SO SCHNELL SIE KÖNNEN. BITTE ZEIGEN SIE IHRE MAXIMAL MÖGLICHE LEISTUNG!,200,Go,go,4,1,0,0,0,1,,,,,24,0,72,1,,,,,,,,,,,,1,233.91688969999996,None,233.91688969999996,None,,,,201,211,232.89497579999988,233.3948921000001,233.37839780000013,233.47843199999988,4,1,233.37839780000013,None,233.47843199999988,None,233.37839780000013,None,False,None,None,None,None,None,None,None,None,0.515193399999589,,,,,,,,,,,,,,,,,,,,,,,,,,,,,CH05ER25,1,0x5FB8,D:\CoScience\Logfiles\,2022_Jan_31_1041,GoNoGo,2020.1.3,60.08745127663911,
DRÜCKEN SIE IM FOLGENDEN BITTE SO SCHNELL SIE KÖNNEN. BITTE ZEIGEN SIE IHRE MAXIMAL MÖGLICHE LEISTUNG!,200,Go,go,4,1,0,0,0,1,,,,,24,1,73,0,,,,,,,,,,,,1,235.9985071000001,None,235.9985071000001,None,,,,201,211,234.94268899999952,235.44497690000026,235.42853899999955,235.52854339999976,4,1,235.42853899999955,None,235.52854339999976,None,235.42853899999955,None,False,None,None,None,None,None,None,None,None,0.5391208000000915,,,,,,,,,,,,,,,,,,,,,,,,,,,,,CH05ER25,1,0x5FB8,D:\CoScience\Logfiles\,2022_Jan_31_1041,GoNoGo,2020.1.3,60.08745127663911,
DRÜCKEN SIE IM FOLGENDEN BITTE SO SCHNELL SIE KÖNNEN. BITTE ZEIGEN SIE IHRE MAXIMAL MÖGLICHE LEISTUNG!,200,NoGo,nogo,None,2,0,0,0,1,,,,,24,2,74,2,,,,,,,,,,,,0.9,238.2123021999996,None,238.2123021999996,None,,,,202,0,237.01270169999952,237.5117223999996,237.5117223999996,237.6117349999995,None,1,237.5117223999996,None,237.6117349999995,None,237.5117223999996,None,False,None,None,None,None,None,None,None,None,,,,,,,,,,,,,,,,,,,,,,,,,,,,,,CH05ER25,1,0x5FB8,D:\CoScience\Logfiles\,2022_Jan_31_1041,GoNoGo,2020.1.3,60.08745127663911,
DRÜCKEN SIE IM FOLGENDEN BITTE SO SCHNELL SIE KÖNNEN. BITTE ZEIGEN SIE IHRE MAXIMAL MÖGLICHE LEISTUNG!,200,NoGo,nogo,None,2,0,0,0,1,,,,,25,0,75,2,,,,,,,,,,,,0.9,240.32951369999955,None,240.32951369999955,None,,,,202,0,239.12910610000017,239.62840750000032,239.62840750000032,239.72831589999987,None,1,239.62840750000032,None,239.72831589999987,None,239.62840750000032,None,False,None,None,None,None,None,None,None,None,,,,,,,,,,,,,,,,,,,,,,,,,,,,,,CH05ER25,1,0x5FB8,D:\CoScience\Logfiles\,2022_Jan_31_1041,GoNoGo,2020.1.3,60.08745127663911,
DRÜCKEN SIE IM FOLGENDEN BITTE SO SCHNELL SIE KÖNNEN. BITTE ZEIGEN SIE IHRE MAXIMAL MÖGLICHE LEISTUNG!,200,NoGo,nogo,None,2,0,0,0,1,,,,,25,1,76,2,,,,,,,,,,,,0.9,242.44533320000028,None,242.44533320000028,None,,,,202,0,241.2594809000002,241.76148920000014,241.74501630000032,241.84508000000005,None,1,241.74501630000032,None,241.84508000000005,None,241.74501630000032,None,False,None,None,None,None,None,None,None,None,,,,,,,,,,,,,,,,,,,,,,,,,,,,,,CH05ER25,1,0x5FB8,D:\CoScience\Logfiles\,2022_Jan_31_1041,GoNoGo,2020.1.3,60.08745127663911,
DRÜCKEN SIE IM FOLGENDEN BITTE SO SCHNELL SIE KÖNNEN. BITTE ZEIGEN SIE IHRE MAXIMAL MÖGLICHE LEISTUNG!,200,Go,go,4,1,0,0,0,1,,,,,25,2,77,0,,,,,,,,,,,,1,244.21729460000006,None,244.21729460000006,None,,,,201,211,243.35897440000008,243.86158199999954,243.84505780000018,243.94514119999985,4,1,243.84505780000018,None,243.94514119999985,None,243.84505780000018,None,False,None,None,None,None,None,None,None,None,0.3426328999994439,,,,,,,,,,,,,,,,,,,,,,,,,,,,,CH05ER25,1,0x5FB8,D:\CoScience\Logfiles\,2022_Jan_31_1041,GoNoGo,2020.1.3,60.08745127663911,
DRÜCKEN SIE IM FOLGENDEN BITTE SO SCHNELL SIE KÖNNEN. BITTE ZEIGEN SIE IHRE MAXIMAL MÖGLICHE LEISTUNG!,200,Go,go,4,1,0,0,0,1,,,,,26,0,78,1,,,,,,,,,,,,1,246.13106319999952,None,246.13106319999952,None,,,,201,211,245.24272980000023,245.74491500000022,245.72840439999982,245.82824679999976,4,1,245.72840439999982,None,245.82824679999976,None,245.72840439999982,None,False,None,None,None,None,None,None,None,None,0.37623899999925925,,,,,,,,,,,,,,,,,,,,,,,,,,,,,CH05ER25,1,0x5FB8,D:\CoScience\Logfiles\,2022_Jan_31_1041,GoNoGo,2020.1.3,60.08745127663911,
DRÜCKEN SIE IM FOLGENDEN BITTE SO SCHNELL SIE KÖNNEN. BITTE ZEIGEN SIE IHRE MAXIMAL MÖGLICHE LEISTUNG!,200,NoGo,nogo,None,2,0,0,0,1,,,,,26,1,79,2,,,,,,,,,,,,1,247.93050429999948,None,247.93050429999948,None,,,,202,220,247.1465747000002,247.66154469999947,247.6450302000003,247.74495769999976,4,0,247.6450302000003,None,247.74495769999976,None,247.6450302000003,None,False,None,None,None,None,None,None,None,None,0.25764950000029785,,,,,,,,,,,,,,,,,,,,,,,,,,,,,CH05ER25,1,0x5FB8,D:\CoScience\Logfiles\,2022_Jan_31_1041,GoNoGo,2020.1.3,60.08745127663911,
DRÜCKEN SIE IM FOLGENDEN BITTE SO SCHNELL SIE KÖNNEN. BITTE ZEIGEN SIE IHRE MAXIMAL MÖGLICHE LEISTUNG!,200,NoGo,nogo,None,2,0,0,0,1,,,,,26,2,80,2,,,,,,,,,,,,0.9,250.14605909999955,None,250.14605909999955,None,,,,202,0,248.95938399999977,249.46122730000025,249.44460249999975,249.54505659999995,None,1,249.44460249999975,None,249.54505659999995,None,249.44460249999975,None,False,None,None,None,None,None,None,None,None,,,,,,,,,,,,,,,,,,,,,,,,,,,,,,CH05ER25,1,0x5FB8,D:\CoScience\Logfiles\,2022_Jan_31_1041,GoNoGo,2020.1.3,60.08745127663911,
DRÜCKEN SIE IM FOLGENDEN BITTE SO SCHNELL SIE KÖNNEN. BITTE ZEIGEN SIE IHRE MAXIMAL MÖGLICHE LEISTUNG!,200,NoGo,nogo,None,2,0,0,0,1,,,,,27,0,81,2,,,,,,,,,,,,0.9,252.24598199999946,None,252.24598199999946,None,,,,202,0,251.05955269999959,251.56145060000017,251.54509919999964,251.6449837,None,1,251.54509919999964,None,251.6449837,None,251.54509919999964,None,False,None,None,None,None,None,None,None,None,,,,,,,,,,,,,,,,,,,,,,,,,,,,,,CH05ER25,1,0x5FB8,D:\CoScience\Logfiles\,2022_Jan_31_1041,GoNoGo,2020.1.3,60.08745127663911,
DRÜCKEN SIE IM FOLGENDEN BITTE SO SCHNELL SIE KÖNNEN. BITTE ZEIGEN SIE IHRE MAXIMAL MÖGLICHE LEISTUNG!,200,Go,go,4,1,0,0,0,1,,,,,27,1,82,0,,,,,,,,,,,,1,254.19714629999999,None,254.19714629999999,None,,,,201,211,253.14638060000016,253.66110299999946,253.64510059999975,253.74500119999993,4,1,253.64510059999975,None,253.74500119999993,None,253.64510059999975,None,False,None,None,None,None,None,None,None,None,0.5215481000004729,,,,,,,,,,,,,,,,,,,,,,,,,,,,,CH05ER25,1,0x5FB8,D:\CoScience\Logfiles\,2022_Jan_31_1041,GoNoGo,2020.1.3,60.08745127663911,
DRÜCKEN SIE IM FOLGENDEN BITTE SO SCHNELL SIE KÖNNEN. BITTE ZEIGEN SIE IHRE MAXIMAL MÖGLICHE LEISTUNG!,200,Go,go,4,1,0,0,0,1,,,,,27,2,83,1,,,,,,,,,,,,1,256.1137934999997,None,256.1137934999997,None,,,,201,211,255.22614689999955,255.72819309999977,255.71182849999968,255.81158760000017,4,1,255.71182849999968,None,255.81158760000017,None,255.71182849999968,None,False,None,None,None,None,None,None,None,None,0.371814600000107,,,,,,,,,,,,,,,,,,,,,,,,,,,,,CH05ER25,1,0x5FB8,D:\CoScience\Logfiles\,2022_Jan_31_1041,GoNoGo,2020.1.3,60.08745127663911,
DRÜCKEN SIE IM FOLGENDEN BITTE SO SCHNELL SIE KÖNNEN. BITTE ZEIGEN SIE IHRE MAXIMAL MÖGLICHE LEISTUNG!,200,Go,go,4,1,0,0,0,1,,,,,28,0,84,0,,,,,,,,,,,,1,258.0312739000001,None,258.0312739000001,None,,,,201,211,257.1427769000002,257.6448975000003,257.62848719999965,257.7283282999997,4,1,257.62848719999965,None,257.7283282999997,None,257.62848719999965,None,False,None,None,None,None,None,None,None,None,0.37217669999972713,,,,,,,,,,,,,,,,,,,,,,,,,,,,,CH05ER25,1,0x5FB8,D:\CoScience\Logfiles\,2022_Jan_31_1041,GoNoGo,2020.1.3,60.08745127663911,
DRÜCKEN SIE IM FOLGENDEN BITTE SO SCHNELL SIE KÖNNEN. BITTE ZEIGEN SIE IHRE MAXIMAL MÖGLICHE LEISTUNG!,200,Go,go,4,1,0,0,0,1,,,,,28,1,85,1,,,,,,,,,,,,1,259.88024249999944,None,259.88024249999944,None,,,,201,211,259.05935989999944,259.5615707999996,259.5450998999995,259.6450302000003,4,1,259.5450998999995,None,259.6450302000003,None,259.5450998999995,None,False,None,None,None,None,None,None,None,None,0.30353070000001026,,,,,,,,,,,,,,,,,,,,,,,,,,,,,CH05ER25,1,0x5FB8,D:\CoScience\Logfiles\,2022_Jan_31_1041,GoNoGo,2020.1.3,60.08745127663911,
DRÜCKEN SIE IM FOLGENDEN BITTE SO SCHNELL SIE KÖNNEN. BITTE ZEIGEN SIE IHRE MAXIMAL MÖGLICHE LEISTUNG!,200,Go,go,4,1,0,0,0,1,,,,,28,2,86,0,,,,,,,,,,,,1,261.7814238000001,None,261.7814238000001,None,,,,201,211,260.9094702000002,261.41155439999966,261.39515589999974,261.4950915999998,4,1,261.39515589999974,None,261.4950915999998,None,261.39515589999974,None,False,None,None,None,None,None,None,None,None,0.3615732999996908,,,,,,,,,,,,,,,,,,,,,,,,,,,,,CH05ER25,1,0x5FB8,D:\CoScience\Logfiles\,2022_Jan_31_1041,GoNoGo,2020.1.3,60.08745127663911,
DRÜCKEN SIE IM FOLGENDEN BITTE SO SCHNELL SIE KÖNNEN. BITTE ZEIGEN SIE IHRE MAXIMAL MÖGLICHE LEISTUNG!,200,NoGo,nogo,None,2,0,0,0,1,,,,,29,0,87,2,,,,,,,,,,,,0.9,263.9959071000003,None,263.9959071000003,None,,,,202,0,262.7950678999996,263.29501660000005,263.29501660000005,263.39506960000017,None,1,263.29501660000005,None,263.39506960000017,None,263.29501660000005,None,False,None,None,None,None,None,None,None,None,,,,,,,,,,,,,,,,,,,,,,,,,,,,,,CH05ER25,1,0x5FB8,D:\CoScience\Logfiles\,2022_Jan_31_1041,GoNoGo,2020.1.3,60.08745127663911,
DRÜCKEN SIE IM FOLGENDEN BITTE SO SCHNELL SIE KÖNNEN. BITTE ZEIGEN SIE IHRE MAXIMAL MÖGLICHE LEISTUNG!,200,Go,go,4,1,0,0,0,1,,,,,29,1,88,0,,,,,,,,,,,,1,265.79801229999975,None,265.79801229999975,None,,,,201,211,264.8956554999995,265.3951140999998,265.3951140999998,265.4949356999996,4,1,265.3951140999998,None,265.4949356999996,None,265.3951140999998,None,False,None,None,None,None,None,None,None,None,0.36966690000008384,,,,,,,,,,,,,,,,,,,,,,,,,,,,,CH05ER25,1,0x5FB8,D:\CoScience\Logfiles\,2022_Jan_31_1041,GoNoGo,2020.1.3,60.08745127663911,
DRÜCKEN SIE IM FOLGENDEN BITTE SO SCHNELL SIE KÖNNEN. BITTE ZEIGEN SIE IHRE MAXIMAL MÖGLICHE LEISTUNG!,200,Go,go,4,1,0,0,0,1,,,,,29,2,89,0,,,,,,,,,,,,1,267.7813835999996,None,267.7813835999996,None,,,,201,211,266.82609760000014,267.32807109999976,267.3116245000001,267.4115762000001,4,1,267.3116245000001,None,267.4115762000001,None,267.3116245000001,None,False,None,None,None,None,None,None,None,None,0.43695129999923665,,,,,,,,,,,,,,,,,,,,,,,,,,,,,CH05ER25,1,0x5FB8,D:\CoScience\Logfiles\,2022_Jan_31_1041,GoNoGo,2020.1.3,60.08745127663911,
DRÜCKEN SIE IM FOLGENDEN BITTE SO SCHNELL SIE KÖNNEN. BITTE ZEIGEN SIE IHRE MAXIMAL MÖGLICHE LEISTUNG!,200,Go,go,4,1,0,0,0,1,,,,,30,0,90,1,,,,,,,,,,,,1,269.61712139999963,None,269.61712139999963,None,,,,201,211,268.80958779999946,269.3114857999999,269.2950284999997,269.3950106000002,4,1,269.2950284999997,None,269.3950106000002,None,269.2950284999997,None,False,None,None,None,None,None,None,None,None,0.29467210000075283,,,,,,,,,,,,,,,,,,,,,,,,,,,,,CH05ER25,1,0x5FB8,D:\CoScience\Logfiles\,2022_Jan_31_1041,GoNoGo,2020.1.3,60.08745127663911,
DRÜCKEN SIE IM FOLGENDEN BITTE SO SCHNELL SIE KÖNNEN. BITTE ZEIGEN SIE IHRE MAXIMAL MÖGLICHE LEISTUNG!,200,NoGo,nogo,None,2,0,0,0,1,,,,,30,1,91,2,,,,,,,,,,,,0.9,271.8297166000002,None,271.8297166000002,None,,,,202,0,270.6424085999997,271.14487759999975,271.12829859999965,271.22840410000026,None,1,271.12829859999965,None,271.22840410000026,None,271.12829859999965,None,False,None,None,None,None,None,None,None,None,,,,,,,,,,,,,,,,,,,,,,,,,,,,,,CH05ER25,1,0x5FB8,D:\CoScience\Logfiles\,2022_Jan_31_1041,GoNoGo,2020.1.3,60.08745127663911,
DRÜCKEN SIE IM FOLGENDEN BITTE SO SCHNELL SIE KÖNNEN. BITTE ZEIGEN SIE IHRE MAXIMAL MÖGLICHE LEISTUNG!,200,NoGo,nogo,None,2,0,0,0,1,,,,,30,2,92,2,,,,,,,,,,,,0.9,273.9459764000003,None,273.9459764000003,None,,,,202,0,272.7596176999996,273.26161390000016,273.2449638999997,273.34510390000014,None,1,273.2449638999997,None,273.34510390000014,None,273.2449638999997,None,False,None,None,None,None,None,None,None,None,,,,,,,,,,,,,,,,,,,,,,,,,,,,,,CH05ER25,1,0x5FB8,D:\CoScience\Logfiles\,2022_Jan_31_1041,GoNoGo,2020.1.3,60.08745127663911,
DRÜCKEN SIE IM FOLGENDEN BITTE SO SCHNELL SIE KÖNNEN. BITTE ZEIGEN SIE IHRE MAXIMAL MÖGLICHE LEISTUNG!,200,NoGo,nogo,None,2,0,0,0,1,,,,,31,0,93,2,,,,,,,,,,,,1,275.6792746000001,None,275.6792746000001,None,,,,202,220,274.85936349999974,275.3616737000002,275.34512519999953,275.44508140000016,4,0,275.34512519999953,None,275.44508140000016,None,275.34512519999953,None,False,None,None,None,None,None,None,None,None,0.30349800000021787,,,,,,,,,,,,,,,,,,,,,,,,,,,,,CH05ER25,1,0x5FB8,D:\CoScience\Logfiles\,2022_Jan_31_1041,GoNoGo,2020.1.3,60.08745127663911,
DRÜCKEN SIE IM FOLGENDEN BITTE SO SCHNELL SIE KÖNNEN. BITTE ZEIGEN SIE IHRE MAXIMAL MÖGLICHE LEISTUNG!,200,Go,go,4,1,0,0,0,1,,,,,31,1,94,0,,,,,,,,,,,,1,277.5966658999996,None,277.5966658999996,None,,,,201,211,276.67903729999944,277.1947325000001,277.1779921999996,277.27838129999964,4,1,277.1779921999996,None,277.27838129999964,None,277.1779921999996,None,False,None,None,None,None,None,None,None,None,0.3906808000001547,,,,,,,,,,,,,,,,,,,,,,,,,,,,,CH05ER25,1,0x5FB8,D:\CoScience\Logfiles\,2022_Jan_31_1041,GoNoGo,2020.1.3,60.08745127663911,
DRÜCKEN SIE IM FOLGENDEN BITTE SO SCHNELL SIE KÖNNEN. BITTE ZEIGEN SIE IHRE MAXIMAL MÖGLICHE LEISTUNG!,200,Go,go,4,1,0,0,0,1,,,,,31,2,95,1,,,,,,,,,,,,1,279.5788080000002,None,279.5788080000002,None,,,,201,211,278.62587059999987,279.1278602000002,279.1113015000001,279.2116709000002,4,1,279.1113015000001,None,279.2116709000002,None,279.1113015000001,None,False,None,None,None,None,None,None,None,None,0.4421577000002799,,,,,,,,,,,,,,,,,,,,,,,,,,,,,CH05ER25,1,0x5FB8,D:\CoScience\Logfiles\,2022_Jan_31_1041,GoNoGo,2020.1.3,60.08745127663911,
DRÜCKEN SIE IM FOLGENDEN BITTE SO SCHNELL SIE KÖNNEN. BITTE ZEIGEN SIE IHRE MAXIMAL MÖGLICHE LEISTUNG!,200,Go,go,4,1,0,0,0,1,,,,,32,0,96,1,,,,,,,,,,,,1,281.4144808000001,None,281.4144808000001,None,,,,201,211,280.59396409999954,281.0942955999999,281.07743800000026,281.1782441999994,4,1,281.07743800000026,None,281.1782441999994,None,281.07743800000026,None,False,None,None,None,None,None,None,None,None,0.31334140000035404,,,,,,,,,,,,,,,,,,,,,,,,,,,,,CH05ER25,1,0x5FB8,D:\CoScience\Logfiles\,2022_Jan_31_1041,GoNoGo,2020.1.3,60.08745127663911,
DRÜCKEN SIE IM FOLGENDEN BITTE SO SCHNELL SIE KÖNNEN. BITTE ZEIGEN SIE IHRE MAXIMAL MÖGLICHE LEISTUNG!,200,Go,go,4,1,0,0,0,1,,,,,32,1,97,1,,,,,,,,,,,,1,283.2673893000001,None,283.2673893000001,None,,,,201,211,282.42903209999986,282.92823789999966,282.92823789999966,283.0283122999999,4,1,282.92823789999966,None,283.0283122999999,None,282.92823789999966,None,False,None,None,None,None,None,None,None,None,0.3143145000003642,,,,,,,,,,,,,,,,,,,,,,,,,,,,,CH05ER25,1,0x5FB8,D:\CoScience\Logfiles\,2022_Jan_31_1041,GoNoGo,2020.1.3,60.08745127663911,
DRÜCKEN SIE IM FOLGENDEN BITTE SO SCHNELL SIE KÖNNEN. BITTE ZEIGEN SIE IHRE MAXIMAL MÖGLICHE LEISTUNG!,200,NoGo,nogo,None,2,0,0,0,1,,,,,32,2,98,2,,,,,,,,,,,,0.9,285.4792520000001,None,285.4792520000001,None,,,,202,0,284.27904880000006,284.7779221999999,284.7779221999999,284.8781877000001,None,1,284.7779221999999,None,284.8781877000001,None,284.7779221999999,None,False,None,None,None,None,None,None,None,None,,,,,,,,,,,,,,,,,,,,,,,,,,,,,,CH05ER25,1,0x5FB8,D:\CoScience\Logfiles\,2022_Jan_31_1041,GoNoGo,2020.1.3,60.08745127663911,
DRÜCKEN SIE IM FOLGENDEN BITTE SO SCHNELL SIE KÖNNEN. BITTE ZEIGEN SIE IHRE MAXIMAL MÖGLICHE LEISTUNG!,200,NoGo,nogo,None,2,0,0,0,1,,,,,33,0,99,2,,,,,,,,,,,,0.9,287.57921629999964,None,287.57921629999964,None,,,,202,0,286.39271689999987,286.89500789999965,286.8782527000003,286.97832389999985,None,1,286.8782527000003,None,286.97832389999985,None,286.8782527000003,None,False,None,None,None,None,None,None,None,None,,,,,,,,,,,,,,,,,,,,,,,,,,,,,,CH05ER25,1,0x5FB8,D:\CoScience\Logfiles\,2022_Jan_31_1041,GoNoGo,2020.1.3,60.08745127663911,
DRÜCKEN SIE IM FOLGENDEN BITTE SO SCHNELL SIE KÖNNEN. BITTE ZEIGEN SIE IHRE MAXIMAL MÖGLICHE LEISTUNG!,200,Go,go,4,1,0,0,0,1,,,,,33,1,100,1,,,,,,,,,,,,1,289.41415529999995,None,289.41415529999995,None,,,,201,211,288.4789873999998,288.97838779999984,288.97838779999984,289.07840020000003,4,1,288.97838779999984,None,289.07840020000003,None,288.97838779999984,None,False,None,None,None,None,None,None,None,None,0.4021696999998312,,,,,,,,,,,,,,,,,,,,,,,,,,,,,CH05ER25,1,0x5FB8,D:\CoScience\Logfiles\,2022_Jan_31_1041,GoNoGo,2020.1.3,60.08745127663911,
DRÜCKEN SIE IM FOLGENDEN BITTE SO SCHNELL SIE KÖNNEN. BITTE ZEIGEN SIE IHRE MAXIMAL MÖGLICHE LEISTUNG!,200,Go,go,4,1,0,0,0,1,,,,,33,2,101,0,,,,,,,,,,,,1,291.33438019999994,None,291.33438019999994,None,,,,201,211,290.4428791,290.9448586999997,290.9283193000001,291.0284007,4,1,290.9283193000001,None,291.0284007,None,290.9283193000001,None,False,None,None,None,None,None,None,None,None,0.3807860000006258,,,,,,,,,,,,,,,,,,,,,,,,,,,,,CH05ER25,1,0x5FB8,D:\CoScience\Logfiles\,2022_Jan_31_1041,GoNoGo,2020.1.3,60.08745127663911,
DRÜCKEN SIE IM FOLGENDEN BITTE SO SCHNELL SIE KÖNNEN. BITTE ZEIGEN SIE IHRE MAXIMAL MÖGLICHE LEISTUNG!,200,Go,go,4,1,0,0,0,1,,,,,34,0,102,1,,,,,,,,,,,,1,293.31412889999956,None,293.31412889999956,None,,,,201,211,292.3594954,292.8615941999997,292.8451052999999,292.9449377000001,4,1,292.8451052999999,None,292.9449377000001,None,292.8451052999999,None,False,None,None,None,None,None,None,None,None,0.4383941000005507,,,,,,,,,,,,,,,,,,,,,,,,,,,,,CH05ER25,1,0x5FB8,D:\CoScience\Logfiles\,2022_Jan_31_1041,GoNoGo,2020.1.3,60.08745127663911,
DRÜCKEN SIE IM FOLGENDEN BITTE SO SCHNELL SIE KÖNNEN. BITTE ZEIGEN SIE IHRE MAXIMAL MÖGLICHE LEISTUNG!,200,NoGo,nogo,None,2,0,0,0,1,,,,,34,1,103,2,,,,,,,,,,,,0.9,295.52897459999986,None,295.52897459999986,None,,,,202,0,294.3289824000003,294.82805929999995,294.82805929999995,294.9283839999998,None,1,294.82805929999995,None,294.9283839999998,None,294.82805929999995,None,False,None,None,None,None,None,None,None,None,,,,,,,,,,,,,,,,,,,,,,,,,,,,,,CH05ER25,1,0x5FB8,D:\CoScience\Logfiles\,2022_Jan_31_1041,GoNoGo,2020.1.3,60.08745127663911,
DRÜCKEN SIE IM FOLGENDEN BITTE SO SCHNELL SIE KÖNNEN. BITTE ZEIGEN SIE IHRE MAXIMAL MÖGLICHE LEISTUNG!,200,Go,go,4,1,0,0,0,1,,,,,34,2,104,1,,,,,,,,,,,,1,297.2976880999995,None,297.2976880999995,None,,,,201,211,296.42904610000005,296.92830309999954,296.92830309999954,297.0283811999998,4,1,296.92830309999954,None,297.0283811999998,None,296.92830309999954,None,False,None,None,None,None,None,None,None,None,0.33627720000004047,,,,,,,,,,,,,,,,,,,,,,,,,,,,,CH05ER25,1,0x5FB8,D:\CoScience\Logfiles\,2022_Jan_31_1041,GoNoGo,2020.1.3,60.08745127663911,
DRÜCKEN SIE IM FOLGENDEN BITTE SO SCHNELL SIE KÖNNEN. BITTE ZEIGEN SIE IHRE MAXIMAL MÖGLICHE LEISTUNG!,200,NoGo,nogo,None,2,0,0,0,1,,,,,35,0,105,2,,,,,,,,,,,,0.9,299.5125720999995,None,299.5125720999995,None,,,,202,0,298.31308379999973,298.8281334000003,298.8115914,298.91148129999965,None,1,298.8115914,None,298.91148129999965,None,298.8115914,None,False,None,None,None,None,None,None,None,None,,,,,,,,,,,,,,,,,,,,,,,,,,,,,,CH05ER25,1,0x5FB8,D:\CoScience\Logfiles\,2022_Jan_31_1041,GoNoGo,2020.1.3,60.08745127663911,
DRÜCKEN SIE IM FOLGENDEN BITTE SO SCHNELL SIE KÖNNEN. BITTE ZEIGEN SIE IHRE MAXIMAL MÖGLICHE LEISTUNG!,200,NoGo,nogo,None,2,0,0,0,1,,,,,35,1,106,2,,,,,,,,,,,,0.9,301.6294157000002,None,301.6294157000002,None,,,,202,0,300.4425578999999,300.9447104000001,300.9283190999995,301.0283327999996,None,1,300.9283190999995,None,301.0283327999996,None,300.9283190999995,None,False,None,None,None,None,None,None,None,None,,,,,,,,,,,,,,,,,,,,,,,,,,,,,,CH05ER25,1,0x5FB8,D:\CoScience\Logfiles\,2022_Jan_31_1041,GoNoGo,2020.1.3,60.08745127663911,
DRÜCKEN SIE IM FOLGENDEN BITTE SO SCHNELL SIE KÖNNEN. BITTE ZEIGEN SIE IHRE MAXIMAL MÖGLICHE LEISTUNG!,200,Go,go,4,1,0,0,0,1,,,,,35,2,107,0,,,,,,,,,,,,1,303.46461910000016,None,303.46461910000016,None,,,,201,211,302.5288823000001,303.0281828999996,303.0281828999996,303.12836830000015,4,1,303.0281828999996,None,303.12836830000015,None,303.0281828999996,None,False,None,None,None,None,None,None,None,None,0.4172720999995363,,,,,,,,,,,,,,,,,,,,,,,,,,,,,CH05ER25,1,0x5FB8,D:\CoScience\Logfiles\,2022_Jan_31_1041,GoNoGo,2020.1.3,60.08745127663911,
DRÜCKEN SIE IM FOLGENDEN BITTE SO SCHNELL SIE KÖNNEN. BITTE ZEIGEN SIE IHRE MAXIMAL MÖGLICHE LEISTUNG!,200,NoGo,nogo,None,2,0,0,0,1,,,,,36,0,108,2,,,,,,,,,,,,0.9,305.6790522000001,None,305.6790522000001,None,,,,202,0,304.4789934999999,304.9783593000002,304.9783593000002,305.07832419999977,None,1,304.9783593000002,None,305.07832419999977,None,304.9783593000002,None,False,None,None,None,None,None,None,None,None,,,,,,,,,,,,,,,,,,,,,,,,,,,,,,CH05ER25,1,0x5FB8,D:\CoScience\Logfiles\,2022_Jan_31_1041,GoNoGo,2020.1.3,60.08745127663911,
DRÜCKEN SIE IM FOLGENDEN BITTE SO SCHNELL SIE KÖNNEN. BITTE ZEIGEN SIE IHRE MAXIMAL MÖGLICHE LEISTUNG!,200,Go,go,4,1,0,0,0,1,,,,,36,1,109,1,,,,,,,,,,,,1,307.5468880999997,None,307.5468880999997,None,,,,201,211,306.5789757000002,307.07829459999994,307.07829459999994,307.17827320000015,4,1,307.07829459999994,None,307.17827320000015,None,307.07829459999994,None,False,None,None,None,None,None,None,None,None,0.45045309999932215,,,,,,,,,,,,,,,,,,,,,,,,,,,,,CH05ER25,1,0x5FB8,D:\CoScience\Logfiles\,2022_Jan_31_1041,GoNoGo,2020.1.3,60.08745127663911,
DRÜCKEN SIE IM FOLGENDEN BITTE SO SCHNELL SIE KÖNNEN. BITTE ZEIGEN SIE IHRE MAXIMAL MÖGLICHE LEISTUNG!,200,Go,go,4,1,0,0,0,1,,,,,36,2,110,0,,,,,,,,,,,,1,309.49774549999984,None,309.49774549999984,None,,,,201,211,308.5758420000002,309.07814119999966,309.06172629999946,309.1615138999996,4,1,309.06172629999946,None,309.1615138999996,None,309.06172629999946,None,False,None,None,None,None,None,None,None,None,0.40186590000030264,,,,,,,,,,,,,,,,,,,,,,,,,,,,,CH05ER25,1,0x5FB8,D:\CoScience\Logfiles\,2022_Jan_31_1041,GoNoGo,2020.1.3,60.08745127663911,
DRÜCKEN SIE IM FOLGENDEN BITTE SO SCHNELL SIE KÖNNEN. BITTE ZEIGEN SIE IHRE MAXIMAL MÖGLICHE LEISTUNG!,200,Go,go,4,1,0,0,0,1,,,,,37,0,111,0,,,,,,,,,,,,1,311.3649906999999,None,311.3649906999999,None,,,,201,211,310.51259459999983,311.0116726999995,311.0116726999995,311.1117287999996,4,1,311.0116726999995,None,311.1117287999996,None,311.0116726999995,None,False,None,None,None,None,None,None,None,None,0.32089429999996355,,,,,,,,,,,,,,,,,,,,,,,,,,,,,CH05ER25,1,0x5FB8,D:\CoScience\Logfiles\,2022_Jan_31_1041,GoNoGo,2020.1.3,60.08745127663911,
DRÜCKEN SIE IM FOLGENDEN BITTE SO SCHNELL SIE KÖNNEN. BITTE ZEIGEN SIE IHRE MAXIMAL MÖGLICHE LEISTUNG!,200,Go,go,4,1,0,0,0,1,,,,,37,1,112,1,,,,,,,,,,,,1,313.23112130000027,None,313.23112130000027,None,,,,201,211,312.3927217999999,312.8944044,312.8784403999998,312.9783686999999,4,1,312.8784403999998,None,312.9783686999999,None,312.8784403999998,None,False,None,None,None,None,None,None,None,None,0.32416789999933826,,,,,,,,,,,,,,,,,,,,,,,,,,,,,CH05ER25,1,0x5FB8,D:\CoScience\Logfiles\,2022_Jan_31_1041,GoNoGo,2020.1.3,60.08745127663911,
DRÜCKEN SIE IM FOLGENDEN BITTE SO SCHNELL SIE KÖNNEN. BITTE ZEIGEN SIE IHRE MAXIMAL MÖGLICHE LEISTUNG!,200,NoGo,nogo,None,2,0,0,0,1,,,,,37,2,113,2,,,,,,,,,,,,0.9,315.45944659999986,None,315.45944659999986,None,,,,202,0,314.2456529000001,314.7448463999999,314.7448463999999,314.84503249999943,None,1,314.7448463999999,None,314.84503249999943,None,314.7448463999999,None,False,None,None,None,None,None,None,None,None,,,,,,,,,,,,,,,,,,,,,,,,,,,,,,CH05ER25,1,0x5FB8,D:\CoScience\Logfiles\,2022_Jan_31_1041,GoNoGo,2020.1.3,60.08745127663911,
DRÜCKEN SIE IM FOLGENDEN BITTE SO SCHNELL SIE KÖNNEN. BITTE ZEIGEN SIE IHRE MAXIMAL MÖGLICHE LEISTUNG!,200,Go,go,4,1,0,0,0,1,,,,,38,0,114,0,,,,,,,,,,,,1,317.2989674999999,None,317.2989674999999,None,,,,201,211,316.36079879999943,316.86132439999983,316.84511120000025,316.94500999999946,4,1,316.84511120000025,None,316.94500999999946,None,316.84511120000025,None,False,None,None,None,None,None,None,None,None,0.4314799000003404,,,,,,,,,,,,,,,,,,,,,,,,,,,,,CH05ER25,1,0x5FB8,D:\CoScience\Logfiles\,2022_Jan_31_1041,GoNoGo,2020.1.3,60.08745127663911,
DRÜCKEN SIE IM FOLGENDEN BITTE SO SCHNELL SIE KÖNNEN. BITTE ZEIGEN SIE IHRE MAXIMAL MÖGLICHE LEISTUNG!,200,Go,go,4,1,0,0,0,1,,,,,38,1,115,1,,,,,,,,,,,,1,319.2839041999996,None,319.2839041999996,None,,,,201,211,318.32610079999995,318.82816079999975,318.8117021999997,318.9115941,4,1,318.8117021999997,None,318.9115941,None,318.8117021999997,None,False,None,None,None,None,None,None,None,None,0.43979160000071715,,,,,,,,,,,,,,,,,,,,,,,,,,,,,CH05ER25,1,0x5FB8,D:\CoScience\Logfiles\,2022_Jan_31_1041,GoNoGo,2020.1.3,60.08745127663911,
DRÜCKEN SIE IM FOLGENDEN BITTE SO SCHNELL SIE KÖNNEN. BITTE ZEIGEN SIE IHRE MAXIMAL MÖGLICHE LEISTUNG!,200,Go,go,4,1,0,0,0,1,,,,,38,2,116,1,,,,,,,,,,,,1,321.2299489999996,None,321.2299489999996,None,,,,201,211,320.3093557000002,320.8113739999999,320.7950277,320.89498170000024,4,1,320.7950277,None,320.89498170000024,None,320.7950277,None,False,None,None,None,None,None,None,None,None,0.4025391999994099,,,,,,,,,,,,,,,,,,,,,,,,,,,,,CH05ER25,1,0x5FB8,D:\CoScience\Logfiles\,2022_Jan_31_1041,GoNoGo,2020.1.3,60.08745127663911,
DRÜCKEN SIE IM FOLGENDEN BITTE SO SCHNELL SIE KÖNNEN. BITTE ZEIGEN SIE IHRE MAXIMAL MÖGLICHE LEISTUNG!,200,Go,go,4,1,0,0,0,1,,,,,39,0,117,0,,,,,,,,,,,,1,323.0811993999996,None,323.0811993999996,None,,,,201,211,322.25939839999955,322.761563,322.7449539999998,322.8450164999995,4,1,322.7449539999998,None,322.8450164999995,None,322.7449539999998,None,False,None,None,None,None,None,None,None,None,0.3066143000005468,,,,,,,,,,,,,,,,,,,,,,,,,,,,,CH05ER25,1,0x5FB8,D:\CoScience\Logfiles\,2022_Jan_31_1041,GoNoGo,2020.1.3,60.08745127663911,
DRÜCKEN SIE IM FOLGENDEN BITTE SO SCHNELL SIE KÖNNEN. BITTE ZEIGEN SIE IHRE MAXIMAL MÖGLICHE LEISTUNG!,200,Go,go,4,1,0,0,0,1,,,,,39,1,118,1,,,,,,,,,,,,1,324.9166110999995,None,324.9166110999995,None,,,,201,211,324.1093503000002,324.6115397000003,324.59499270000015,324.69488360000014,4,1,324.59499270000015,None,324.69488360000014,None,324.59499270000015,None,False,None,None,None,None,None,None,None,None,0.2935448999996879,,,,,,,,,,,,,,,,,,,,,,,,,,,,,CH05ER25,1,0x5FB8,D:\CoScience\Logfiles\,2022_Jan_31_1041,GoNoGo,2020.1.3,60.08745127663911,
DRÜCKEN SIE IM FOLGENDEN BITTE SO SCHNELL SIE KÖNNEN. BITTE ZEIGEN SIE IHRE MAXIMAL MÖGLICHE LEISTUNG!,200,Go,go,4,1,0,0,0,1,,,,,39,2,119,0,,,,,,,,,,,,1,326.8299783000002,None,326.8299783000002,None,,,,201,211,325.9426201999995,326.4449195999996,326.4282866000003,326.5282685000002,4,1,326.4282866000003,None,326.5282685000002,None,326.4282866000003,None,False,None,None,None,None,None,None,None,None,0.37120539999978064,,,,,,,,,,,,,,,,,,,,,,,,,,,,,CH05ER25,1,0x5FB8,D:\CoScience\Logfiles\,2022_Jan_31_1041,GoNoGo,2020.1.3,60.08745127663911,
DRÜCKEN SIE IM FOLGENDEN BITTE SO SCHNELL SIE KÖNNEN. BITTE ZEIGEN SIE IHRE MAXIMAL MÖGLICHE LEISTUNG!,200,NoGo,nogo,None,2,0,0,0,1,,,,,40,0,120,2,,,,,,,,,,,,0.9,329.04499769999984,None,329.04499769999984,None,,,,202,0,327.84632020000026,328.3615878999999,328.3449289,328.4447954999996,None,1,328.3449289,None,328.4447954999996,None,328.3449289,None,False,None,None,None,None,None,None,None,None,,,,,,,,,,,,,,,,,,,,,,,,,,,,,,CH05ER25,1,0x5FB8,D:\CoScience\Logfiles\,2022_Jan_31_1041,GoNoGo,2020.1.3,60.08745127663911,
DRÜCKEN SIE IM FOLGENDEN BITTE SO SCHNELL SIE KÖNNEN. BITTE ZEIGEN SIE IHRE MAXIMAL MÖGLICHE LEISTUNG!,200,Go,go,4,1,0,0,0,1,,,,,40,1,121,1,,,,,,,,,,,,1,330.78089649999947,None,330.78089649999947,None,,,,201,211,329.9592464999996,330.4614114999995,330.44487219999974,330.5449982,4,1,330.44487219999974,None,330.5449982,None,330.44487219999974,None,False,None,None,None,None,None,None,None,None,0.3066577999998117,,,,,,,,,,,,,,,,,,,,,,,,,,,,,CH05ER25,1,0x5FB8,D:\CoScience\Logfiles\,2022_Jan_31_1041,GoNoGo,2020.1.3,60.08745127663911,
DRÜCKEN SIE IM FOLGENDEN BITTE SO SCHNELL SIE KÖNNEN. BITTE ZEIGEN SIE IHRE MAXIMAL MÖGLICHE LEISTUNG!,200,Go,go,4,1,0,0,0,1,,,,,40,2,122,1,,,,,,,,,,,,1,332.6812025999998,None,332.6812025999998,None,,,,201,211,331.8093818999996,332.3114807000002,332.2950025,332.3949268999995,4,1,332.2950025,None,332.3949268999995,None,332.2950025,None,False,None,None,None,None,None,None,None,None,0.36251370000081806,,,,,,,,,,,,,,,,,,,,,,,,,,,,,CH05ER25,1,0x5FB8,D:\CoScience\Logfiles\,2022_Jan_31_1041,GoNoGo,2020.1.3,60.08745127663911,
DRÜCKEN SIE IM FOLGENDEN BITTE SO SCHNELL SIE KÖNNEN. BITTE ZEIGEN SIE IHRE MAXIMAL MÖGLICHE LEISTUNG!,200,Go,go,4,1,0,0,0,1,,,,,41,0,123,0,,,,,,,,,,,,0.9,334.8960019999995,None,334.8960019999995,None,,,,201,0,333.7094939999997,334.21158079999987,334.19504849999976,334.29501600000003,None,0,334.19504849999976,None,334.29501600000003,None,334.19504849999976,None,False,None,None,None,None,None,None,None,None,,,,,,,,,,,,,,,,,,,,,,,,,,,,,,CH05ER25,1,0x5FB8,D:\CoScience\Logfiles\,2022_Jan_31_1041,GoNoGo,2020.1.3,60.08745127663911,
DRÜCKEN SIE IM FOLGENDEN BITTE SO SCHNELL SIE KÖNNEN. BITTE ZEIGEN SIE IHRE MAXIMAL MÖGLICHE LEISTUNG!,200,Go,go,4,1,0,0,0,1,,,,,41,1,124,1,,,,,,,,,,,,1,336.65038019999974,None,336.65038019999974,None,,,,201,211,335.80949359999977,336.31113339999956,336.29459599999973,336.39498490000005,4,1,336.29459599999973,None,336.39498490000005,None,336.29459599999973,None,False,None,None,None,None,None,None,None,None,0.3310223999997106,,,,,,,,,,,,,,,,,,,,,,,,,,,,,CH05ER25,1,0x5FB8,D:\CoScience\Logfiles\,2022_Jan_31_1041,GoNoGo,2020.1.3,60.08745127663911,
DRÜCKEN SIE IM FOLGENDEN BITTE SO SCHNELL SIE KÖNNEN. BITTE ZEIGEN SIE IHRE MAXIMAL MÖGLICHE LEISTUNG!,200,NoGo,nogo,None,2,0,0,0,1,,,,,41,2,125,2,,,,,,,,,,,,0.9,338.8625500999997,None,338.8625500999997,None,,,,202,0,337.66219420000016,338.16150749999997,338.16150749999997,338.26172469999983,None,1,338.16150749999997,None,338.26172469999983,None,338.16150749999997,None,False,None,None,None,None,None,339.7836791999998,None,space,,30.396076600000015,,,,,,,,,,,,,,,,,,,,,,,,,,,,CH05ER25,1,0x5FB8,D:\CoScience\Logfiles\,2022_Jan_31_1041,GoNoGo,2020.1.3,60.08745127663911,
DRÜCKEN SIE IM FOLGENDEN BITTE SO SCHNELL SIE KÖNNEN. BITTE ZEIGEN SIE IHRE MAXIMAL MÖGLICHE LEISTUNG!,200,NoGo,nogo,None,2,0,0,0,1,,,,,42,0,126,2,,,,,,,,,,,,0.9,373.37945279999985,None,373.37945279999985,None,,,,202,0,372.1783749999995,372.6782502999995,372.6782502999995,372.7782691000002,None,1,372.6782502999995,None,372.7782691000002,None,372.6782502999995,None,False,None,None,None,None,None,None,None,None,,,,,,,,,,,,,,,,,,,,,,,,,,,,,,CH05ER25,1,0x5FB8,D:\CoScience\Logfiles\,2022_Jan_31_1041,GoNoGo,2020.1.3,60.08745127663911,
DRÜCKEN SIE IM FOLGENDEN BITTE SO SCHNELL SIE KÖNNEN. BITTE ZEIGEN SIE IHRE MAXIMAL MÖGLICHE LEISTUNG!,200,Go,go,4,1,0,0,0,1,,,,,42,1,127,1,,,,,,,,,,,,1,375.16432929999974,None,375.16432929999974,None,,,,201,211,374.30014310000024,374.81139470000016,374.7949361000001,374.89474809999956,4,1,374.7949361000001,None,374.89474809999956,None,374.7949361000001,None,False,None,None,None,None,None,None,None,None,0.33755549999932555,,,,,,,,,,,,,,,,,,,,,,,,,,,,,CH05ER25,1,0x5FB8,D:\CoScience\Logfiles\,2022_Jan_31_1041,GoNoGo,2020.1.3,60.08745127663911,
DRÜCKEN SIE IM FOLGENDEN BITTE SO SCHNELL SIE KÖNNEN. BITTE ZEIGEN SIE IHRE MAXIMAL MÖGLICHE LEISTUNG!,200,Go,go,4,1,0,0,0,1,,,,,42,2,128,0,,,,,,,,,,,,1,377.01318919999994,None,377.01318919999994,None,,,,201,211,376.1927023999997,376.6947448000001,376.6783040999999,376.7782268000001,4,1,376.6783040999999,None,376.7782268000001,None,376.6783040999999,None,False,None,None,None,None,None,None,None,None,0.3071507999993628,,,,,,,,,,,,,,,,,,,,,,,,,,,,,CH05ER25,1,0x5FB8,D:\CoScience\Logfiles\,2022_Jan_31_1041,GoNoGo,2020.1.3,60.08745127663911,
DRÜCKEN SIE IM FOLGENDEN BITTE SO SCHNELL SIE KÖNNEN. BITTE ZEIGEN SIE IHRE MAXIMAL MÖGLICHE LEISTUNG!,200,Go,go,4,1,0,0,0,1,,,,,43,0,129,1,,,,,,,,,,,,1,378.84845659999974,None,378.84845659999974,None,,,,201,211,378.0426477000001,378.5448220999997,378.5283067999999,378.6282603999998,4,1,378.5283067999999,None,378.6282603999998,None,378.5283067999999,None,False,None,None,None,None,None,None,None,None,0.291198699999768,,,,,,,,,,,,,,,,,,,,,,,,,,,,,CH05ER25,1,0x5FB8,D:\CoScience\Logfiles\,2022_Jan_31_1041,GoNoGo,2020.1.3,60.08745127663911,
DRÜCKEN SIE IM FOLGENDEN BITTE SO SCHNELL SIE KÖNNEN. BITTE ZEIGEN SIE IHRE MAXIMAL MÖGLICHE LEISTUNG!,200,Go,go,4,1,0,0,0,1,,,,,43,1,130,0,,,,,,,,,,,,1,380.6666691999999,None,380.6666691999999,None,,,,201,211,379.8761886000002,380.37821819999954,380.3615694,380.4615880000001,4,1,380.3615694,None,380.4615880000001,None,380.3615694,None,False,None,None,None,None,None,None,None,None,0.2762236999997185,,,,,,,,,,,,,,,,,,,,,,,,,,,,,CH05ER25,1,0x5FB8,D:\CoScience\Logfiles\,2022_Jan_31_1041,GoNoGo,2020.1.3,60.08745127663911,
DRÜCKEN SIE IM FOLGENDEN BITTE SO SCHNELL SIE KÖNNEN. BITTE ZEIGEN SIE IHRE MAXIMAL MÖGLICHE LEISTUNG!,200,NoGo,nogo,None,2,0,0,0,1,,,,,43,2,131,2,,,,,,,,,,,,0.9,382.87908830000015,None,382.87908830000015,None,,,,202,0,381.6815452000001,382.1942567999995,382.1779722000001,382.2781563999997,None,1,382.1779722000001,None,382.2781563999997,None,382.1779722000001,None,False,None,None,None,None,None,None,None,None,,,,,,,,,,,,,,,,,,,,,,,,,,,,,,CH05ER25,1,0x5FB8,D:\CoScience\Logfiles\,2022_Jan_31_1041,GoNoGo,2020.1.3,60.08745127663911,
DRÜCKEN SIE IM FOLGENDEN BITTE SO SCHNELL SIE KÖNNEN. BITTE ZEIGEN SIE IHRE MAXIMAL MÖGLICHE LEISTUNG!,200,Go,go,4,1,0,0,0,1,,,,,44,0,132,0,,,,,,,,,,,,1,384.74773129999994,None,384.74773129999994,None,,,,201,211,383.77980370000023,384.2946388999999,384.2783295999998,384.37820869999996,4,1,384.2783295999998,None,384.37820869999996,None,384.2783295999998,None,False,None,None,None,None,None,None,None,None,0.4422690999999759,,,,,,,,,,,,,,,,,,,,,,,,,,,,,CH05ER25,1,0x5FB8,D:\CoScience\Logfiles\,2022_Jan_31_1041,GoNoGo,2020.1.3,60.08745127663911,
DRÜCKEN SIE IM FOLGENDEN BITTE SO SCHNELL SIE KÖNNEN. BITTE ZEIGEN SIE IHRE MAXIMAL MÖGLICHE LEISTUNG!,200,Go,go,4,1,0,0,0,1,,,,,44,1,133,1,,,,,,,,,,,,1,386.5976498,None,386.5976498,None,,,,201,211,385.77609049999955,386.2781447999996,386.2616501000002,386.36153269999977,4,1,386.2616501000002,None,386.36153269999977,None,386.2616501000002,None,False,None,None,None,None,None,None,None,None,0.31090779999976803,,,,,,,,,,,,,,,,,,,,,,,,,,,,,CH05ER25,1,0x5FB8,D:\CoScience\Logfiles\,2022_Jan_31_1041,GoNoGo,2020.1.3,60.08745127663911,
DRÜCKEN SIE IM FOLGENDEN BITTE SO SCHNELL SIE KÖNNEN. BITTE ZEIGEN SIE IHRE MAXIMAL MÖGLICHE LEISTUNG!,200,Go,go,4,1,0,0,0,1,,,,,44,2,134,1,,,,,,,,,,,,1,388.4140084999999,None,388.4140084999999,None,,,,201,211,387.62587059999987,388.1280746000002,388.11157339999954,388.2116272000003,4,1,388.11157339999954,None,388.2116272000003,None,388.11157339999954,None,False,None,None,None,None,None,None,None,None,0.2772040999998353,,,,,,,,,,,,,,,,,,,,,,,,,,,,,CH05ER25,1,0x5FB8,D:\CoScience\Logfiles\,2022_Jan_31_1041,GoNoGo,2020.1.3,60.08745127663911,
DRÜCKEN SIE IM FOLGENDEN BITTE SO SCHNELL SIE KÖNNEN. BITTE ZEIGEN SIE IHRE MAXIMAL MÖGLICHE LEISTUNG!,200,Go,go,4,1,0,0,0,1,,,,,45,0,135,1,,,,,,,,,,,,1,390.2482033999995,None,390.2482033999995,None,,,,201,211,389.4426502999995,389.94475280000006,389.9282696,390.02822749999996,4,1,389.9282696,None,390.02822749999996,None,389.9282696,None,False,None,None,None,None,None,None,None,None,0.29922480000004725,,,,,,,,,,,,,,,,,,,,,,,,,,,,,CH05ER25,1,0x5FB8,D:\CoScience\Logfiles\,2022_Jan_31_1041,GoNoGo,2020.1.3,60.08745127663911,
DRÜCKEN SIE IM FOLGENDEN BITTE SO SCHNELL SIE KÖNNEN. BITTE ZEIGEN SIE IHRE MAXIMAL MÖGLICHE LEISTUNG!,200,Go,go,4,1,0,0,0,1,,,,,45,1,136,0,,,,,,,,,,,,1,392.08093519999966,None,392.08093519999966,None,,,,201,211,391.26235149999957,391.7615649999998,391.7615649999998,391.8615516,4,1,391.7615649999998,None,391.8615516,None,391.7615649999998,None,False,None,None,None,None,None,None,None,None,0.29018919999998616,,,,,,,,,,,,,,,,,,,,,,,,,,,,,CH05ER25,1,0x5FB8,D:\CoScience\Logfiles\,2022_Jan_31_1041,GoNoGo,2020.1.3,60.08745127663911,
DRÜCKEN SIE IM FOLGENDEN BITTE SO SCHNELL SIE KÖNNEN. BITTE ZEIGEN SIE IHRE MAXIMAL MÖGLICHE LEISTUNG!,200,NoGo,nogo,None,2,0,0,0,1,,,,,45,2,137,2,,,,,,,,,,,,0.9,394.2956199,None,394.2956199,None,,,,202,0,393.0964369000003,393.61158049999995,393.59492880000016,393.69494459999987,None,1,393.59492880000016,None,393.69494459999987,None,393.59492880000016,None,False,None,None,None,None,None,None,None,None,,,,,,,,,,,,,,,,,,,,,,,,,,,,,,CH05ER25,1,0x5FB8,D:\CoScience\Logfiles\,2022_Jan_31_1041,GoNoGo,2020.1.3,60.08745127663911,
DRÜCKEN SIE IM FOLGENDEN BITTE SO SCHNELL SIE KÖNNEN. BITTE ZEIGEN SIE IHRE MAXIMAL MÖGLICHE LEISTUNG!,200,Go,go,4,1,0,0,0,1,,,,,46,0,138,1,,,,,,,,,,,,1,395.9979648999997,None,395.9979648999997,None,,,,201,211,395.20900100000017,395.71153219999997,395.69490010000027,395.7948465999998,4,1,395.69490010000027,None,395.7948465999998,None,395.69490010000027,None,False,None,None,None,None,None,None,None,None,0.2815589000001637,,,,,,,,,,,,,,,,,,,,,,,,,,,,,CH05ER25,1,0x5FB8,D:\CoScience\Logfiles\,2022_Jan_31_1041,GoNoGo,2020.1.3,60.08745127663911,
DRÜCKEN SIE IM FOLGENDEN BITTE SO SCHNELL SIE KÖNNEN. BITTE ZEIGEN SIE IHRE MAXIMAL MÖGLICHE LEISTUNG!,200,Go,go,4,1,0,0,0,1,,,,,46,1,139,1,,,,,,,,,,,,1,397.86705809999967,None,397.86705809999967,None,,,,201,211,397.02613699999984,397.52803289999974,397.51172339999994,397.61160370000016,4,1,397.51172339999994,None,397.61160370000016,None,397.51172339999994,None,False,None,None,None,None,None,None,None,None,0.3327460999998948,,,,,,,,,,,,,,,,,,,,,,,,,,,,,CH05ER25,1,0x5FB8,D:\CoScience\Logfiles\,2022_Jan_31_1041,GoNoGo,2020.1.3,60.08745127663911,
DRÜCKEN SIE IM FOLGENDEN BITTE SO SCHNELL SIE KÖNNEN. BITTE ZEIGEN SIE IHRE MAXIMAL MÖGLICHE LEISTUNG!,200,Go,go,4,1,0,0,0,1,,,,,46,2,140,1,,,,,,,,,,,,1,399.75003749999996,None,399.75003749999996,None,,,,201,211,398.8925282,399.39467700000023,399.37812529999974,399.4780848999999,4,1,399.37812529999974,None,399.4780848999999,None,399.37812529999974,None,False,None,None,None,None,None,None,None,None,0.3412644,,,,,,,,,,,,,,,,,,,,,,,,,,,,,CH05ER25,1,0x5FB8,D:\CoScience\Logfiles\,2022_Jan_31_1041,GoNoGo,2020.1.3,60.08745127663911,
DRÜCKEN SIE IM FOLGENDEN BITTE SO SCHNELL SIE KÖNNEN. BITTE ZEIGEN SIE IHRE MAXIMAL MÖGLICHE LEISTUNG!,200,NoGo,nogo,None,2,0,0,0,1,,,,,47,0,141,2,,,,,,,,,,,,1,401.53106430000025,None,401.53106430000025,None,,,,202,220,400.7621178999998,401.2616301999997,401.2616301999997,401.3615952,4,0,401.2616301999997,None,401.3615952,None,401.2616301999997,None,False,None,None,None,None,None,None,None,None,0.23581279999962135,,,,,,,,,,,,,,,,,,,,,,,,,,,,,CH05ER25,1,0x5FB8,D:\CoScience\Logfiles\,2022_Jan_31_1041,GoNoGo,2020.1.3,60.08745127663911,
DRÜCKEN SIE IM FOLGENDEN BITTE SO SCHNELL SIE KÖNNEN. BITTE ZEIGEN SIE IHRE MAXIMAL MÖGLICHE LEISTUNG!,200,Go,go,4,1,0,0,0,1,,,,,47,1,142,0,,,,,,,,,,,,1,403.61355230000026,None,403.61355230000026,None,,,,201,211,402.5463311000003,403.06123899999966,403.04498859999967,403.1448488999995,4,1,403.04498859999967,None,403.1448488999995,None,403.04498859999967,None,False,None,None,None,None,None,None,None,None,0.5454594000002544,,,,,,,,,,,,,,,,,,,,,,,,,,,,,CH05ER25,1,0x5FB8,D:\CoScience\Logfiles\,2022_Jan_31_1041,GoNoGo,2020.1.3,60.08745127663911,
DRÜCKEN SIE IM FOLGENDEN BITTE SO SCHNELL SIE KÖNNEN. BITTE ZEIGEN SIE IHRE MAXIMAL MÖGLICHE LEISTUNG!,200,Go,go,4,1,0,0,0,1,,,,,47,2,143,0,,,,,,,,,,,,1,405.4830767000003,None,405.4830767000003,None,,,,201,211,404.64243720000013,405.1447269999999,405.12825389999944,405.2282073999995,4,1,405.12825389999944,None,405.2282073999995,None,405.12825389999944,None,False,None,None,None,None,None,None,None,None,0.33436929999970744,,,,,,,,,,,,,,,,,,,,,,,,,,,,,CH05ER25,1,0x5FB8,D:\CoScience\Logfiles\,2022_Jan_31_1041,GoNoGo,2020.1.3,60.08745127663911,
DRÜCKEN SIE IM FOLGENDEN BITTE SO SCHNELL SIE KÖNNEN. BITTE ZEIGEN SIE IHRE MAXIMAL MÖGLICHE LEISTUNG!,200,Go,go,4,1,0,0,0,1,,,,,48,0,144,1,,,,,,,,,,,,1,407.3805897000002,None,407.3805897000002,None,,,,201,211,406.50926960000015,407.0113921000002,406.9949313999996,407.09485849999965,4,1,406.9949313999996,None,407.09485849999965,None,406.9949313999996,None,False,None,None,None,None,None,None,None,None,0.36767710000003717,,,,,,,,,,,,,,,,,,,,,,,,,,,,,CH05ER25,1,0x5FB8,D:\CoScience\Logfiles\,2022_Jan_31_1041,GoNoGo,2020.1.3,60.08745127663911,
DRÜCKEN SIE IM FOLGENDEN BITTE SO SCHNELL SIE KÖNNEN. BITTE ZEIGEN SIE IHRE MAXIMAL MÖGLICHE LEISTUNG!,200,Go,go,4,1,0,0,0,1,,,,,48,1,145,0,,,,,,,,,,,,1,409.2330890000003,None,409.2330890000003,None,,,,201,211,408.40928019999956,408.91137100000014,408.89479029999984,408.9946361000002,4,1,408.89479029999984,None,408.9946361000002,None,408.89479029999984,None,False,None,None,None,None,None,None,None,None,0.3140569000006508,,,,,,,,,,,,,,,,,,,,,,,,,,,,,CH05ER25,1,0x5FB8,D:\CoScience\Logfiles\,2022_Jan_31_1041,GoNoGo,2020.1.3,60.08745127663911,
DRÜCKEN SIE IM FOLGENDEN BITTE SO SCHNELL SIE KÖNNEN. BITTE ZEIGEN SIE IHRE MAXIMAL MÖGLICHE LEISTUNG!,200,Go,go,4,1,0,0,0,1,,,,,48,2,146,1,,,,,,,,,,,,1,411.23323749999963,None,411.23323749999963,None,,,,201,211,410.25946939999994,410.7608100999996,410.74487299999964,410.8449252999999,4,1,410.74487299999964,None,410.8449252999999,None,410.74487299999964,None,False,None,None,None,None,None,None,None,None,0.45853580000039074,,,,,,,,,,,,,,,,,,,,,,,,,,,,,CH05ER25,1,0x5FB8,D:\CoScience\Logfiles\,2022_Jan_31_1041,GoNoGo,2020.1.3,60.08745127663911,
DRÜCKEN SIE IM FOLGENDEN BITTE SO SCHNELL SIE KÖNNEN. BITTE ZEIGEN SIE IHRE MAXIMAL MÖGLICHE LEISTUNG!,200,Go,go,4,1,0,0,0,1,,,,,49,0,147,0,,,,,,,,,,,,1,413.0990056999999,None,413.0990056999999,None,,,,201,211,412.25929300000007,412.7613951000003,412.74497019999944,412.84485870000026,4,1,412.74497019999944,None,412.84485870000026,None,412.74497019999944,None,False,None,None,None,None,None,None,None,None,0.32950419999997393,,,,,,,,,,,,,,,,,,,,,,,,,,,,,CH05ER25,1,0x5FB8,D:\CoScience\Logfiles\,2022_Jan_31_1041,GoNoGo,2020.1.3,60.08745127663911,
DRÜCKEN SIE IM FOLGENDEN BITTE SO SCHNELL SIE KÖNNEN. BITTE ZEIGEN SIE IHRE MAXIMAL MÖGLICHE LEISTUNG!,200,Go,go,4,1,0,0,0,1,,,,,49,1,148,1,,,,,,,,,,,,1,414.9671338999997,None,414.9671338999997,None,,,,201,211,414.12588249999953,414.62803220000023,414.6117217000001,414.7114352999997,4,1,414.6117217000001,None,414.7114352999997,None,414.6117217000001,None,False,None,None,None,None,None,None,None,None,0.32372100000065984,,,,,,,,,,,,,,,,,,,,,,,,,,,,,CH05ER25,1,0x5FB8,D:\CoScience\Logfiles\,2022_Jan_31_1041,GoNoGo,2020.1.3,60.08745127663911,
DRÜCKEN SIE IM FOLGENDEN BITTE SO SCHNELL SIE KÖNNEN. BITTE ZEIGEN SIE IHRE MAXIMAL MÖGLICHE LEISTUNG!,200,Go,go,4,1,0,0,0,1,,,,,49,2,149,0,,,,,,,,,,,,1,416.78317999999945,None,416.78317999999945,None,,,,201,211,415.9927666000003,416.4948231999997,416.4782132999999,416.57819949999976,4,1,416.4782132999999,None,416.57819949999976,None,416.4782132999999,None,False,None,None,None,None,None,None,None,None,0.28423149999980524,,,,,,,,,,,,,,,,,,,,,,,,,,,,,CH05ER25,1,0x5FB8,D:\CoScience\Logfiles\,2022_Jan_31_1041,GoNoGo,2020.1.3,60.08745127663911,
DRÜCKEN SIE IM FOLGENDEN BITTE SO SCHNELL SIE KÖNNEN. BITTE ZEIGEN SIE IHRE MAXIMAL MÖGLICHE LEISTUNG!,200,NoGo,nogo,None,2,0,0,0,1,,,,,50,0,150,2,,,,,,,,,,,,0.9,419.0093001999994,None,419.0093001999994,None,,,,202,0,417.7954080999998,418.29480669999975,418.29480669999975,418.39480079999976,None,1,418.29480669999975,None,418.39480079999976,None,418.29480669999975,None,False,None,None,None,None,None,None,None,None,,,,,,,,,,,,,,,,,,,,,,,,,,,,,,CH05ER25,1,0x5FB8,D:\CoScience\Logfiles\,2022_Jan_31_1041,GoNoGo,2020.1.3,60.08745127663911,
DRÜCKEN SIE IM FOLGENDEN BITTE SO SCHNELL SIE KÖNNEN. BITTE ZEIGEN SIE IHRE MAXIMAL MÖGLICHE LEISTUNG!,200,NoGo,nogo,None,2,0,0,0,1,,,,,50,1,151,2,,,,,,,,,,,,1,420.96709610000016,None,420.96709610000016,None,,,,202,220,419.9259482999996,420.4281341999995,420.4114571,420.5115708000003,4,0,420.4114571,None,420.5115708000003,None,420.4114571,None,False,None,None,None,None,None,None,None,None,0.533880599999975,,,,,,,,,,,,,,,,,,,,,,,,,,,,,CH05ER25,1,0x5FB8,D:\CoScience\Logfiles\,2022_Jan_31_1041,GoNoGo,2020.1.3,60.08745127663911,
DRÜCKEN SIE IM FOLGENDEN BITTE SO SCHNELL SIE KÖNNEN. BITTE ZEIGEN SIE IHRE MAXIMAL MÖGLICHE LEISTUNG!,200,NoGo,nogo,None,2,0,0,0,1,,,,,50,2,152,2,,,,,,,,,,,,0.9,423.16015609999977,None,423.16015609999977,None,,,,202,0,421.9768760999996,422.47695029999977,422.4602414000001,422.5602024,None,1,422.4602414000001,None,422.5602024,None,422.4602414000001,None,False,None,None,None,None,None,None,None,None,,,,,,,,,,,,,,,,,,,,,,,,,,,,,,CH05ER25,1,0x5FB8,D:\CoScience\Logfiles\,2022_Jan_31_1041,GoNoGo,2020.1.3,60.08745127663911,
DRÜCKEN SIE IM FOLGENDEN BITTE SO SCHNELL SIE KÖNNEN. BITTE ZEIGEN SIE IHRE MAXIMAL MÖGLICHE LEISTUNG!,200,Go,go,4,1,0,0,0,1,,,,,51,0,153,0,,,,,,,,,,,,1,425.02900950000003,None,425.02900950000003,None,,,,201,211,424.06016,424.56026269999984,424.54358779999984,424.6435802999995,4,1,424.54358779999984,None,424.6435802999995,None,424.54358779999984,None,False,None,None,None,None,None,None,None,None,0.46561060000021826,,,,,,,,,,,,,,,,,,,,,,,,,,,,,CH05ER25,1,0x5FB8,D:\CoScience\Logfiles\,2022_Jan_31_1041,GoNoGo,2020.1.3,60.08745127663911,
DRÜCKEN SIE IM FOLGENDEN BITTE SO SCHNELL SIE KÖNNEN. BITTE ZEIGEN SIE IHRE MAXIMAL MÖGLICHE LEISTUNG!,200,Go,go,4,1,0,0,0,1,,,,,51,1,154,1,,,,,,,,,,,,1,426.9663824999998,None,426.9663824999998,None,,,,201,211,426.0435729000001,426.5435516999996,426.5268944999998,426.6268799999998,4,1,426.5268944999998,None,426.6268799999998,None,426.5268944999998,None,False,None,None,None,None,None,None,None,None,0.4085263999995732,,,,,,,,,,,,,,,,,,,,,,,,,,,,,CH05ER25,1,0x5FB8,D:\CoScience\Logfiles\,2022_Jan_31_1041,GoNoGo,2020.1.3,60.08745127663911,
DRÜCKEN SIE IM FOLGENDEN BITTE SO SCHNELL SIE KÖNNEN. BITTE ZEIGEN SIE IHRE MAXIMAL MÖGLICHE LEISTUNG!,200,Go,go,4,1,0,0,0,1,,,,,51,2,155,1,,,,,,,,,,,,1,428.8997637000002,None,428.8997637000002,None,,,,201,211,427.99252569999953,428.49467319999985,428.47807190000003,428.57811260000017,4,1,428.47807190000003,None,428.57811260000017,None,428.47807190000003,None,False,None,None,None,None,None,None,None,None,0.3943775999996433,,,,,,,,,,,,,,,,,,,,,,,,,,,,,CH05ER25,1,0x5FB8,D:\CoScience\Logfiles\,2022_Jan_31_1041,GoNoGo,2020.1.3,60.08745127663911,
DRÜCKEN SIE IM FOLGENDEN BITTE SO SCHNELL SIE KÖNNEN. BITTE ZEIGEN SIE IHRE MAXIMAL MÖGLICHE LEISTUNG!,200,Go,go,4,1,0,0,0,1,,,,,52,0,156,1,,,,,,,,,,,,1,430.98156500000005,None,430.98156500000005,None,,,,201,211,429.9259946000002,430.4281160999999,430.41157490000023,430.51147690000016,4,1,430.41157490000023,None,430.51147690000016,None,430.41157490000023,None,False,None,None,None,None,None,None,None,None,0.5458896000000095,,,,,,,,,,,,,,,,,,,,,,,,,,,,,CH05ER25,1,0x5FB8,D:\CoScience\Logfiles\,2022_Jan_31_1041,GoNoGo,2020.1.3,60.08745127663911,
DRÜCKEN SIE IM FOLGENDEN BITTE SO SCHNELL SIE KÖNNEN. BITTE ZEIGEN SIE IHRE MAXIMAL MÖGLICHE LEISTUNG!,200,Go,go,4,1,0,0,0,1,,,,,52,1,157,0,,,,,,,,,,,,1,432.91360650000024,None,432.91360650000024,None,,,,201,211,432.0093889,432.5113306000003,432.49493939999957,432.59492109999974,4,1,432.49493939999957,None,432.59492109999974,None,432.49493939999957,None,False,None,None,None,None,None,None,None,None,0.3865021000001434,,,,,,,,,,,,,,,,,,,,,,,,,,,,,CH05ER25,1,0x5FB8,D:\CoScience\Logfiles\,2022_Jan_31_1041,GoNoGo,2020.1.3,60.08745127663911,
DRÜCKEN SIE IM FOLGENDEN BITTE SO SCHNELL SIE KÖNNEN. BITTE ZEIGEN SIE IHRE MAXIMAL MÖGLICHE LEISTUNG!,200,NoGo,nogo,None,2,0,0,0,1,,,,,52,2,158,2,,,,,,,,,,,,0.9,435.12888079999993,None,435.12888079999993,None,,,,202,0,433.9296755999994,434.4446243000002,434.42816179999954,434.52822579999975,None,1,434.42816179999954,None,434.52822579999975,None,434.42816179999954,None,False,None,None,None,None,None,None,None,None,,,,,,,,,,,,,,,,,,,,,,,,,,,,,,CH05ER25,1,0x5FB8,D:\CoScience\Logfiles\,2022_Jan_31_1041,GoNoGo,2020.1.3,60.08745127663911,
DRÜCKEN SIE IM FOLGENDEN BITTE SO SCHNELL SIE KÖNNEN. BITTE ZEIGEN SIE IHRE MAXIMAL MÖGLICHE LEISTUNG!,200,NoGo,nogo,None,2,0,0,0,1,,,,,53,0,159,2,,,,,,,,,,,,0.9,437.2291908999996,None,437.2291908999996,None,,,,202,0,436.0424997,436.5448051000003,436.52828769999996,436.6282228,None,1,436.52828769999996,None,436.6282228,None,436.52828769999996,None,False,None,None,None,None,None,None,None,None,,,,,,,,,,,,,,,,,,,,,,,,,,,,,,CH05ER25,1,0x5FB8,D:\CoScience\Logfiles\,2022_Jan_31_1041,GoNoGo,2020.1.3,60.08745127663911,
DRÜCKEN SIE IM FOLGENDEN BITTE SO SCHNELL SIE KÖNNEN. BITTE ZEIGEN SIE IHRE MAXIMAL MÖGLICHE LEISTUNG!,200,NoGo,nogo,None,2,0,0,0,1,,,,,53,1,160,2,,,,,,,,,,,,0.9,439.32920620000004,None,439.32920620000004,None,,,,202,0,438.1423888999998,438.64474789999986,438.62822809999943,438.72816049999983,None,1,438.62822809999943,None,438.72816049999983,None,438.62822809999943,None,False,None,None,None,None,None,None,None,None,,,,,,,,,,,,,,,,,,,,,,,,,,,,,,CH05ER25,1,0x5FB8,D:\CoScience\Logfiles\,2022_Jan_31_1041,GoNoGo,2020.1.3,60.08745127663911,
DRÜCKEN SIE IM FOLGENDEN BITTE SO SCHNELL SIE KÖNNEN. BITTE ZEIGEN SIE IHRE MAXIMAL MÖGLICHE LEISTUNG!,200,Go,go,4,1,0,0,0,1,,,,,53,2,161,0,,,,,,,,,,,,1,441.08028250000007,None,441.08028250000007,None,,,,201,211,440.2289380000002,440.7281959000002,440.7281959000002,440.8277599000003,4,1,440.7281959000002,None,440.8277599000003,None,440.7281959000002,None,False,None,None,None,None,None,None,None,None,0.3192349999999351,,,,,,,,,,,,,,,,,,,,,,,,,,,,,CH05ER25,1,0x5FB8,D:\CoScience\Logfiles\,2022_Jan_31_1041,GoNoGo,2020.1.3,60.08745127663911,
DRÜCKEN SIE IM FOLGENDEN BITTE SO SCHNELL SIE KÖNNEN. BITTE ZEIGEN SIE IHRE MAXIMAL MÖGLICHE LEISTUNG!,200,Go,go,4,1,0,0,0,1,,,,,54,0,162,1,,,,,,,,,,,,1,443.09802519999994,None,443.09802519999994,None,,,,201,211,442.10912759999974,442.61099300000024,442.5948331999998,442.69486849999976,4,1,442.5948331999998,None,442.69486849999976,None,442.5948331999998,None,False,None,None,None,None,None,None,None,None,0.4715394999993805,,,,,,,,,,,,,,,,,,,,,,,,,,,,,CH05ER25,1,0x5FB8,D:\CoScience\Logfiles\,2022_Jan_31_1041,GoNoGo,2020.1.3,60.08745127663911,
DRÜCKEN SIE IM FOLGENDEN BITTE SO SCHNELL SIE KÖNNEN. BITTE ZEIGEN SIE IHRE MAXIMAL MÖGLICHE LEISTUNG!,200,Go,go,4,1,0,0,0,1,,,,,54,1,163,0,,,,,,,,,,,,1,444.96705889999976,None,444.96705889999976,None,,,,201,211,444.1259731,444.6279744000003,444.61157099999946,444.7114316999996,4,1,444.61157099999946,None,444.7114316999996,None,444.61157099999946,None,False,None,None,None,None,None,None,None,None,0.32693510000081005,,,,,,,,,,,,,,,,,,,,,,,,,,,,,CH05ER25,1,0x5FB8,D:\CoScience\Logfiles\,2022_Jan_31_1041,GoNoGo,2020.1.3,60.08745127663911,
DRÜCKEN SIE IM FOLGENDEN BITTE SO SCHNELL SIE KÖNNEN. BITTE ZEIGEN SIE IHRE MAXIMAL MÖGLICHE LEISTUNG!,200,NoGo,nogo,None,2,0,0,0,1,,,,,54,2,164,2,,,,,,,,,,,,1,446.86660419999953,None,446.86660419999953,None,,,,202,220,445.9796170999998,446.49466699999994,446.4781377999998,446.5780754999996,4,0,446.4781377999998,None,446.5780754999996,None,446.4781377999998,None,False,None,None,None,None,None,None,None,None,0.3662678999999116,,,,,,,,,,,,,,,,,,,,,,,,,,,,,CH05ER25,1,0x5FB8,D:\CoScience\Logfiles\,2022_Jan_31_1041,GoNoGo,2020.1.3,60.08745127663911,
DRÜCKEN SIE IM FOLGENDEN BITTE SO SCHNELL SIE KÖNNEN. BITTE ZEIGEN SIE IHRE MAXIMAL MÖGLICHE LEISTUNG!,200,Go,go,4,1,0,0,0,1,,,,,55,0,165,0,,,,,,,,,,,,1,448.71343460000026,None,448.71343460000026,None,,,,201,211,447.8788013000003,448.37804869999945,448.37804869999945,448.4780608000001,4,1,448.37804869999945,None,448.4780608000001,None,448.37804869999945,None,False,None,None,None,None,None,None,None,None,0.31382599999960803,,,,,,,,,,,,,,,,,,,,,,,,,,,,,CH05ER25,1,0x5FB8,D:\CoScience\Logfiles\,2022_Jan_31_1041,GoNoGo,2020.1.3,60.08745127663911,
DRÜCKEN SIE IM FOLGENDEN BITTE SO SCHNELL SIE KÖNNEN. BITTE ZEIGEN SIE IHRE MAXIMAL MÖGLICHE LEISTUNG!,200,NoGo,nogo,None,2,0,0,0,1,,,,,55,1,166,2,,,,,,,,,,,,0.9,450.9291567999999,None,450.9291567999999,None,,,,202,0,449.74233559999993,450.2445238999999,450.22822149999956,450.32818059999954,None,1,450.22822149999956,None,450.32818059999954,None,450.22822149999956,None,False,None,None,None,None,None,None,None,None,,,,,,,,,,,,,,,,,,,,,,,,,,,,,,CH05ER25,1,0x5FB8,D:\CoScience\Logfiles\,2022_Jan_31_1041,GoNoGo,2020.1.3,60.08745127663911,
DRÜCKEN SIE IM FOLGENDEN BITTE SO SCHNELL SIE KÖNNEN. BITTE ZEIGEN SIE IHRE MAXIMAL MÖGLICHE LEISTUNG!,200,NoGo,nogo,None,2,0,0,0,1,,,,,55,2,167,2,,,,,,,,,,,,0.9,453.0289692999995,None,453.0289692999995,None,,,,202,0,451.8426059000003,452.3446759999997,452.3282502000002,452.42820239999946,None,1,452.3282502000002,None,452.42820239999946,None,452.3282502000002,None,False,None,None,None,None,None,None,None,None,,,,,,,,,,,,,,,,,,,,,,,,,,,,,,CH05ER25,1,0x5FB8,D:\CoScience\Logfiles\,2022_Jan_31_1041,GoNoGo,2020.1.3,60.08745127663911,
