"Onset","Duration","Participant","date_time","Order_Experimenter","Response_Mapping","Running","Trial","Event","ExperimenterPresence","Congruency","Target","Response","Accuracy","RT","RT_Condition","Post_Trial","Cutoff","TaskPerf"
43.1993892458704,0.1,"ahsaer12","2021_Jun_11_1337","Present_First","S_blue","Practice",0,"PracFlankers",NA,0,"S","None",0,NA,NA,NA,NA,60.5902777777778
43.2660878524257,0.2,"ahsaer12","2021_Jun_11_1337","Present_First","S_blue","Practice",0,"PracTarget",NA,0,"S","None",0,NA,NA,NA,NA,60.5902777777778
44.266171143443,0.1,"ahsaer12","2021_Jun_11_1337","Present_First","S_blue","Practice",0,"TooSlowFeedback",NA,0,"S","None",0,NA,NA,NA,NA,60.5902777777778
46.1826890469874,0.1,"ahsaer12","2021_Jun_11_1337","Present_First","S_blue","Practice",1,"PracFlankers",NA,1,"H","4",0,0.593007194174788,NA,NA,NA,60.5902777777778
46.266056355822,0.2,"ahsaer12","2021_Jun_11_1337","Present_First","S_blue","Practice",1,"PracTarget",NA,1,"H","4",0,0.593007194174788,NA,NA,NA,60.5902777777778
46.8590635499968,0,"ahsaer12","2021_Jun_11_1337","Present_First","S_blue","Practice",1,"PracResponse",NA,1,"H","4",0,0.593007194174788,NA,NA,NA,60.5902777777778
47.7327814195251,0.1,"ahsaer12","2021_Jun_11_1337","Present_First","S_blue","Practice",2,"PracFlankers",NA,0,"H","4",0,0.457057006400646,NA,NA,NA,60.5902777777778
47.8160181924395,0.2,"ahsaer12","2021_Jun_11_1337","Present_First","S_blue","Practice",2,"PracTarget",NA,0,"H","4",0,0.457057006400646,NA,NA,NA,60.5902777777778
48.2730751988402,0,"ahsaer12","2021_Jun_11_1337","Present_First","S_blue","Practice",2,"PracResponse",NA,0,"H","4",0,0.457057006400646,NA,NA,NA,60.5902777777778
49.0993308371708,0.1,"ahsaer12","2021_Jun_11_1337","Present_First","S_blue","Practice",3,"PracFlankers",NA,1,"S","4",1,0.273304774080316,NA,NA,NA,60.5902777777778
49.1827033954396,0.2,"ahsaer12","2021_Jun_11_1337","Present_First","S_blue","Practice",3,"PracTarget",NA,1,"S","4",1,0.273304774080316,NA,NA,NA,60.5902777777778
49.4560081695199,0,"ahsaer12","2021_Jun_11_1337","Present_First","S_blue","Practice",3,"PracResponse",NA,1,"S","4",1,0.273304774080316,NA,NA,NA,60.5902777777778
50.4493147914,0.1,"ahsaer12","2021_Jun_11_1337","Present_First","S_blue","Practice",4,"PracFlankers",NA,1,"S","4",1,0.243326657218859,NA,NA,NA,60.5902777777778
50.5327023980462,0.2,"ahsaer12","2021_Jun_11_1337","Present_First","S_blue","Practice",4,"PracTarget",NA,1,"S","4",1,0.243326657218859,NA,NA,NA,60.5902777777778
50.7760290552651,0,"ahsaer12","2021_Jun_11_1337","Present_First","S_blue","Practice",4,"PracResponse",NA,1,"S","4",1,0.243326657218859,NA,NA,NA,60.5902777777778
51.6994177677952,0.1,"ahsaer12","2021_Jun_11_1337","Present_First","S_blue","Practice",5,"PracFlankers",NA,0.66,"S","2",0,0.130335743289834,NA,NA,NA,60.5902777777778
51.7826401922557,0.2,"ahsaer12","2021_Jun_11_1337","Present_First","S_blue","Practice",5,"PracTarget",NA,0.66,"S","2",0,0.130335743289834,NA,NA,NA,60.5902777777778
51.9129759355455,0,"ahsaer12","2021_Jun_11_1337","Present_First","S_blue","Practice",5,"PracResponse",NA,0.66,"S","2",0,0.130335743289834,NA,NA,NA,60.5902777777778
52.8661212388251,0.1,"ahsaer12","2021_Jun_11_1337","Present_First","S_blue","Practice",6,"PracFlankers",NA,0.66,"S","2",0,0.126595696654476,NA,NA,NA,60.5902777777778
52.9493800593609,0.2,"ahsaer12","2021_Jun_11_1337","Present_First","S_blue","Practice",6,"PracTarget",NA,0.66,"S","2",0,0.126595696654476,NA,NA,NA,60.5902777777778
53.0759757560154,0,"ahsaer12","2021_Jun_11_1337","Present_First","S_blue","Practice",6,"PracResponse",NA,0.66,"S","2",0,0.126595696654476,NA,NA,NA,60.5902777777778
54.0327932132532,0.1,"ahsaer12","2021_Jun_11_1337","Present_First","S_blue","Practice",7,"PracFlankers",NA,0.33,"S","2",0,0.224878396864369,NA,NA,NA,60.5902777777778
54.1161486233723,0.2,"ahsaer12","2021_Jun_11_1337","Present_First","S_blue","Practice",7,"PracTarget",NA,0.33,"S","2",0,0.224878396864369,NA,NA,NA,60.5902777777778
54.3410270202367,0,"ahsaer12","2021_Jun_11_1337","Present_First","S_blue","Practice",7,"PracResponse",NA,0.33,"S","2",0,0.224878396864369,NA,NA,NA,60.5902777777778
55.2493841539199,0.1,"ahsaer12","2021_Jun_11_1337","Present_First","S_blue","Practice",8,"PracFlankers",NA,1,"H","2",1,0.125239242948737,NA,NA,NA,60.5902777777778
55.3327325647933,0.2,"ahsaer12","2021_Jun_11_1337","Present_First","S_blue","Practice",8,"PracTarget",NA,1,"H","2",1,0.125239242948737,NA,NA,NA,60.5902777777778
55.4579718077421,0,"ahsaer12","2021_Jun_11_1337","Present_First","S_blue","Practice",8,"PracResponse",NA,1,"H","2",1,0.125239242948737,NA,NA,NA,60.5902777777778
56.2494362982961,0.1,"ahsaer12","2021_Jun_11_1337","Present_First","S_blue","Practice",9,"PracFlankers",NA,1,"S","4",1,0.264159910353555,NA,NA,NA,60.5902777777778
56.3328204053196,0.2,"ahsaer12","2021_Jun_11_1337","Present_First","S_blue","Practice",9,"PracTarget",NA,1,"S","4",1,0.264159910353555,NA,NA,NA,60.5902777777778
56.5969803156731,0,"ahsaer12","2021_Jun_11_1337","Present_First","S_blue","Practice",9,"PracResponse",NA,1,"S","4",1,0.264159910353555,NA,NA,NA,60.5902777777778
57.5327636414422,0.1,"ahsaer12","2021_Jun_11_1337","Present_First","S_blue","Practice",10,"PracFlankers",NA,1,"H","2",1,0.468000326165566,NA,NA,NA,60.5902777777778
57.6160168625829,0.2,"ahsaer12","2021_Jun_11_1337","Present_First","S_blue","Practice",10,"PracTarget",NA,1,"H","2",1,0.468000326165566,NA,NA,NA,60.5902777777778
58.0840171887485,0,"ahsaer12","2021_Jun_11_1337","Present_First","S_blue","Practice",10,"PracResponse",NA,1,"H","2",1,0.468000326165566,NA,NA,NA,60.5902777777778
58.8993953002173,0.1,"ahsaer12","2021_Jun_11_1337","Present_First","S_blue","Practice",11,"PracFlankers",NA,1,"S","4",1,0.118334487624452,NA,NA,NA,60.5902777777778
58.9826807178852,0.2,"ahsaer12","2021_Jun_11_1337","Present_First","S_blue","Practice",11,"PracTarget",NA,1,"S","4",1,0.118334487624452,NA,NA,NA,60.5902777777778
59.1010152055096,0,"ahsaer12","2021_Jun_11_1337","Present_First","S_blue","Practice",11,"PracResponse",NA,1,"S","4",1,0.118334487624452,NA,NA,NA,60.5902777777778
60.0993990798106,0.1,"ahsaer12","2021_Jun_11_1337","Present_First","S_blue","Practice",12,"PracFlankers",NA,1,"H","None",0,NA,NA,NA,NA,60.5902777777778
60.1827338421554,0.2,"ahsaer12","2021_Jun_11_1337","Present_First","S_blue","Practice",12,"PracTarget",NA,1,"H","None",0,NA,NA,NA,NA,60.5902777777778
61.1827646388338,0.1,"ahsaer12","2021_Jun_11_1337","Present_First","S_blue","Practice",12,"TooSlowFeedback",NA,1,"H","None",0,NA,NA,NA,NA,60.5902777777778
62.9994712070311,0.1,"ahsaer12","2021_Jun_11_1337","Present_First","S_blue","Practice",13,"PracFlankers",NA,0.66,"H","2",1,0.465081990907493,NA,NA,NA,60.5902777777778
63.0828021197922,0.2,"ahsaer12","2021_Jun_11_1337","Present_First","S_blue","Practice",13,"PracTarget",NA,0.66,"H","2",1,0.465081990907493,NA,NA,NA,60.5902777777778
63.5478841106997,0,"ahsaer12","2021_Jun_11_1337","Present_First","S_blue","Practice",13,"PracResponse",NA,0.66,"H","2",1,0.465081990907493,NA,NA,NA,60.5902777777778
64.4660643349616,0.1,"ahsaer12","2021_Jun_11_1337","Present_First","S_blue","Practice",14,"PracFlankers",NA,0.33,"H","4",0,0.227531810693108,NA,NA,NA,60.5902777777778
64.5493899982903,0.2,"ahsaer12","2021_Jun_11_1337","Present_First","S_blue","Practice",14,"PracTarget",NA,0.33,"H","4",0,0.227531810693108,NA,NA,NA,60.5902777777778
64.7769218089834,0,"ahsaer12","2021_Jun_11_1337","Present_First","S_blue","Practice",14,"PracResponse",NA,0.33,"H","4",0,0.227531810693108,NA,NA,NA,60.5902777777778
140.449351187475,0.1,"ahsaer12","2021_Jun_11_1337","Present_First","S_blue","MainTask",0,"Flanker","present",0.66,"S","4",1,0.710865383167402,"slow",NA,0.458661997318268,60.5902777777778
140.549346602969,0.2,"ahsaer12","2021_Jun_11_1337","Present_First","S_blue","MainTask",0,"Target","present",0.66,"S","4",1,0.710865383167402,"slow",NA,0.458661997318268,60.5902777777778
141.260211986137,0,"ahsaer12","2021_Jun_11_1337","Present_First","S_blue","MainTask",0,"Response","present",0.66,"S","4",1,0.710865383167402,"slow",NA,0.458661997318268,60.5902777777778
141.29934371578,0.1,"ahsaer12","2021_Jun_11_1337","Present_First","S_blue","MainTask",0,"TooSlowFeedback","present",0.66,"S","4",1,0.710865383167402,"slow",NA,0.458661997318268,60.5902777777778
143.082727227869,0.1,"ahsaer12","2021_Jun_11_1337","Present_First","S_blue","MainTask",1,"Flanker","present",0.66,"H","2",1,0.640243699715938,"slow","post_correct",0.458661997318268,60.5902777777778
143.165920955425,0.2,"ahsaer12","2021_Jun_11_1337","Present_First","S_blue","MainTask",1,"Target","present",0.66,"H","2",1,0.640243699715938,"slow","post_correct",0.458661997318268,60.5902777777778
143.806164655141,0,"ahsaer12","2021_Jun_11_1337","Present_First","S_blue","MainTask",1,"Response","present",0.66,"H","2",1,0.640243699715938,"slow","post_correct",0.458661997318268,60.5902777777778
143.849345798057,0.1,"ahsaer12","2021_Jun_11_1337","Present_First","S_blue","MainTask",1,"TooSlowFeedback","present",0.66,"H","2",1,0.640243699715938,"slow","post_correct",0.458661997318268,60.5902777777778
145.666027518933,0.1,"ahsaer12","2021_Jun_11_1337","Present_First","S_blue","MainTask",2,"Flanker","present",0,"H","2",1,0.446807661792263,"fast","post_correct",0.458661997318268,60.5902777777778
145.749299987998,0.2,"ahsaer12","2021_Jun_11_1337","Present_First","S_blue","MainTask",2,"Target","present",0,"H","2",1,0.446807661792263,"fast","post_correct",0.458661997318268,60.5902777777778
146.19610764979,0,"ahsaer12","2021_Jun_11_1337","Present_First","S_blue","MainTask",2,"Response","present",0,"H","2",1,0.446807661792263,"fast","post_correct",0.458661997318268,60.5902777777778
147.049385623761,0.1,"ahsaer12","2021_Jun_11_1337","Present_First","S_blue","MainTask",3,"Flanker","present",1,"S","4",1,0.237422094027352,"fast","post_correct",0.458661997318268,60.5902777777778
147.132681890258,0.2,"ahsaer12","2021_Jun_11_1337","Present_First","S_blue","MainTask",3,"Target","present",1,"S","4",1,0.237422094027352,"fast","post_correct",0.458661997318268,60.5902777777778
147.370103984285,0,"ahsaer12","2021_Jun_11_1337","Present_First","S_blue","MainTask",3,"Response","present",1,"S","4",1,0.237422094027352,"fast","post_correct",0.458661997318268,60.5902777777778
148.365974429658,0.1,"ahsaer12","2021_Jun_11_1337","Present_First","S_blue","MainTask",4,"Flanker","present",0.66,"S","2",0,0.240830376444137,"fast","post_correct",0.458661997318268,60.5902777777778
148.449303592608,0.2,"ahsaer12","2021_Jun_11_1337","Present_First","S_blue","MainTask",4,"Target","present",0.66,"S","2",0,0.240830376444137,"fast","post_correct",0.458661997318268,60.5902777777778
148.690133969052,0,"ahsaer12","2021_Jun_11_1337","Present_First","S_blue","MainTask",4,"Response","present",0.66,"S","2",0,0.240830376444137,"fast","post_correct",0.458661997318268,60.5902777777778
149.715957683964,0.1,"ahsaer12","2021_Jun_11_1337","Present_First","S_blue","MainTask",5,"Flanker","present",1,"S","4",1,0.245885931202793,"fast","post_error",0.458661997318268,60.5902777777778
149.799203555896,0.2,"ahsaer12","2021_Jun_11_1337","Present_First","S_blue","MainTask",5,"Target","present",1,"S","4",1,0.245885931202793,"fast","post_error",0.458661997318268,60.5902777777778
150.045089487099,0,"ahsaer12","2021_Jun_11_1337","Present_First","S_blue","MainTask",5,"Response","present",1,"S","4",1,0.245885931202793,"fast","post_error",0.458661997318268,60.5902777777778
150.915965313141,0.1,"ahsaer12","2021_Jun_11_1337","Present_First","S_blue","MainTask",6,"Flanker","present",0.66,"H","4",0,0.237798653415666,"fast","post_correct",0.458661997318268,60.5902777777778
150.999307424696,0.2,"ahsaer12","2021_Jun_11_1337","Present_First","S_blue","MainTask",6,"Target","present",0.66,"H","4",0,0.237798653415666,"fast","post_correct",0.458661997318268,60.5902777777778
151.237106078112,0,"ahsaer12","2021_Jun_11_1337","Present_First","S_blue","MainTask",6,"Response","present",0.66,"H","4",0,0.237798653415666,"fast","post_correct",0.458661997318268,60.5902777777778
152.24926166713,0.1,"ahsaer12","2021_Jun_11_1337","Present_First","S_blue","MainTask",7,"Flanker","present",0.66,"S","4",1,0.256404746747648,"fast","post_error",0.458661997318268,60.5902777777778
152.332634575361,0.2,"ahsaer12","2021_Jun_11_1337","Present_First","S_blue","MainTask",7,"Target","present",0.66,"S","4",1,0.256404746747648,"fast","post_error",0.458661997318268,60.5902777777778
152.589039322109,0,"ahsaer12","2021_Jun_11_1337","Present_First","S_blue","MainTask",7,"Response","present",0.66,"S","4",1,0.256404746747648,"fast","post_error",0.458661997318268,60.5902777777778
153.499270503677,0.1,"ahsaer12","2021_Jun_11_1337","Present_First","S_blue","MainTask",8,"Flanker","present",1,"H","None",0,NA,NA,"post_correct",0.458661997318268,60.5902777777778
153.582708154927,0.2,"ahsaer12","2021_Jun_11_1337","Present_First","S_blue","MainTask",8,"Target","present",1,"H","None",0,NA,NA,"post_correct",0.458661997318268,60.5902777777778
154.59937265766,0.1,"ahsaer12","2021_Jun_11_1337","Present_First","S_blue","MainTask",8,"TooSlowFeedback","present",1,"H","None",0,NA,NA,"post_correct",0.458661997318268,60.5902777777778
156.366040922487,0.1,"ahsaer12","2021_Jun_11_1337","Present_First","S_blue","MainTask",9,"Flanker","present",0,"S","2",0,0.498733311611431,"slow","post_error",0.458661997318268,60.5902777777778
156.4493333394,0.2,"ahsaer12","2021_Jun_11_1337","Present_First","S_blue","MainTask",9,"Target","present",0,"S","2",0,0.498733311611431,"slow","post_error",0.458661997318268,60.5902777777778
156.948066651012,0,"ahsaer12","2021_Jun_11_1337","Present_First","S_blue","MainTask",9,"Response","present",0,"S","2",0,0.498733311611431,"slow","post_error",0.458661997318268,60.5902777777778
156.982624373963,0.1,"ahsaer12","2021_Jun_11_1337","Present_First","S_blue","MainTask",9,"TooSlowFeedback","present",0,"S","2",0,0.498733311611431,"slow","post_error",0.458661997318268,60.5902777777778
158.749289489129,0.1,"ahsaer12","2021_Jun_11_1337","Present_First","S_blue","MainTask",10,"Flanker","present",1,"H","4",0,0.291416370744628,"fast","post_error",0.458661997318268,60.5902777777778
158.832622151702,0.2,"ahsaer12","2021_Jun_11_1337","Present_First","S_blue","MainTask",10,"Target","present",1,"H","4",0,0.291416370744628,"fast","post_error",0.458661997318268,60.5902777777778
159.124038522446,0,"ahsaer12","2021_Jun_11_1337","Present_First","S_blue","MainTask",10,"Response","present",1,"H","4",0,0.291416370744628,"fast","post_error",0.458661997318268,60.5902777777778
160.149290399031,0.1,"ahsaer12","2021_Jun_11_1337","Present_First","S_blue","MainTask",11,"Flanker","present",1,"H","4",0,0.120306174978396,"fast","post_error",0.458661997318268,60.5902777777778
160.23266120749,0.2,"ahsaer12","2021_Jun_11_1337","Present_First","S_blue","MainTask",11,"Target","present",1,"H","4",0,0.120306174978396,"fast","post_error",0.458661997318268,60.5902777777778
160.352967382469,0,"ahsaer12","2021_Jun_11_1337","Present_First","S_blue","MainTask",11,"Response","present",1,"H","4",0,0.120306174978396,"fast","post_error",0.458661997318268,60.5902777777778
161.182690096874,0.1,"ahsaer12","2021_Jun_11_1337","Present_First","S_blue","MainTask",12,"Flanker","present",1,"H","4",0,0.148986631793377,"fast","post_error",0.458661997318268,60.5902777777778
161.2660157602,0.2,"ahsaer12","2021_Jun_11_1337","Present_First","S_blue","MainTask",12,"Target","present",1,"H","4",0,0.148986631793377,"fast","post_error",0.458661997318268,60.5902777777778
161.415002391994,0,"ahsaer12","2021_Jun_11_1337","Present_First","S_blue","MainTask",12,"Response","present",1,"H","4",0,0.148986631793377,"fast","post_error",0.458661997318268,60.5902777777778
162.43268948444,0.1,"ahsaer12","2021_Jun_11_1337","Present_First","S_blue","MainTask",13,"Flanker","present",0.33,"H","4",0,0.179028791744713,"fast","post_error",0.458661997318268,60.5902777777778
162.515988550636,0.2,"ahsaer12","2021_Jun_11_1337","Present_First","S_blue","MainTask",13,"Target","present",0.33,"H","4",0,0.179028791744713,"fast","post_error",0.458661997318268,60.5902777777778
162.695017342381,0,"ahsaer12","2021_Jun_11_1337","Present_First","S_blue","MainTask",13,"Response","present",0.33,"H","4",0,0.179028791744713,"fast","post_error",0.458661997318268,60.5902777777778
163.682570234801,0.1,"ahsaer12","2021_Jun_11_1337","Present_First","S_blue","MainTask",14,"Flanker","present",0.33,"H","4",0,0.193094124799245,"fast","post_error",0.458661997318268,60.5902777777778
163.765896948014,0.2,"ahsaer12","2021_Jun_11_1337","Present_First","S_blue","MainTask",14,"Target","present",0.33,"H","4",0,0.193094124799245,"fast","post_error",0.458661997318268,60.5902777777778
163.958991072814,0,"ahsaer12","2021_Jun_11_1337","Present_First","S_blue","MainTask",14,"Response","present",0.33,"H","4",0,0.193094124799245,"fast","post_error",0.458661997318268,60.5902777777778
164.865959556262,0.1,"ahsaer12","2021_Jun_11_1337","Present_First","S_blue","MainTask",15,"Flanker","present",0,"S","4",1,0.213600163222509,"fast","post_error",0.458661997318268,60.5902777777778
164.949332464494,0.2,"ahsaer12","2021_Jun_11_1337","Present_First","S_blue","MainTask",15,"Target","present",0,"S","4",1,0.213600163222509,"fast","post_error",0.458661997318268,60.5902777777778
165.162932627716,0,"ahsaer12","2021_Jun_11_1337","Present_First","S_blue","MainTask",15,"Response","present",0,"S","4",1,0.213600163222509,"fast","post_error",0.458661997318268,60.5902777777778
166.166000396857,0.1,"ahsaer12","2021_Jun_11_1337","Present_First","S_blue","MainTask",16,"Flanker","present",1,"S","4",1,0.289529374256745,"fast","post_correct",0.458661997318268,60.5902777777778
166.249380654297,0.2,"ahsaer12","2021_Jun_11_1337","Present_First","S_blue","MainTask",16,"Target","present",1,"S","4",1,0.289529374256745,"fast","post_correct",0.458661997318268,60.5902777777778
166.538910028554,0,"ahsaer12","2021_Jun_11_1337","Present_First","S_blue","MainTask",16,"Response","present",1,"S","4",1,0.289529374256745,"fast","post_correct",0.458661997318268,60.5902777777778
167.349357521793,0.1,"ahsaer12","2021_Jun_11_1337","Present_First","S_blue","MainTask",17,"Flanker","present",0,"S","4",1,0.417343289525888,"fast","post_correct",0.458661997318268,60.5902777777778
167.432687734628,0.2,"ahsaer12","2021_Jun_11_1337","Present_First","S_blue","MainTask",17,"Target","present",0,"S","4",1,0.417343289525888,"fast","post_correct",0.458661997318268,60.5902777777778
167.850031024154,0,"ahsaer12","2021_Jun_11_1337","Present_First","S_blue","MainTask",17,"Response","present",0,"S","4",1,0.417343289525888,"fast","post_correct",0.458661997318268,60.5902777777778
168.865924560037,0.1,"ahsaer12","2021_Jun_11_1337","Present_First","S_blue","MainTask",18,"Flanker","present",1,"S","4",1,0.315655106596751,"fast","post_correct",0.458661997318268,60.5902777777778
168.949270171213,0.2,"ahsaer12","2021_Jun_11_1337","Present_First","S_blue","MainTask",18,"Target","present",1,"S","4",1,0.315655106596751,"fast","post_correct",0.458661997318268,60.5902777777778
169.26492527781,0,"ahsaer12","2021_Jun_11_1337","Present_First","S_blue","MainTask",18,"Response","present",1,"S","4",1,0.315655106596751,"fast","post_correct",0.458661997318268,60.5902777777778
170.232646159113,0.1,"ahsaer12","2021_Jun_11_1337","Present_First","S_blue","MainTask",19,"Flanker","present",1,"H","2",1,0.189928366226013,"fast","post_correct",0.458661997318268,60.5902777777778
170.315941725687,0.2,"ahsaer12","2021_Jun_11_1337","Present_First","S_blue","MainTask",19,"Target","present",1,"H","2",1,0.189928366226013,"fast","post_correct",0.458661997318268,60.5902777777778
170.505870091913,0,"ahsaer12","2021_Jun_11_1337","Present_First","S_blue","MainTask",19,"Response","present",1,"H","2",1,0.189928366226013,"fast","post_correct",0.458661997318268,60.5902777777778
171.332611127891,0.1,"ahsaer12","2021_Jun_11_1337","Present_First","S_blue","MainTask",20,"Flanker","present",1,"S","4",1,0.278924467995239,"fast","post_correct",0.458661997318268,60.5902777777778
171.415951489633,0.2,"ahsaer12","2021_Jun_11_1337","Present_First","S_blue","MainTask",20,"Target","present",1,"S","4",1,0.278924467995239,"fast","post_correct",0.458661997318268,60.5902777777778
171.694875957628,0,"ahsaer12","2021_Jun_11_1337","Present_First","S_blue","MainTask",20,"Response","present",1,"S","4",1,0.278924467995239,"fast","post_correct",0.458661997318268,60.5902777777778
172.532579561295,0.1,"ahsaer12","2021_Jun_11_1337","Present_First","S_blue","MainTask",21,"Flanker","present",1,"S","4",1,0.292928207692967,"fast","post_correct",0.458661997318268,60.5902777777778
172.615898575339,0.2,"ahsaer12","2021_Jun_11_1337","Present_First","S_blue","MainTask",21,"Target","present",1,"S","4",1,0.292928207692967,"fast","post_correct",0.458661997318268,60.5902777777778
172.908826783032,0,"ahsaer12","2021_Jun_11_1337","Present_First","S_blue","MainTask",21,"Response","present",1,"S","4",1,0.292928207692967,"fast","post_correct",0.458661997318268,60.5902777777778
173.849249908399,0.1,"ahsaer12","2021_Jun_11_1337","Present_First","S_blue","MainTask",22,"Flanker","present",1,"H","2",1,0.372260101748907,"fast","post_correct",0.458661997318268,60.5902777777778
173.932607768253,0.2,"ahsaer12","2021_Jun_11_1337","Present_First","S_blue","MainTask",22,"Target","present",1,"H","2",1,0.372260101748907,"fast","post_correct",0.458661997318268,60.5902777777778
174.304867870002,0,"ahsaer12","2021_Jun_11_1337","Present_First","S_blue","MainTask",22,"Response","present",1,"H","2",1,0.372260101748907,"fast","post_correct",0.458661997318268,60.5902777777778
175.199244711459,0.1,"ahsaer12","2021_Jun_11_1337","Present_First","S_blue","MainTask",23,"Flanker","present",1,"S","4",1,0.149129766354235,"fast","post_correct",0.458661997318268,60.5902777777778
175.28268271267,0.2,"ahsaer12","2021_Jun_11_1337","Present_First","S_blue","MainTask",23,"Target","present",1,"S","4",1,0.149129766354235,"fast","post_correct",0.458661997318268,60.5902777777778
175.431812479024,0,"ahsaer12","2021_Jun_11_1337","Present_First","S_blue","MainTask",23,"Response","present",1,"S","4",1,0.149129766354235,"fast","post_correct",0.458661997318268,60.5902777777778
176.449319690872,0.1,"ahsaer12","2021_Jun_11_1337","Present_First","S_blue","MainTask",24,"Flanker","present",0.66,"H","2",1,0.26515100346478,"fast","post_correct",0.458661997318268,60.5902777777778
176.5326082582,0.2,"ahsaer12","2021_Jun_11_1337","Present_First","S_blue","MainTask",24,"Target","present",0.66,"H","2",1,0.26515100346478,"fast","post_correct",0.458661997318268,60.5902777777778
176.797759261664,0,"ahsaer12","2021_Jun_11_1337","Present_First","S_blue","MainTask",24,"Response","present",0.66,"H","2",1,0.26515100346478,"fast","post_correct",0.458661997318268,60.5902777777778
177.615881427189,0.1,"ahsaer12","2021_Jun_11_1337","Present_First","S_blue","MainTask",25,"Flanker","present",0,"S","4",1,0.207533567505379,"fast","post_correct",0.458661997318268,60.5902777777778
177.699235787421,0.2,"ahsaer12","2021_Jun_11_1337","Present_First","S_blue","MainTask",25,"Target","present",0,"S","4",1,0.207533567505379,"fast","post_correct",0.458661997318268,60.5902777777778
177.906769354926,0,"ahsaer12","2021_Jun_11_1337","Present_First","S_blue","MainTask",25,"Response","present",0,"S","4",1,0.207533567505379,"fast","post_correct",0.458661997318268,60.5902777777778
178.915880972238,0.1,"ahsaer12","2021_Jun_11_1337","Present_First","S_blue","MainTask",26,"Flanker","present",0.33,"H","2",1,0.220369833114091,"fast","post_correct",0.458661997318268,60.5902777777778
178.999364118581,0.2,"ahsaer12","2021_Jun_11_1337","Present_First","S_blue","MainTask",26,"Target","present",0.33,"H","2",1,0.220369833114091,"fast","post_correct",0.458661997318268,60.5902777777778
179.219733951695,0,"ahsaer12","2021_Jun_11_1337","Present_First","S_blue","MainTask",26,"Response","present",0.33,"H","2",1,0.220369833114091,"fast","post_correct",0.458661997318268,60.5902777777778
180.132674191089,0.1,"ahsaer12","2021_Jun_11_1337","Present_First","S_blue","MainTask",27,"Flanker","present",0,"S","4",1,0.316888373588881,"fast","post_correct",0.458661997318268,60.5902777777778
180.215943510493,0.2,"ahsaer12","2021_Jun_11_1337","Present_First","S_blue","MainTask",27,"Target","present",0,"S","4",1,0.316888373588881,"fast","post_correct",0.458661997318268,60.5902777777778
180.532831884082,0,"ahsaer12","2021_Jun_11_1337","Present_First","S_blue","MainTask",27,"Response","present",0,"S","4",1,0.316888373588881,"fast","post_correct",0.458661997318268,60.5902777777778
181.549276610518,0.1,"ahsaer12","2021_Jun_11_1337","Present_First","S_blue","MainTask",28,"Flanker","present",0.66,"S","2",0,0.213237252362887,"fast","post_correct",0.458661997318268,60.5902777777778
181.632565877771,0.2,"ahsaer12","2021_Jun_11_1337","Present_First","S_blue","MainTask",28,"Target","present",0.66,"S","2",0,0.213237252362887,"fast","post_correct",0.458661997318268,60.5902777777778
181.845803130134,0,"ahsaer12","2021_Jun_11_1337","Present_First","S_blue","MainTask",28,"Response","present",0.66,"S","2",0,0.213237252362887,"fast","post_correct",0.458661997318268,60.5902777777778
182.682686422269,0.1,"ahsaer12","2021_Jun_11_1337","Present_First","S_blue","MainTask",29,"Flanker","present",0.66,"S","4",1,0.212805748898973,"fast","post_error",0.458661997318268,60.5902777777778
182.765873850505,0.2,"ahsaer12","2021_Jun_11_1337","Present_First","S_blue","MainTask",29,"Target","present",0.66,"S","4",1,0.212805748898973,"fast","post_error",0.458661997318268,60.5902777777778
182.978679599404,0,"ahsaer12","2021_Jun_11_1337","Present_First","S_blue","MainTask",29,"Response","present",0.66,"S","4",1,0.212805748898973,"fast","post_error",0.458661997318268,60.5902777777778
183.949235524949,0.1,"ahsaer12","2021_Jun_11_1337","Present_First","S_blue","MainTask",30,"Flanker","present",1,"H","2",1,0.237088579997362,"fast","post_correct",0.458661997318268,60.5902777777778
184.032593734766,0.2,"ahsaer12","2021_Jun_11_1337","Present_First","S_blue","MainTask",30,"Target","present",1,"H","2",1,0.237088579997362,"fast","post_correct",0.458661997318268,60.5902777777778
184.269682314763,0,"ahsaer12","2021_Jun_11_1337","Present_First","S_blue","MainTask",30,"Response","present",1,"H","2",1,0.237088579997362,"fast","post_correct",0.458661997318268,60.5902777777778
185.215902564909,0.1,"ahsaer12","2021_Jun_11_1337","Present_First","S_blue","MainTask",31,"Flanker","present",0.33,"H","4",0,0.21950542633931,"fast","post_correct",0.458661997318268,60.5902777777778
185.299263224462,0.2,"ahsaer12","2021_Jun_11_1337","Present_First","S_blue","MainTask",31,"Target","present",0.33,"H","4",0,0.21950542633931,"fast","post_correct",0.458661997318268,60.5902777777778
185.518768650802,0,"ahsaer12","2021_Jun_11_1337","Present_First","S_blue","MainTask",31,"Response","present",0.33,"H","4",0,0.21950542633931,"fast","post_correct",0.458661997318268,60.5902777777778
186.416005033858,0.1,"ahsaer12","2021_Jun_11_1337","Present_First","S_blue","MainTask",32,"Flanker","present",1,"H","2",1,0.364560582142076,"fast","post_error",0.458661997318268,60.5902777777778
186.49919806149,0.2,"ahsaer12","2021_Jun_11_1337","Present_First","S_blue","MainTask",32,"Target","present",1,"H","2",1,0.364560582142076,"fast","post_error",0.458661997318268,60.5902777777778
186.863758643633,0,"ahsaer12","2021_Jun_11_1337","Present_First","S_blue","MainTask",32,"Response","present",1,"H","2",1,0.364560582142076,"fast","post_error",0.458661997318268,60.5902777777778
187.732565842774,0.1,"ahsaer12","2021_Jun_11_1337","Present_First","S_blue","MainTask",33,"Flanker","present",0.66,"S","4",1,0.240726087691655,"fast","post_correct",0.458661997318268,60.5902777777778
187.81592545244,0.2,"ahsaer12","2021_Jun_11_1337","Present_First","S_blue","MainTask",33,"Target","present",0.66,"S","4",1,0.240726087691655,"fast","post_correct",0.458661997318268,60.5902777777778
188.056651540131,0,"ahsaer12","2021_Jun_11_1337","Present_First","S_blue","MainTask",33,"Response","present",0.66,"S","4",1,0.240726087691655,"fast","post_correct",0.458661997318268,60.5902777777778
188.949133335971,0.1,"ahsaer12","2021_Jun_11_1337","Present_First","S_blue","MainTask",34,"Flanker","present",0.33,"S","4",1,0.242158133245539,"fast","post_correct",0.458661997318268,60.5902777777778
189.032541940353,0.2,"ahsaer12","2021_Jun_11_1337","Present_First","S_blue","MainTask",34,"Target","present",0.33,"S","4",1,0.242158133245539,"fast","post_correct",0.458661997318268,60.5902777777778
189.274700073598,0,"ahsaer12","2021_Jun_11_1337","Present_First","S_blue","MainTask",34,"Response","present",0.33,"S","4",1,0.242158133245539,"fast","post_correct",0.458661997318268,60.5902777777778
190.299269523783,0.1,"ahsaer12","2021_Jun_11_1337","Present_First","S_blue","MainTask",35,"Flanker","present",1,"H","4",0,0.271116110126968,"fast","post_correct",0.458661997318268,60.5902777777778
190.382600786506,0.2,"ahsaer12","2021_Jun_11_1337","Present_First","S_blue","MainTask",35,"Target","present",1,"H","4",0,0.271116110126968,"fast","post_correct",0.458661997318268,60.5902777777778
190.653716896633,0,"ahsaer12","2021_Jun_11_1337","Present_First","S_blue","MainTask",35,"Response","present",1,"H","4",0,0.271116110126968,"fast","post_correct",0.458661997318268,60.5902777777778
191.615952819489,0.1,"ahsaer12","2021_Jun_11_1337","Present_First","S_blue","MainTask",36,"Flanker","present",1,"H","2",1,0.129374047008241,"fast","post_error",0.458661997318268,60.5902777777778
191.699284082213,0.2,"ahsaer12","2021_Jun_11_1337","Present_First","S_blue","MainTask",36,"Target","present",1,"H","2",1,0.129374047008241,"fast","post_error",0.458661997318268,60.5902777777778
191.828658129221,0,"ahsaer12","2021_Jun_11_1337","Present_First","S_blue","MainTask",36,"Response","present",1,"H","2",1,0.129374047008241,"fast","post_error",0.458661997318268,60.5902777777778
192.832570007326,0.1,"ahsaer12","2021_Jun_11_1337","Present_First","S_blue","MainTask",37,"Flanker","present",1,"H","2",1,0.198694570790394,"fast","post_correct",0.458661997318268,60.5902777777778
192.915944315406,0.2,"ahsaer12","2021_Jun_11_1337","Present_First","S_blue","MainTask",37,"Target","present",1,"H","2",1,0.198694570790394,"fast","post_correct",0.458661997318268,60.5902777777778
193.114638886196,0,"ahsaer12","2021_Jun_11_1337","Present_First","S_blue","MainTask",37,"Response","present",1,"H","2",1,0.198694570790394,"fast","post_correct",0.458661997318268,60.5902777777778
193.966016565115,0.1,"ahsaer12","2021_Jun_11_1337","Present_First","S_blue","MainTask",38,"Flanker","present",0.33,"S","4",1,0.240287235021242,"fast","post_correct",0.458661997318268,60.5902777777778
194.049335929121,0.2,"ahsaer12","2021_Jun_11_1337","Present_First","S_blue","MainTask",38,"Target","present",0.33,"S","4",1,0.240287235021242,"fast","post_correct",0.458661997318268,60.5902777777778
194.289623164143,0,"ahsaer12","2021_Jun_11_1337","Present_First","S_blue","MainTask",38,"Response","present",0.33,"S","4",1,0.240287235021242,"fast","post_correct",0.458661997318268,60.5902777777778
195.182576359141,0.1,"ahsaer12","2021_Jun_11_1337","Present_First","S_blue","MainTask",39,"Flanker","present",1,"H","2",1,0.310692991761243,"fast","post_correct",0.458661997318268,60.5902777777778
195.26591952058,0.2,"ahsaer12","2021_Jun_11_1337","Present_First","S_blue","MainTask",39,"Target","present",1,"H","2",1,0.310692991761243,"fast","post_correct",0.458661997318268,60.5902777777778
195.576612512341,0,"ahsaer12","2021_Jun_11_1337","Present_First","S_blue","MainTask",39,"Response","present",1,"H","2",1,0.310692991761243,"fast","post_correct",0.458661997318268,60.5902777777778
196.382576989072,0.1,"ahsaer12","2021_Jun_11_1337","Present_First","S_blue","MainTask",40,"Flanker","present",0.66,"S","4",1,0.348739488446881,"fast","post_correct",0.458661997318268,60.5902777777778
196.465909301683,0.2,"ahsaer12","2021_Jun_11_1337","Present_First","S_blue","MainTask",40,"Target","present",0.66,"S","4",1,0.348739488446881,"fast","post_correct",0.458661997318268,60.5902777777778
196.81464879013,0,"ahsaer12","2021_Jun_11_1337","Present_First","S_blue","MainTask",40,"Response","present",0.66,"S","4",1,0.348739488446881,"fast","post_correct",0.458661997318268,60.5902777777778
197.61598081647,0.1,"ahsaer12","2021_Jun_11_1337","Present_First","S_blue","MainTask",41,"Flanker","present",1,"S","4",1,0.298300828255378,"fast","post_correct",0.458661997318268,60.5902777777778
197.69930403006,0.2,"ahsaer12","2021_Jun_11_1337","Present_First","S_blue","MainTask",41,"Target","present",1,"S","4",1,0.298300828255378,"fast","post_correct",0.458661997318268,60.5902777777778
197.997604858316,0,"ahsaer12","2021_Jun_11_1337","Present_First","S_blue","MainTask",41,"Response","present",1,"S","4",1,0.298300828255378,"fast","post_correct",0.458661997318268,60.5902777777778
198.882575414242,0.1,"ahsaer12","2021_Jun_11_1337","Present_First","S_blue","MainTask",42,"Flanker","present",0,"S","4",1,0.430689450142381,"fast","post_correct",0.458661997318268,60.5902777777778
198.965910526551,0.2,"ahsaer12","2021_Jun_11_1337","Present_First","S_blue","MainTask",42,"Target","present",0,"S","4",1,0.430689450142381,"fast","post_correct",0.458661997318268,60.5902777777778
199.396599976693,0,"ahsaer12","2021_Jun_11_1337","Present_First","S_blue","MainTask",42,"Response","present",0,"S","4",1,0.430689450142381,"fast","post_correct",0.458661997318268,60.5902777777778
200.349244833946,0.1,"ahsaer12","2021_Jun_11_1337","Present_First","S_blue","MainTask",43,"Flanker","present",1,"S","4",1,0.250066930282628,"fast","post_correct",0.458661997318268,60.5902777777778
200.432522902405,0.2,"ahsaer12","2021_Jun_11_1337","Present_First","S_blue","MainTask",43,"Target","present",1,"S","4",1,0.250066930282628,"fast","post_correct",0.458661997318268,60.5902777777778
200.682589832688,0,"ahsaer12","2021_Jun_11_1337","Present_First","S_blue","MainTask",43,"Response","present",1,"S","4",1,0.250066930282628,"fast","post_correct",0.458661997318268,60.5902777777778
201.715967132946,0.1,"ahsaer12","2021_Jun_11_1337","Present_First","S_blue","MainTask",44,"Flanker","present",1,"S","4",1,0.211384552174422,"fast","post_correct",0.458661997318268,60.5902777777778
201.799205305708,0.2,"ahsaer12","2021_Jun_11_1337","Present_First","S_blue","MainTask",44,"Target","present",1,"S","4",1,0.211384552174422,"fast","post_correct",0.458661997318268,60.5902777777778
202.010589857882,0,"ahsaer12","2021_Jun_11_1337","Present_First","S_blue","MainTask",44,"Response","present",1,"S","4",1,0.211384552174422,"fast","post_correct",0.458661997318268,60.5902777777778
202.849270906134,0.1,"ahsaer12","2021_Jun_11_1337","Present_First","S_blue","MainTask",45,"Flanker","present",1,"S","4",1,0.221911766817357,"fast","post_correct",0.458661997318268,60.5902777777778
202.93265536312,0.2,"ahsaer12","2021_Jun_11_1337","Present_First","S_blue","MainTask",45,"Target","present",1,"S","4",1,0.221911766817357,"fast","post_correct",0.458661997318268,60.5902777777778
203.154567129937,0,"ahsaer12","2021_Jun_11_1337","Present_First","S_blue","MainTask",45,"Response","present",1,"S","4",1,0.221911766817357,"fast","post_correct",0.458661997318268,60.5902777777778
204.199312254173,0.1,"ahsaer12","2021_Jun_11_1337","Present_First","S_blue","MainTask",46,"Flanker","present",0.66,"H","2",1,0.247930760668169,"fast","post_correct",0.458661997318268,60.5902777777778
204.282601871389,0.2,"ahsaer12","2021_Jun_11_1337","Present_First","S_blue","MainTask",46,"Target","present",0.66,"H","2",1,0.247930760668169,"fast","post_correct",0.458661997318268,60.5902777777778
204.530532632058,0,"ahsaer12","2021_Jun_11_1337","Present_First","S_blue","MainTask",46,"Response","present",0.66,"H","2",1,0.247930760668169,"fast","post_correct",0.458661997318268,60.5902777777778
205.449205253215,0.1,"ahsaer12","2021_Jun_11_1337","Present_First","S_blue","MainTask",47,"Flanker","present",1,"H","2",1,0.245869832939206,"fast","post_correct",0.458661997318268,60.5902777777778
205.532593209824,0.2,"ahsaer12","2021_Jun_11_1337","Present_First","S_blue","MainTask",47,"Target","present",1,"H","2",1,0.245869832939206,"fast","post_correct",0.458661997318268,60.5902777777778
205.778463042763,0,"ahsaer12","2021_Jun_11_1337","Present_First","S_blue","MainTask",47,"Response","present",1,"H","2",1,0.245869832939206,"fast","post_correct",0.458661997318268,60.5902777777778
206.682509691331,0.1,"ahsaer12","2021_Jun_11_1337","Present_First","S_blue","MainTask",48,"Flanker","present",0,"S","4",1,0.351684770797874,"fast","post_correct",0.458661997318268,60.5902777777778
206.765899747714,0.2,"ahsaer12","2021_Jun_11_1337","Present_First","S_blue","MainTask",48,"Target","present",0,"S","4",1,0.351684770797874,"fast","post_correct",0.458661997318268,60.5902777777778
207.117584518512,0,"ahsaer12","2021_Jun_11_1337","Present_First","S_blue","MainTask",48,"Response","present",0,"S","4",1,0.351684770797874,"fast","post_correct",0.458661997318268,60.5902777777778
207.949319865853,0.1,"ahsaer12","2021_Jun_11_1337","Present_First","S_blue","MainTask",49,"Flanker","present",0,"H","4",0,0.28178365963322,"fast","post_correct",0.458661997318268,60.5902777777778
208.032656378011,0.2,"ahsaer12","2021_Jun_11_1337","Present_First","S_blue","MainTask",49,"Target","present",0,"H","4",0,0.28178365963322,"fast","post_correct",0.458661997318268,60.5902777777778
208.314440037644,0,"ahsaer12","2021_Jun_11_1337","Present_First","S_blue","MainTask",49,"Response","present",0,"H","4",0,0.28178365963322,"fast","post_correct",0.458661997318268,60.5902777777778
209.149286899408,0.1,"ahsaer12","2021_Jun_11_1337","Present_First","S_blue","MainTask",50,"Flanker","present",1,"H","2",1,0.11192212919741,"fast","post_error",0.458661997318268,60.5902777777778
209.232542920246,0.2,"ahsaer12","2021_Jun_11_1337","Present_First","S_blue","MainTask",50,"Target","present",1,"H","2",1,0.11192212919741,"fast","post_error",0.458661997318268,60.5902777777778
209.344465049444,0,"ahsaer12","2021_Jun_11_1337","Present_First","S_blue","MainTask",50,"Response","present",1,"H","2",1,0.11192212919741,"fast","post_error",0.458661997318268,60.5902777777778
210.382572789526,0.1,"ahsaer12","2021_Jun_11_1337","Present_First","S_blue","MainTask",51,"Flanker","present",0.66,"H","4",0,0.271541314268688,"fast","post_correct",0.458661997318268,60.5902777777778
210.465900202664,0.2,"ahsaer12","2021_Jun_11_1337","Present_First","S_blue","MainTask",51,"Target","present",0.66,"H","4",0,0.271541314268688,"fast","post_correct",0.458661997318268,60.5902777777778
210.737441516932,0,"ahsaer12","2021_Jun_11_1337","Present_First","S_blue","MainTask",51,"Response","present",0.66,"H","4",0,0.271541314268688,"fast","post_correct",0.458661997318268,60.5902777777778
211.765809107488,0.1,"ahsaer12","2021_Jun_11_1337","Present_First","S_blue","MainTask",52,"Flanker","present",0.33,"H","None",0,NA,NA,"post_error",0.458661997318268,60.5902777777778
211.849177466211,0.2,"ahsaer12","2021_Jun_11_1337","Present_First","S_blue","MainTask",52,"Target","present",0.33,"H","None",0,NA,NA,"post_error",0.458661997318268,60.5902777777778
212.865892713471,0.1,"ahsaer12","2021_Jun_11_1337","Present_First","S_blue","MainTask",52,"TooSlowFeedback","present",0.33,"H","None",0,NA,NA,"post_error",0.458661997318268,60.5902777777778
214.665971524972,0.1,"ahsaer12","2021_Jun_11_1337","Present_First","S_blue","MainTask",53,"Flanker","present",0,"H","4",0,0.293136085274455,"fast","post_error",0.458661997318268,60.5902777777778
214.749316086261,0.2,"ahsaer12","2021_Jun_11_1337","Present_First","S_blue","MainTask",53,"Target","present",0,"H","4",0,0.293136085274455,"fast","post_error",0.458661997318268,60.5902777777778
215.042452171536,0,"ahsaer12","2021_Jun_11_1337","Present_First","S_blue","MainTask",53,"Response","present",0,"H","4",0,0.293136085274455,"fast","post_error",0.458661997318268,60.5902777777778
216.032614032578,0.1,"ahsaer12","2021_Jun_11_1337","Present_First","S_blue","MainTask",54,"Flanker","present",1,"H","2",1,0.543468286945426,"slow","post_error",0.458661997318268,60.5902777777778
216.115969092734,0.2,"ahsaer12","2021_Jun_11_1337","Present_First","S_blue","MainTask",54,"Target","present",1,"H","2",1,0.543468286945426,"slow","post_error",0.458661997318268,60.5902777777778
216.65943737968,0,"ahsaer12","2021_Jun_11_1337","Present_First","S_blue","MainTask",54,"Response","present",1,"H","2",1,0.543468286945426,"slow","post_error",0.458661997318268,60.5902777777778
216.699199391347,0.1,"ahsaer12","2021_Jun_11_1337","Present_First","S_blue","MainTask",54,"TooSlowFeedback","present",1,"H","2",1,0.543468286945426,"slow","post_error",0.458661997318268,60.5902777777778
218.482566455208,0.1,"ahsaer12","2021_Jun_11_1337","Present_First","S_blue","MainTask",55,"Flanker","present",1,"H","None",0,NA,NA,"post_correct",0.458661997318268,60.5902777777778
218.565942863062,0.2,"ahsaer12","2021_Jun_11_1337","Present_First","S_blue","MainTask",55,"Target","present",1,"H","None",0,NA,NA,"post_correct",0.458661997318268,60.5902777777778
219.582616464815,0.1,"ahsaer12","2021_Jun_11_1337","Present_First","S_blue","MainTask",55,"TooSlowFeedback","present",1,"H","None",0,NA,NA,"post_correct",0.458661997318268,60.5902777777778
221.432550199463,0.1,"ahsaer12","2021_Jun_11_1337","Present_First","S_blue","MainTask",56,"Flanker","present",0.33,"H","2",1,0.413556697909371,"fast","post_error",0.458661997318268,60.5902777777778
221.515839116752,0.2,"ahsaer12","2021_Jun_11_1337","Present_First","S_blue","MainTask",56,"Target","present",0.33,"H","2",1,0.413556697909371,"fast","post_error",0.458661997318268,60.5902777777778
221.929395814661,0,"ahsaer12","2021_Jun_11_1337","Present_First","S_blue","MainTask",56,"Response","present",0.33,"H","2",1,0.413556697909371,"fast","post_error",0.458661997318268,60.5902777777778
222.749301037884,0.1,"ahsaer12","2021_Jun_11_1337","Present_First","S_blue","MainTask",57,"Flanker","present",0.66,"H","2",1,0.337882259398611,"fast","post_correct",0.458661997318268,60.5902777777778
222.832500714798,0.2,"ahsaer12","2021_Jun_11_1337","Present_First","S_blue","MainTask",57,"Target","present",0.66,"H","2",1,0.337882259398611,"fast","post_correct",0.458661997318268,60.5902777777778
223.170382974196,0,"ahsaer12","2021_Jun_11_1337","Present_First","S_blue","MainTask",57,"Response","present",0.66,"H","2",1,0.337882259398611,"fast","post_correct",0.458661997318268,60.5902777777778
224.115962443451,0.1,"ahsaer12","2021_Jun_11_1337","Present_First","S_blue","MainTask",58,"Flanker","present",1,"H","2",1,0.211046488635475,"fast","post_correct",0.458661997318268,60.5902777777778
224.199281807458,0.2,"ahsaer12","2021_Jun_11_1337","Present_First","S_blue","MainTask",58,"Target","present",1,"H","2",1,0.211046488635475,"fast","post_correct",0.458661997318268,60.5902777777778
224.410328296093,0,"ahsaer12","2021_Jun_11_1337","Present_First","S_blue","MainTask",58,"Response","present",1,"H","2",1,0.211046488635475,"fast","post_correct",0.458661997318268,60.5902777777778
225.332533436269,0.1,"ahsaer12","2021_Jun_11_1337","Present_First","S_blue","MainTask",59,"Flanker","present",1,"S","4",1,0.27748612312098,"fast","post_correct",0.458661997318268,60.5902777777778
225.415827253031,0.2,"ahsaer12","2021_Jun_11_1337","Present_First","S_blue","MainTask",59,"Target","present",1,"S","4",1,0.27748612312098,"fast","post_correct",0.458661997318268,60.5902777777778
225.693313376152,0,"ahsaer12","2021_Jun_11_1337","Present_First","S_blue","MainTask",59,"Response","present",1,"S","4",1,0.27748612312098,"fast","post_correct",0.458661997318268,60.5902777777778
226.599219374191,0.1,"ahsaer12","2021_Jun_11_1337","Present_First","S_blue","MainTask",60,"Flanker","present",0.66,"H","2",1,0.275762908970137,"fast","post_correct",0.458661997318268,60.5902777777778
226.682544687555,0.2,"ahsaer12","2021_Jun_11_1337","Present_First","S_blue","MainTask",60,"Target","present",0.66,"H","2",1,0.275762908970137,"fast","post_correct",0.458661997318268,60.5902777777778
226.958307596526,0,"ahsaer12","2021_Jun_11_1337","Present_First","S_blue","MainTask",60,"Response","present",0.66,"H","2",1,0.275762908970137,"fast","post_correct",0.458661997318268,60.5902777777778
227.832616202344,0.1,"ahsaer12","2021_Jun_11_1337","Present_First","S_blue","MainTask",61,"Flanker","present",0,"S","2",0,0.236506592764272,"fast","post_correct",0.458661997318268,60.5902777777778
227.915824278352,0.2,"ahsaer12","2021_Jun_11_1337","Present_First","S_blue","MainTask",61,"Target","present",0,"S","2",0,0.236506592764272,"fast","post_correct",0.458661997318268,60.5902777777778
228.152330871117,0,"ahsaer12","2021_Jun_11_1337","Present_First","S_blue","MainTask",61,"Response","present",0,"S","2",0,0.236506592764272,"fast","post_correct",0.458661997318268,60.5902777777778
229.115862004284,0.1,"ahsaer12","2021_Jun_11_1337","Present_First","S_blue","MainTask",62,"Flanker","present",0.33,"S","4",1,0.243124728998737,"fast","post_error",0.458661997318268,60.5902777777778
229.199170169499,0.2,"ahsaer12","2021_Jun_11_1337","Present_First","S_blue","MainTask",62,"Target","present",0.33,"S","4",1,0.243124728998737,"fast","post_error",0.458661997318268,60.5902777777778
229.442294898497,0,"ahsaer12","2021_Jun_11_1337","Present_First","S_blue","MainTask",62,"Response","present",0.33,"S","4",1,0.243124728998737,"fast","post_error",0.458661997318268,60.5902777777778
230.332498440044,0.1,"ahsaer12","2021_Jun_11_1337","Present_First","S_blue","MainTask",63,"Flanker","present",0.33,"S","4",1,0.212395593136534,"fast","post_correct",0.458661997318268,60.5902777777778
230.415874847899,0.2,"ahsaer12","2021_Jun_11_1337","Present_First","S_blue","MainTask",63,"Target","present",0.33,"S","4",1,0.212395593136534,"fast","post_correct",0.458661997318268,60.5902777777778
230.628270441035,0,"ahsaer12","2021_Jun_11_1337","Present_First","S_blue","MainTask",63,"Response","present",0.33,"S","4",1,0.212395593136534,"fast","post_correct",0.458661997318268,60.5902777777778
231.532524267259,0.1,"ahsaer12","2021_Jun_11_1337","Present_First","S_blue","MainTask",64,"Flanker","present",1,"H","2",1,0.252383330456723,"fast","post_correct",0.458661997318268,60.5902777777778
231.615880027341,0.2,"ahsaer12","2021_Jun_11_1337","Present_First","S_blue","MainTask",64,"Target","present",1,"H","2",1,0.252383330456723,"fast","post_correct",0.458661997318268,60.5902777777778
231.868263357797,0,"ahsaer12","2021_Jun_11_1337","Present_First","S_blue","MainTask",64,"Response","present",1,"H","2",1,0.252383330456723,"fast","post_correct",0.458661997318268,60.5902777777778
232.899239217051,0.1,"ahsaer12","2021_Jun_11_1337","Present_First","S_blue","MainTask",65,"Flanker","present",1,"H","2",1,0.268675123388675,"fast","post_correct",0.458661997318268,60.5902777777778
232.982572579547,0.2,"ahsaer12","2021_Jun_11_1337","Present_First","S_blue","MainTask",65,"Target","present",1,"H","2",1,0.268675123388675,"fast","post_correct",0.458661997318268,60.5902777777778
233.251247702936,0,"ahsaer12","2021_Jun_11_1337","Present_First","S_blue","MainTask",65,"Response","present",1,"H","2",1,0.268675123388675,"fast","post_correct",0.458661997318268,60.5902777777778
234.23262096183,0.1,"ahsaer12","2021_Jun_11_1337","Present_First","S_blue","MainTask",66,"Flanker","present",1,"H","2",1,0.237318505200165,"fast","post_correct",0.458661997318268,60.5902777777778
234.315946975119,0.2,"ahsaer12","2021_Jun_11_1337","Present_First","S_blue","MainTask",66,"Target","present",1,"H","2",1,0.237318505200165,"fast","post_correct",0.458661997318268,60.5902777777778
234.553265480319,0,"ahsaer12","2021_Jun_11_1337","Present_First","S_blue","MainTask",66,"Response","present",1,"H","2",1,0.237318505200165,"fast","post_correct",0.458661997318268,60.5902777777778
235.449147509442,0.1,"ahsaer12","2021_Jun_11_1337","Present_First","S_blue","MainTask",67,"Flanker","present",1,"S","4",1,0.309621407330269,"fast","post_correct",0.458661997318268,60.5902777777778
235.532595309596,0.2,"ahsaer12","2021_Jun_11_1337","Present_First","S_blue","MainTask",67,"Target","present",1,"S","4",1,0.309621407330269,"fast","post_correct",0.458661997318268,60.5902777777778
235.842216716926,0,"ahsaer12","2021_Jun_11_1337","Present_First","S_blue","MainTask",67,"Response","present",1,"S","4",1,0.309621407330269,"fast","post_correct",0.458661997318268,60.5902777777778
236.882614260052,0.1,"ahsaer12","2021_Jun_11_1337","Present_First","S_blue","MainTask",68,"Flanker","present",1,"S","4",1,0.218278808630203,"fast","post_correct",0.458661997318268,60.5902777777778
236.965946572664,0.2,"ahsaer12","2021_Jun_11_1337","Present_First","S_blue","MainTask",68,"Target","present",1,"S","4",1,0.218278808630203,"fast","post_correct",0.458661997318268,60.5902777777778
237.184225381294,0,"ahsaer12","2021_Jun_11_1337","Present_First","S_blue","MainTask",68,"Response","present",1,"S","4",1,0.218278808630203,"fast","post_correct",0.458661997318268,60.5902777777778
238.199279357723,0.1,"ahsaer12","2021_Jun_11_1337","Present_First","S_blue","MainTask",69,"Flanker","present",1,"S","4",1,0.200677456936319,"fast","post_correct",0.458661997318268,60.5902777777778
238.282626018785,0.2,"ahsaer12","2021_Jun_11_1337","Present_First","S_blue","MainTask",69,"Target","present",1,"S","4",1,0.200677456936319,"fast","post_correct",0.458661997318268,60.5902777777778
238.483303475721,0,"ahsaer12","2021_Jun_11_1337","Present_First","S_blue","MainTask",69,"Response","present",1,"S","4",1,0.200677456936319,"fast","post_correct",0.458661997318268,60.5902777777778
239.349156993419,0.1,"ahsaer12","2021_Jun_11_1337","Present_First","S_blue","MainTask",70,"Flanker","present",0.33,"S","4",1,0.273630238978512,"fast","post_correct",0.458661997318268,60.5902777777778
239.432486506332,0.2,"ahsaer12","2021_Jun_11_1337","Present_First","S_blue","MainTask",70,"Target","present",0.33,"S","4",1,0.273630238978512,"fast","post_correct",0.458661997318268,60.5902777777778
239.70611674531,0,"ahsaer12","2021_Jun_11_1337","Present_First","S_blue","MainTask",70,"Response","present",0.33,"S","4",1,0.273630238978512,"fast","post_correct",0.458661997318268,60.5902777777778
240.632504984338,0.1,"ahsaer12","2021_Jun_11_1337","Present_First","S_blue","MainTask",71,"Flanker","present",1,"S","4",1,0.218341101912301,"fast","post_correct",0.458661997318268,60.5902777777778
240.715877192646,0.2,"ahsaer12","2021_Jun_11_1337","Present_First","S_blue","MainTask",71,"Target","present",1,"S","4",1,0.218341101912301,"fast","post_correct",0.458661997318268,60.5902777777778
240.934218294558,0,"ahsaer12","2021_Jun_11_1337","Present_First","S_blue","MainTask",71,"Response","present",1,"S","4",1,0.218341101912301,"fast","post_correct",0.458661997318268,60.5902777777778
241.832547259779,0.1,"ahsaer12","2021_Jun_11_1337","Present_First","S_blue","MainTask",72,"Flanker","present",0,"H","4",0,0.212223761667701,"fast","post_correct",0.458661997318268,60.5902777777778
241.915962863406,0.2,"ahsaer12","2021_Jun_11_1337","Present_First","S_blue","MainTask",72,"Target","present",0,"H","4",0,0.212223761667701,"fast","post_correct",0.458661997318268,60.5902777777778
242.128186625074,0,"ahsaer12","2021_Jun_11_1337","Present_First","S_blue","MainTask",72,"Response","present",0,"H","4",0,0.212223761667701,"fast","post_correct",0.458661997318268,60.5902777777778
243.065938838497,0.1,"ahsaer12","2021_Jun_11_1337","Present_First","S_blue","MainTask",73,"Flanker","present",0.66,"S","4",1,0.300868151369286,"fast","post_error",0.458661997318268,60.5902777777778
243.149257852541,0.2,"ahsaer12","2021_Jun_11_1337","Present_First","S_blue","MainTask",73,"Target","present",0.66,"S","4",1,0.300868151369286,"fast","post_error",0.458661997318268,60.5902777777778
243.450126003911,0,"ahsaer12","2021_Jun_11_1337","Present_First","S_blue","MainTask",73,"Response","present",0.66,"S","4",1,0.300868151369286,"fast","post_error",0.458661997318268,60.5902777777778
244.382584688243,0.1,"ahsaer12","2021_Jun_11_1337","Present_First","S_blue","MainTask",74,"Flanker","present",0,"S","2",0,0.242210627582608,"fast","post_correct",0.458661997318268,60.5902777777778
244.465880604777,0.2,"ahsaer12","2021_Jun_11_1337","Present_First","S_blue","MainTask",74,"Target","present",0,"S","2",0,0.242210627582608,"fast","post_correct",0.458661997318268,60.5902777777778
244.70809123236,0,"ahsaer12","2021_Jun_11_1337","Present_First","S_blue","MainTask",74,"Response","present",0,"S","2",0,0.242210627582608,"fast","post_correct",0.458661997318268,60.5902777777778
245.715935636343,0.1,"ahsaer12","2021_Jun_11_1337","Present_First","S_blue","MainTask",75,"Flanker","present",1,"S","4",1,0.0990043223846442,"fast","post_error",0.458661997318268,60.5902777777778
245.799140212728,0.2,"ahsaer12","2021_Jun_11_1337","Present_First","S_blue","MainTask",75,"Target","present",1,"S","4",1,0.0990043223846442,"fast","post_error",0.458661997318268,60.5902777777778
245.898144535113,0,"ahsaer12","2021_Jun_11_1337","Present_First","S_blue","MainTask",75,"Response","present",1,"S","4",1,0.0990043223846442,"fast","post_error",0.458661997318268,60.5902777777778
246.915862074276,0.1,"ahsaer12","2021_Jun_11_1337","Present_First","S_blue","MainTask",76,"Flanker","present",0.33,"S","4",1,0.224952938826391,"fast","post_correct",0.458661997318268,60.5902777777778
246.999187737603,0.2,"ahsaer12","2021_Jun_11_1337","Present_First","S_blue","MainTask",76,"Target","present",0.33,"S","4",1,0.224952938826391,"fast","post_correct",0.458661997318268,60.5902777777778
247.22414067643,0,"ahsaer12","2021_Jun_11_1337","Present_First","S_blue","MainTask",76,"Response","present",0.33,"S","4",1,0.224952938826391,"fast","post_correct",0.458661997318268,60.5902777777778
248.232525772097,0.1,"ahsaer12","2021_Jun_11_1337","Present_First","S_blue","MainTask",77,"Flanker","present",0.33,"S","4",1,0.247244834643425,"fast","post_correct",0.458661997318268,60.5902777777778
248.315851785386,0.2,"ahsaer12","2021_Jun_11_1337","Present_First","S_blue","MainTask",77,"Target","present",0.33,"S","4",1,0.247244834643425,"fast","post_correct",0.458661997318268,60.5902777777778
248.56309662003,0,"ahsaer12","2021_Jun_11_1337","Present_First","S_blue","MainTask",77,"Response","present",0.33,"S","4",1,0.247244834643425,"fast","post_correct",0.458661997318268,60.5902777777778
249.399127754072,0.1,"ahsaer12","2021_Jun_11_1337","Present_First","S_blue","MainTask",78,"Flanker","present",0.33,"H","2",1,0.263598920855657,"fast","post_correct",0.458661997318268,60.5902777777778
249.482465666078,0.2,"ahsaer12","2021_Jun_11_1337","Present_First","S_blue","MainTask",78,"Target","present",0.33,"H","2",1,0.263598920855657,"fast","post_correct",0.458661997318268,60.5902777777778
249.746064586934,0,"ahsaer12","2021_Jun_11_1337","Present_First","S_blue","MainTask",78,"Response","present",0.33,"H","2",1,0.263598920855657,"fast","post_correct",0.458661997318268,60.5902777777778
250.782526804485,0.1,"ahsaer12","2021_Jun_11_1337","Present_First","S_blue","MainTask",79,"Flanker","present",0.33,"H","4",0,0.10121328414607,"fast","post_correct",0.458661997318268,60.5902777777778
250.865856317398,0.2,"ahsaer12","2021_Jun_11_1337","Present_First","S_blue","MainTask",79,"Target","present",0.33,"H","4",0,0.10121328414607,"fast","post_correct",0.458661997318268,60.5902777777778
250.967069601544,0,"ahsaer12","2021_Jun_11_1337","Present_First","S_blue","MainTask",79,"Response","present",0.33,"H","4",0,0.10121328414607,"fast","post_correct",0.458661997318268,60.5902777777778
251.982472840305,0.1,"ahsaer12","2021_Jun_11_1337","Present_First","S_blue","MainTask",80,"Flanker","present",1,"S","4",1,0.104190413063407,"fast","post_error",0.458661997318268,60.5902777777778
252.065851347932,0.2,"ahsaer12","2021_Jun_11_1337","Present_First","S_blue","MainTask",80,"Target","present",1,"S","4",1,0.104190413063407,"fast","post_error",0.458661997318268,60.5902777777778
252.170041760995,0,"ahsaer12","2021_Jun_11_1337","Present_First","S_blue","MainTask",80,"Response","present",1,"S","4",1,0.104190413063407,"fast","post_error",0.458661997318268,60.5902777777778
253.015867638676,0.1,"ahsaer12","2021_Jun_11_1337","Present_First","S_blue","MainTask",81,"Flanker","present",0.66,"S","4",1,0.27786338243277,"fast","post_correct",0.458661997318268,60.5902777777778
253.09921289989,0.2,"ahsaer12","2021_Jun_11_1337","Present_First","S_blue","MainTask",81,"Target","present",0.66,"S","4",1,0.27786338243277,"fast","post_correct",0.458661997318268,60.5902777777778
253.377076282322,0,"ahsaer12","2021_Jun_11_1337","Present_First","S_blue","MainTask",81,"Response","present",0.66,"S","4",1,0.27786338243277,"fast","post_correct",0.458661997318268,60.5902777777778
254.299261124688,0.1,"ahsaer12","2021_Jun_11_1337","Present_First","S_blue","MainTask",82,"Flanker","present",1,"H","2",1,0.264442329895246,"fast","post_correct",0.458661997318268,60.5902777777778
254.382599736618,0.2,"ahsaer12","2021_Jun_11_1337","Present_First","S_blue","MainTask",82,"Target","present",1,"H","2",1,0.264442329895246,"fast","post_correct",0.458661997318268,60.5902777777778
254.647042066514,0,"ahsaer12","2021_Jun_11_1337","Present_First","S_blue","MainTask",82,"Response","present",1,"H","2",1,0.264442329895246,"fast","post_correct",0.458661997318268,60.5902777777778
255.615832782436,0.1,"ahsaer12","2021_Jun_11_1337","Present_First","S_blue","MainTask",83,"Flanker","present",1,"S","2",0,0.254774972519954,"fast","post_correct",0.458661997318268,60.5902777777778
255.69920919029,0.2,"ahsaer12","2021_Jun_11_1337","Present_First","S_blue","MainTask",83,"Target","present",1,"S","2",0,0.254774972519954,"fast","post_correct",0.458661997318268,60.5902777777778
255.95398416281,0,"ahsaer12","2021_Jun_11_1337","Present_First","S_blue","MainTask",83,"Response","present",1,"S","2",0,0.254774972519954,"fast","post_correct",0.458661997318268,60.5902777777778
256.849276155568,0.1,"ahsaer12","2021_Jun_11_1337","Present_First","S_blue","MainTask",84,"Flanker","present",0.66,"H","4",0,0.079375989298569,"fast","post_error",0.458661997318268,60.5902777777778
256.932598669235,0.2,"ahsaer12","2021_Jun_11_1337","Present_First","S_blue","MainTask",84,"Target","present",0.66,"H","4",0,0.079375989298569,"fast","post_error",0.458661997318268,60.5902777777778
257.011974658533,0,"ahsaer12","2021_Jun_11_1337","Present_First","S_blue","MainTask",84,"Response","present",0.66,"H","4",0,0.079375989298569,"fast","post_error",0.458661997318268,60.5902777777778
257.899184272977,0.1,"ahsaer12","2021_Jun_11_1337","Present_First","S_blue","MainTask",85,"Flanker","present",0.66,"H","4",0,0.226509220981825,"fast","post_error",0.458661997318268,60.5902777777778
257.982512736002,0.2,"ahsaer12","2021_Jun_11_1337","Present_First","S_blue","MainTask",85,"Target","present",0.66,"H","4",0,0.226509220981825,"fast","post_error",0.458661997318268,60.5902777777778
258.209021956984,0,"ahsaer12","2021_Jun_11_1337","Present_First","S_blue","MainTask",85,"Response","present",0.66,"H","4",0,0.226509220981825,"fast","post_error",0.458661997318268,60.5902777777778
259.182449672804,0.1,"ahsaer12","2021_Jun_11_1337","Present_First","S_blue","MainTask",86,"Flanker","present",0.33,"H","None",0,NA,NA,"post_error",0.458661997318268,60.5902777777778
259.265875425335,0.2,"ahsaer12","2021_Jun_11_1337","Present_First","S_blue","MainTask",86,"Target","present",0.33,"H","None",0,NA,NA,"post_error",0.458661997318268,60.5902777777778
260.282467135919,0.1,"ahsaer12","2021_Jun_11_1337","Present_First","S_blue","MainTask",86,"TooSlowFeedback","present",0.33,"H","None",0,NA,NA,"post_error",0.458661997318268,60.5902777777778
262.082517600478,0.1,"ahsaer12","2021_Jun_11_1337","Present_First","S_blue","MainTask",87,"Flanker","present",1,"S","4",1,0.245151360424643,"fast","post_error",0.458661997318268,60.5902777777778
262.165786219957,0.2,"ahsaer12","2021_Jun_11_1337","Present_First","S_blue","MainTask",87,"Target","present",1,"S","4",1,0.245151360424643,"fast","post_error",0.458661997318268,60.5902777777778
262.410937580382,0,"ahsaer12","2021_Jun_11_1337","Present_First","S_blue","MainTask",87,"Response","present",1,"S","4",1,0.245151360424643,"fast","post_error",0.458661997318268,60.5902777777778
263.399219444183,0.1,"ahsaer12","2021_Jun_11_1337","Present_First","S_blue","MainTask",88,"Flanker","present",0,"S","2",0,0.165424708944556,"fast","post_correct",0.458661997318268,60.5902777777778
263.482546857322,0.2,"ahsaer12","2021_Jun_11_1337","Present_First","S_blue","MainTask",88,"Target","present",0,"S","2",0,0.165424708944556,"fast","post_correct",0.458661997318268,60.5902777777778
263.647971566266,0,"ahsaer12","2021_Jun_11_1337","Present_First","S_blue","MainTask",88,"Response","present",0,"S","2",0,0.165424708944556,"fast","post_correct",0.458661997318268,60.5902777777778
264.449122312159,0.1,"ahsaer12","2021_Jun_11_1337","Present_First","S_blue","MainTask",89,"Flanker","present",0.33,"S","4",1,0.0834110541181872,"fast","post_error",0.458661997318268,60.5902777777778
264.532558913523,0.2,"ahsaer12","2021_Jun_11_1337","Present_First","S_blue","MainTask",89,"Target","present",0.33,"S","4",1,0.0834110541181872,"fast","post_error",0.458661997318268,60.5902777777778
264.615969967641,0,"ahsaer12","2021_Jun_11_1337","Present_First","S_blue","MainTask",89,"Response","present",0.33,"S","4",1,0.0834110541181872,"fast","post_error",0.458661997318268,60.5902777777778
265.632600174073,0.1,"ahsaer12","2021_Jun_11_1337","Present_First","S_blue","MainTask",90,"Flanker","present",0.66,"S","4",1,0.0609718241885275,"fast","post_correct",0.458661997318268,60.5902777777778
265.715924087588,0.2,"ahsaer12","2021_Jun_11_1337","Present_First","S_blue","MainTask",90,"Target","present",0.66,"S","4",1,0.0609718241885275,"fast","post_correct",0.458661997318268,60.5902777777778
265.776895911777,0,"ahsaer12","2021_Jun_11_1337","Present_First","S_blue","MainTask",90,"Response","present",0.66,"S","4",1,0.0609718241885275,"fast","post_correct",0.458661997318268,60.5902777777778
266.715777803365,0.1,"ahsaer12","2021_Jun_11_1337","Present_First","S_blue","MainTask",91,"Flanker","present",0.33,"S","4",1,0.211740113829364,"fast","post_correct",0.458661997318268,60.5902777777778
266.799143012428,0.2,"ahsaer12","2021_Jun_11_1337","Present_First","S_blue","MainTask",91,"Target","present",0.33,"S","4",1,0.211740113829364,"fast","post_correct",0.458661997318268,60.5902777777778
267.010883126257,0,"ahsaer12","2021_Jun_11_1337","Present_First","S_blue","MainTask",91,"Response","present",0.33,"S","4",1,0.211740113829364,"fast","post_correct",0.458661997318268,60.5902777777778
267.899217869353,0.1,"ahsaer12","2021_Jun_11_1337","Present_First","S_blue","MainTask",92,"Flanker","present",1,"H","2",1,0.301409892943411,"fast","post_correct",0.458661997318268,60.5902777777778
267.982540732983,0.2,"ahsaer12","2021_Jun_11_1337","Present_First","S_blue","MainTask",92,"Target","present",1,"H","2",1,0.301409892943411,"fast","post_correct",0.458661997318268,60.5902777777778
268.283950625926,0,"ahsaer12","2021_Jun_11_1337","Present_First","S_blue","MainTask",92,"Response","present",1,"H","2",1,0.301409892943411,"fast","post_correct",0.458661997318268,60.5902777777778
269.332533086308,0.1,"ahsaer12","2021_Jun_11_1337","Present_First","S_blue","MainTask",93,"Flanker","present",1,"H","4",0,0.0921160152884113,"fast","post_correct",0.458661997318268,60.5902777777778
269.415736262845,0.2,"ahsaer12","2021_Jun_11_1337","Present_First","S_blue","MainTask",93,"Target","present",1,"H","4",0,0.0921160152884113,"fast","post_correct",0.458661997318268,60.5902777777778
269.507852278133,0,"ahsaer12","2021_Jun_11_1337","Present_First","S_blue","MainTask",93,"Response","present",1,"H","4",0,0.0921160152884113,"fast","post_correct",0.458661997318268,60.5902777777778
270.349130396287,0.1,"ahsaer12","2021_Jun_11_1337","Present_First","S_blue","MainTask",94,"Flanker","present",0.66,"H","4",0,0.154387949260126,"fast","post_error",0.458661997318268,60.5902777777778
270.432465508597,0.2,"ahsaer12","2021_Jun_11_1337","Present_First","S_blue","MainTask",94,"Target","present",0.66,"H","4",0,0.154387949260126,"fast","post_error",0.458661997318268,60.5902777777778
270.586853457857,0,"ahsaer12","2021_Jun_11_1337","Present_First","S_blue","MainTask",94,"Response","present",0.66,"H","4",0,0.154387949260126,"fast","post_error",0.458661997318268,60.5902777777778
271.399130553771,0.1,"ahsaer12","2021_Jun_11_1337","Present_First","S_blue","MainTask",95,"Flanker","present",0.33,"H","2",1,0.115427351160179,"fast","post_error",0.458661997318268,60.5902777777778
271.482454467287,0.2,"ahsaer12","2021_Jun_11_1337","Present_First","S_blue","MainTask",95,"Target","present",0.33,"H","2",1,0.115427351160179,"fast","post_error",0.458661997318268,60.5902777777778
271.597881818447,0,"ahsaer12","2021_Jun_11_1337","Present_First","S_blue","MainTask",95,"Response","present",0.33,"H","2",1,0.115427351160179,"fast","post_error",0.458661997318268,60.5902777777778
271.632426942755,2.01987365662535,"ahsaer12","2021_Jun_11_1337","Present_First","S_blue","MainTask",95,"Break","present",0.33,"H","2",1,2.01987365662535,"fast","post_error",NA,60.5902777777778
276.732591040058,0.1,"ahsaer12","2021_Jun_11_1337","Present_First","S_blue","MainTask",96,"Flanker","present",1,"S","4",1,0.612957492534406,"slow","post_break",0.458661997318268,60.5902777777778
276.815762719991,0.2,"ahsaer12","2021_Jun_11_1337","Present_First","S_blue","MainTask",96,"Target","present",1,"S","4",1,0.612957492534406,"slow","post_break",0.458661997318268,60.5902777777778
277.428720212525,0,"ahsaer12","2021_Jun_11_1337","Present_First","S_blue","MainTask",96,"Response","present",1,"S","4",1,0.612957492534406,"slow","post_break",0.458661997318268,60.5902777777778
277.465852257836,0.1,"ahsaer12","2021_Jun_11_1337","Present_First","S_blue","MainTask",96,"TooSlowFeedback","present",1,"S","4",1,0.612957492534406,"slow","post_break",0.458661997318268,60.5902777777778
279.349167492286,0.1,"ahsaer12","2021_Jun_11_1337","Present_First","S_blue","MainTask",97,"Flanker","present",1,"H","2",1,0.328289793946169,"fast","post_correct",0.458661997318268,60.5902777777778
279.432428062633,0.2,"ahsaer12","2021_Jun_11_1337","Present_First","S_blue","MainTask",97,"Target","present",1,"H","2",1,0.328289793946169,"fast","post_correct",0.458661997318268,60.5902777777778
279.76071785658,0,"ahsaer12","2021_Jun_11_1337","Present_First","S_blue","MainTask",97,"Response","present",1,"H","2",1,0.328289793946169,"fast","post_correct",0.458661997318268,60.5902777777778
280.615771889003,0.1,"ahsaer12","2021_Jun_11_1337","Present_First","S_blue","MainTask",98,"Flanker","present",1,"H","2",1,0.232557268698656,"fast","post_correct",0.458661997318268,60.5902777777778
280.699194491875,0.2,"ahsaer12","2021_Jun_11_1337","Present_First","S_blue","MainTask",98,"Target","present",1,"H","2",1,0.232557268698656,"fast","post_correct",0.458661997318268,60.5902777777778
280.931751760574,0,"ahsaer12","2021_Jun_11_1337","Present_First","S_blue","MainTask",98,"Response","present",1,"H","2",1,0.232557268698656,"fast","post_correct",0.458661997318268,60.5902777777778
281.849127071646,0.1,"ahsaer12","2021_Jun_11_1337","Present_First","S_blue","MainTask",99,"Flanker","present",1,"H","2",1,0.149305097445904,"fast","post_correct",0.458661997318268,60.5902777777778
281.932480731954,0.2,"ahsaer12","2021_Jun_11_1337","Present_First","S_blue","MainTask",99,"Target","present",1,"H","2",1,0.149305097445904,"fast","post_correct",0.458661997318268,60.5902777777778
282.081785829399,0,"ahsaer12","2021_Jun_11_1337","Present_First","S_blue","MainTask",99,"Response","present",1,"H","2",1,0.149305097445904,"fast","post_correct",0.458661997318268,60.5902777777778
282.999157990811,0.1,"ahsaer12","2021_Jun_11_1337","Present_First","S_blue","MainTask",100,"Flanker","present",0.66,"H","2",1,0.200333094075177,"fast","post_correct",0.458661997318268,60.5902777777778
283.082465106139,0.2,"ahsaer12","2021_Jun_11_1337","Present_First","S_blue","MainTask",100,"Target","present",0.66,"H","2",1,0.200333094075177,"fast","post_correct",0.458661997318268,60.5902777777778
283.282798200215,0,"ahsaer12","2021_Jun_11_1337","Present_First","S_blue","MainTask",100,"Response","present",0.66,"H","2",1,0.200333094075177,"fast","post_correct",0.458661997318268,60.5902777777778
284.132551704299,0.1,"ahsaer12","2021_Jun_11_1337","Present_First","S_blue","MainTask",101,"Flanker","present",0.66,"S","4",1,0.238809344411493,"fast","post_correct",0.458661997318268,60.5902777777778
284.215902564909,0.2,"ahsaer12","2021_Jun_11_1337","Present_First","S_blue","MainTask",101,"Target","present",0.66,"S","4",1,0.238809344411493,"fast","post_correct",0.458661997318268,60.5902777777778
284.45471190932,0,"ahsaer12","2021_Jun_11_1337","Present_First","S_blue","MainTask",101,"Response","present",0.66,"S","4",1,0.238809344411493,"fast","post_correct",0.458661997318268,60.5902777777778
285.382433504546,0.1,"ahsaer12","2021_Jun_11_1337","Present_First","S_blue","MainTask",102,"Flanker","present",1,"H","2",1,0.24476605198106,"fast","post_correct",0.458661997318268,60.5902777777778
285.465891103646,0.2,"ahsaer12","2021_Jun_11_1337","Present_First","S_blue","MainTask",102,"Target","present",1,"H","2",1,0.24476605198106,"fast","post_correct",0.458661997318268,60.5902777777778
285.710657155627,0,"ahsaer12","2021_Jun_11_1337","Present_First","S_blue","MainTask",102,"Response","present",1,"H","2",1,0.24476605198106,"fast","post_correct",0.458661997318268,60.5902777777778
286.582478929648,0.1,"ahsaer12","2021_Jun_11_1337","Present_First","S_blue","MainTask",103,"Flanker","present",1,"S","4",1,0.23097718911049,"fast","post_correct",0.458661997318268,60.5902777777778
286.665759797806,0.2,"ahsaer12","2021_Jun_11_1337","Present_First","S_blue","MainTask",103,"Target","present",1,"S","4",1,0.23097718911049,"fast","post_correct",0.458661997318268,60.5902777777778
286.896736986917,0,"ahsaer12","2021_Jun_11_1337","Present_First","S_blue","MainTask",103,"Response","present",1,"S","4",1,0.23097718911049,"fast","post_correct",0.458661997318268,60.5902777777778
287.765765012244,0.1,"ahsaer12","2021_Jun_11_1337","Present_First","S_blue","MainTask",104,"Flanker","present",1,"S","4",1,0.231548677476894,"fast","post_correct",0.458661997318268,60.5902777777778
287.849125671797,0.2,"ahsaer12","2021_Jun_11_1337","Present_First","S_blue","MainTask",104,"Target","present",1,"S","4",1,0.231548677476894,"fast","post_correct",0.458661997318268,60.5902777777778
288.080674349274,0,"ahsaer12","2021_Jun_11_1337","Present_First","S_blue","MainTask",104,"Response","present",1,"S","4",1,0.231548677476894,"fast","post_correct",0.458661997318268,60.5902777777778
289.082503252024,0.1,"ahsaer12","2021_Jun_11_1337","Present_First","S_blue","MainTask",105,"Flanker","present",1,"H","2",1,0.219844539768019,"fast","post_correct",0.458661997318268,60.5902777777778
289.165869860937,0.2,"ahsaer12","2021_Jun_11_1337","Present_First","S_blue","MainTask",105,"Target","present",1,"H","2",1,0.219844539768019,"fast","post_correct",0.458661997318268,60.5902777777778
289.385714400705,0,"ahsaer12","2021_Jun_11_1337","Present_First","S_blue","MainTask",105,"Response","present",1,"H","2",1,0.219844539768019,"fast","post_correct",0.458661997318268,60.5902777777778
290.249105583964,0.1,"ahsaer12","2021_Jun_11_1337","Present_First","S_blue","MainTask",106,"Flanker","present",1,"S","4",1,0.2062012611932,"fast","post_correct",0.458661997318268,60.5902777777778
290.332480242007,0.2,"ahsaer12","2021_Jun_11_1337","Present_First","S_blue","MainTask",106,"Target","present",1,"S","4",1,0.2062012611932,"fast","post_correct",0.458661997318268,60.5902777777778
290.5386815032,0,"ahsaer12","2021_Jun_11_1337","Present_First","S_blue","MainTask",106,"Response","present",1,"S","4",1,0.2062012611932,"fast","post_correct",0.458661997318268,60.5902777777778
291.36583654453,0.1,"ahsaer12","2021_Jun_11_1337","Present_First","S_blue","MainTask",107,"Flanker","present",0.66,"S","4",1,0.198586082491602,"fast","post_correct",0.458661997318268,60.5902777777778
291.449042520764,0.2,"ahsaer12","2021_Jun_11_1337","Present_First","S_blue","MainTask",107,"Target","present",0.66,"S","4",1,0.198586082491602,"fast","post_correct",0.458661997318268,60.5902777777778
291.647628603256,0,"ahsaer12","2021_Jun_11_1337","Present_First","S_blue","MainTask",107,"Response","present",0.66,"S","4",1,0.198586082491602,"fast","post_correct",0.458661997318268,60.5902777777778
292.599162330343,0.1,"ahsaer12","2021_Jun_11_1337","Present_First","S_blue","MainTask",108,"Flanker","present",1,"S","4",1,0.170203093595774,"fast","post_correct",0.458661997318268,60.5902777777778
292.682435849294,0.2,"ahsaer12","2021_Jun_11_1337","Present_First","S_blue","MainTask",108,"Target","present",1,"S","4",1,0.170203093595774,"fast","post_correct",0.458661997318268,60.5902777777778
292.85263894289,0,"ahsaer12","2021_Jun_11_1337","Present_First","S_blue","MainTask",108,"Response","present",1,"S","4",1,0.170203093595774,"fast","post_correct",0.458661997318268,60.5902777777778
293.665806692748,0.1,"ahsaer12","2021_Jun_11_1337","Present_First","S_blue","MainTask",109,"Flanker","present",0.66,"S","4",1,0.237460939837547,"fast","post_correct",0.458661997318268,60.5902777777778
293.749143204906,0.2,"ahsaer12","2021_Jun_11_1337","Present_First","S_blue","MainTask",109,"Target","present",0.66,"S","4",1,0.237460939837547,"fast","post_correct",0.458661997318268,60.5902777777778
293.986604144744,0,"ahsaer12","2021_Jun_11_1337","Present_First","S_blue","MainTask",109,"Response","present",0.66,"S","4",1,0.237460939837547,"fast","post_correct",0.458661997318268,60.5902777777778
295.03247019809,0.1,"ahsaer12","2021_Jun_11_1337","Present_First","S_blue","MainTask",110,"Flanker","present",1,"H","2",1,0.363714023442299,"fast","post_correct",0.458661997318268,60.5902777777778
295.115839256738,0.2,"ahsaer12","2021_Jun_11_1337","Present_First","S_blue","MainTask",110,"Target","present",1,"H","2",1,0.363714023442299,"fast","post_correct",0.458661997318268,60.5902777777778
295.47955328018,0,"ahsaer12","2021_Jun_11_1337","Present_First","S_blue","MainTask",110,"Response","present",1,"H","2",1,0.363714023442299,"fast","post_correct",0.458661997318268,60.5902777777778
296.49910812119,0.1,"ahsaer12","2021_Jun_11_1337","Present_First","S_blue","MainTask",111,"Flanker","present",0.66,"H","4",0,0.195094859018354,"fast","post_correct",0.458661997318268,60.5902777777778
296.582513925874,0.2,"ahsaer12","2021_Jun_11_1337","Present_First","S_blue","MainTask",111,"Target","present",0.66,"H","4",0,0.195094859018354,"fast","post_correct",0.458661997318268,60.5902777777778
296.777608784892,0,"ahsaer12","2021_Jun_11_1337","Present_First","S_blue","MainTask",111,"Response","present",0.66,"H","4",0,0.195094859018354,"fast","post_correct",0.458661997318268,60.5902777777778
297.615858679643,0.1,"ahsaer12","2021_Jun_11_1337","Present_First","S_blue","MainTask",112,"Flanker","present",1,"S","4",1,0.205451992002054,"fast","post_error",0.458661997318268,60.5902777777778
297.699129048933,0.2,"ahsaer12","2021_Jun_11_1337","Present_First","S_blue","MainTask",112,"Target","present",1,"S","4",1,0.205451992002054,"fast","post_error",0.458661997318268,60.5902777777778
297.904581040935,0,"ahsaer12","2021_Jun_11_1337","Present_First","S_blue","MainTask",112,"Response","present",1,"S","4",1,0.205451992002054,"fast","post_error",0.458661997318268,60.5902777777778
298.91584877571,0.1,"ahsaer12","2021_Jun_11_1337","Present_First","S_blue","MainTask",113,"Flanker","present",0.33,"S","4",1,0.209412164898822,"fast","post_correct",0.458661997318268,60.5902777777778
298.999103746663,0.2,"ahsaer12","2021_Jun_11_1337","Present_First","S_blue","MainTask",113,"Target","present",0.33,"S","4",1,0.209412164898822,"fast","post_correct",0.458661997318268,60.5902777777778
299.208515911561,0,"ahsaer12","2021_Jun_11_1337","Present_First","S_blue","MainTask",113,"Response","present",0.33,"S","4",1,0.209412164898822,"fast","post_correct",0.458661997318268,60.5902777777778
300.199206915535,0.1,"ahsaer12","2021_Jun_11_1337","Present_First","S_blue","MainTask",114,"Flanker","present",1,"S","4",1,0.185051992142689,"fast","post_correct",0.458661997318268,60.5902777777778
300.282538528221,0.2,"ahsaer12","2021_Jun_11_1337","Present_First","S_blue","MainTask",114,"Target","present",1,"S","4",1,0.185051992142689,"fast","post_correct",0.458661997318268,60.5902777777778
300.467590520364,0,"ahsaer12","2021_Jun_11_1337","Present_First","S_blue","MainTask",114,"Response","present",1,"S","4",1,0.185051992142689,"fast","post_correct",0.458661997318268,60.5902777777778
301.432469008218,0.1,"ahsaer12","2021_Jun_11_1337","Present_First","S_blue","MainTask",115,"Flanker","present",1,"H","2",1,0.255739818461734,"fast","post_correct",0.458661997318268,60.5902777777778
301.515741827245,0.2,"ahsaer12","2021_Jun_11_1337","Present_First","S_blue","MainTask",115,"Target","present",1,"H","2",1,0.255739818461734,"fast","post_correct",0.458661997318268,60.5902777777778
301.771481645706,0,"ahsaer12","2021_Jun_11_1337","Present_First","S_blue","MainTask",115,"Response","present",1,"H","2",1,0.255739818461734,"fast","post_correct",0.458661997318268,60.5902777777778
302.63256412796,0.1,"ahsaer12","2021_Jun_11_1337","Present_First","S_blue","MainTask",116,"Flanker","present",1,"H","2",1,0.204773415187447,"fast","post_correct",0.458661997318268,60.5902777777778
302.715763804874,0.2,"ahsaer12","2021_Jun_11_1337","Present_First","S_blue","MainTask",116,"Target","present",1,"H","2",1,0.204773415187447,"fast","post_correct",0.458661997318268,60.5902777777778
302.920537220061,0,"ahsaer12","2021_Jun_11_1337","Present_First","S_blue","MainTask",116,"Response","present",1,"H","2",1,0.204773415187447,"fast","post_correct",0.458661997318268,60.5902777777778
303.782410966978,0.1,"ahsaer12","2021_Jun_11_1337","Present_First","S_blue","MainTask",117,"Flanker","present",0.33,"S","2",0,0.345793156207947,"fast","post_correct",0.458661997318268,60.5902777777778
303.865769526758,0.2,"ahsaer12","2021_Jun_11_1337","Present_First","S_blue","MainTask",117,"Target","present",0.33,"S","2",0,0.345793156207947,"fast","post_correct",0.458661997318268,60.5902777777778
304.211562682965,0,"ahsaer12","2021_Jun_11_1337","Present_First","S_blue","MainTask",117,"Response","present",0.33,"S","2",0,0.345793156207947,"fast","post_correct",0.458661997318268,60.5902777777778
305.049195944219,0.1,"ahsaer12","2021_Jun_11_1337","Present_First","S_blue","MainTask",118,"Flanker","present",1,"H","2",1,0.314023232594991,"fast","post_error",0.458661997318268,60.5902777777778
305.132523357357,0.2,"ahsaer12","2021_Jun_11_1337","Present_First","S_blue","MainTask",118,"Target","present",1,"H","2",1,0.314023232594991,"fast","post_error",0.458661997318268,60.5902777777778
305.446546589952,0,"ahsaer12","2021_Jun_11_1337","Present_First","S_blue","MainTask",118,"Response","present",1,"H","2",1,0.314023232594991,"fast","post_error",0.458661997318268,60.5902777777778
306.399115155431,0.1,"ahsaer12","2021_Jun_11_1337","Present_First","S_blue","MainTask",119,"Flanker","present",0,"S","4",1,0.115025244527715,"fast","post_correct",0.458661997318268,60.5902777777778
306.482500662305,0.2,"ahsaer12","2021_Jun_11_1337","Present_First","S_blue","MainTask",119,"Target","present",0,"S","4",1,0.115025244527715,"fast","post_correct",0.458661997318268,60.5902777777778
306.597525906833,0,"ahsaer12","2021_Jun_11_1337","Present_First","S_blue","MainTask",119,"Response","present",0,"S","4",1,0.115025244527715,"fast","post_correct",0.458661997318268,60.5902777777778
307.632547679734,0.1,"ahsaer12","2021_Jun_11_1337","Present_First","S_blue","MainTask",120,"Flanker","present",1,"H","2",1,0.374620247206622,"fast","post_correct",0.458661997318268,60.5902777777778
307.715883491966,0.2,"ahsaer12","2021_Jun_11_1337","Present_First","S_blue","MainTask",120,"Target","present",1,"H","2",1,0.374620247206622,"fast","post_correct",0.458661997318268,60.5902777777778
308.090503739173,0,"ahsaer12","2021_Jun_11_1337","Present_First","S_blue","MainTask",120,"Response","present",1,"H","2",1,0.374620247206622,"fast","post_correct",0.458661997318268,60.5902777777778
309.065863596612,0.1,"ahsaer12","2021_Jun_11_1337","Present_First","S_blue","MainTask",121,"Flanker","present",0,"H","4",0,0.105286844813236,"fast","post_correct",0.458661997318268,60.5902777777778
309.149190659788,0.2,"ahsaer12","2021_Jun_11_1337","Present_First","S_blue","MainTask",121,"Target","present",0,"H","4",0,0.105286844813236,"fast","post_correct",0.458661997318268,60.5902777777778
309.254477504601,0,"ahsaer12","2021_Jun_11_1337","Present_First","S_blue","MainTask",121,"Response","present",0,"H","4",0,0.105286844813236,"fast","post_correct",0.458661997318268,60.5902777777778
310.282493383089,0.1,"ahsaer12","2021_Jun_11_1337","Present_First","S_blue","MainTask",122,"Flanker","present",0.33,"S","4",1,0.233647051165462,"fast","post_error",0.458661997318268,60.5902777777778
310.365820446266,0.2,"ahsaer12","2021_Jun_11_1337","Present_First","S_blue","MainTask",122,"Target","present",0.33,"S","4",1,0.233647051165462,"fast","post_error",0.458661997318268,60.5902777777778
310.599467497432,0,"ahsaer12","2021_Jun_11_1337","Present_First","S_blue","MainTask",122,"Response","present",0.33,"S","4",1,0.233647051165462,"fast","post_error",0.458661997318268,60.5902777777778
311.615790437003,0.1,"ahsaer12","2021_Jun_11_1337","Present_First","S_blue","MainTask",123,"Flanker","present",1,"S","4",1,0.215338425750815,"fast","post_correct",0.458661997318268,60.5902777777778
311.699115400404,0.2,"ahsaer12","2021_Jun_11_1337","Present_First","S_blue","MainTask",123,"Target","present",1,"S","4",1,0.215338425750815,"fast","post_correct",0.458661997318268,60.5902777777778
311.914453826155,0,"ahsaer12","2021_Jun_11_1337","Present_First","S_blue","MainTask",123,"Response","present",1,"S","4",1,0.215338425750815,"fast","post_correct",0.458661997318268,60.5902777777778
312.832447520535,0.1,"ahsaer12","2021_Jun_11_1337","Present_First","S_blue","MainTask",124,"Flanker","present",1,"H","2",1,0.35758233474553,"fast","post_correct",0.458661997318268,60.5902777777778
312.915829877749,0.2,"ahsaer12","2021_Jun_11_1337","Present_First","S_blue","MainTask",124,"Target","present",1,"H","2",1,0.35758233474553,"fast","post_correct",0.458661997318268,60.5902777777778
313.273412212495,0,"ahsaer12","2021_Jun_11_1337","Present_First","S_blue","MainTask",124,"Response","present",1,"H","2",1,0.35758233474553,"fast","post_correct",0.458661997318268,60.5902777777778
314.249174176566,0.1,"ahsaer12","2021_Jun_11_1337","Present_First","S_blue","MainTask",125,"Flanker","present",0,"H","4",0,0.25594804600405,"fast","post_correct",0.458661997318268,60.5902777777778
314.332501589704,0.2,"ahsaer12","2021_Jun_11_1337","Present_First","S_blue","MainTask",125,"Target","present",0,"H","4",0,0.25594804600405,"fast","post_correct",0.458661997318268,60.5902777777778
314.588449635708,0,"ahsaer12","2021_Jun_11_1337","Present_First","S_blue","MainTask",125,"Response","present",0,"H","4",0,0.25594804600405,"fast","post_correct",0.458661997318268,60.5902777777778
315.482496112794,0.1,"ahsaer12","2021_Jun_11_1337","Present_First","S_blue","MainTask",126,"Flanker","present",1,"H","2",1,0.353594514830547,"fast","post_error",0.458661997318268,60.5902777777778
315.565828075443,0.2,"ahsaer12","2021_Jun_11_1337","Present_First","S_blue","MainTask",126,"Target","present",1,"H","2",1,0.353594514830547,"fast","post_error",0.458661997318268,60.5902777777778
315.919422590274,0,"ahsaer12","2021_Jun_11_1337","Present_First","S_blue","MainTask",126,"Response","present",1,"H","2",1,0.353594514830547,"fast","post_error",0.458661997318268,60.5902777777778
316.78240046811,0.1,"ahsaer12","2021_Jun_11_1337","Present_First","S_blue","MainTask",127,"Flanker","present",0,"H","2",1,0.537531177262281,"slow","post_correct",0.458661997318268,60.5902777777778
316.865867866152,0.2,"ahsaer12","2021_Jun_11_1337","Present_First","S_blue","MainTask",127,"Target","present",0,"H","2",1,0.537531177262281,"slow","post_correct",0.458661997318268,60.5902777777778
317.403399043415,0,"ahsaer12","2021_Jun_11_1337","Present_First","S_blue","MainTask",127,"Response","present",0,"H","2",1,0.537531177262281,"slow","post_correct",0.458661997318268,60.5902777777778
317.449118112612,0.1,"ahsaer12","2021_Jun_11_1337","Present_First","S_blue","MainTask",127,"TooSlowFeedback","present",0,"H","2",1,0.537531177262281,"slow","post_correct",0.458661997318268,60.5902777777778
319.21577867827,0.1,"ahsaer12","2021_Jun_11_1337","Present_First","S_blue","MainTask",128,"Flanker","present",0.33,"H","2",1,0.322272542905921,"fast","post_correct",0.458661997318268,60.5902777777778
319.299110640919,0.2,"ahsaer12","2021_Jun_11_1337","Present_First","S_blue","MainTask",128,"Target","present",0.33,"H","2",1,0.322272542905921,"fast","post_correct",0.458661997318268,60.5902777777778
319.621383183825,0,"ahsaer12","2021_Jun_11_1337","Present_First","S_blue","MainTask",128,"Response","present",0.33,"H","2",1,0.322272542905921,"fast","post_correct",0.458661997318268,60.5902777777778
320.632501134753,0.1,"ahsaer12","2021_Jun_11_1337","Present_First","S_blue","MainTask",129,"Flanker","present",0.66,"H","2",1,0.178552143150227,"fast","post_correct",0.458661997318268,60.5902777777778
320.715834147288,0.2,"ahsaer12","2021_Jun_11_1337","Present_First","S_blue","MainTask",129,"Target","present",0.66,"H","2",1,0.178552143150227,"fast","post_correct",0.458661997318268,60.5902777777778
320.894386290438,0,"ahsaer12","2021_Jun_11_1337","Present_First","S_blue","MainTask",129,"Response","present",0.66,"H","2",1,0.178552143150227,"fast","post_correct",0.458661997318268,60.5902777777778
321.732522797418,0.1,"ahsaer12","2021_Jun_11_1337","Present_First","S_blue","MainTask",130,"Flanker","present",1,"S","4",1,0.300695969939625,"fast","post_correct",0.458661997318268,60.5902777777778
321.815712325426,0.2,"ahsaer12","2021_Jun_11_1337","Present_First","S_blue","MainTask",130,"Target","present",1,"S","4",1,0.300695969939625,"fast","post_correct",0.458661997318268,60.5902777777778
322.116408295366,0,"ahsaer12","2021_Jun_11_1337","Present_First","S_blue","MainTask",130,"Response","present",1,"S","4",1,0.300695969939625,"fast","post_correct",0.458661997318268,60.5902777777778
322.965832834929,0.1,"ahsaer12","2021_Jun_11_1337","Present_First","S_blue","MainTask",131,"Flanker","present",0,"S","2",0,0.234163245495438,"fast","post_correct",0.458661997318268,60.5902777777778
323.04918229569,0.2,"ahsaer12","2021_Jun_11_1337","Present_First","S_blue","MainTask",131,"Target","present",0,"S","2",0,0.234163245495438,"fast","post_correct",0.458661997318268,60.5902777777778
323.283345541186,0,"ahsaer12","2021_Jun_11_1337","Present_First","S_blue","MainTask",131,"Response","present",0,"S","2",0,0.234163245495438,"fast","post_correct",0.458661997318268,60.5902777777778
324.332494240496,0.1,"ahsaer12","2021_Jun_11_1337","Present_First","S_blue","MainTask",132,"Flanker","present",0,"H","4",0,0.204522142286805,"fast","post_error",0.458661997318268,60.5902777777778
324.415819903825,0.2,"ahsaer12","2021_Jun_11_1337","Present_First","S_blue","MainTask",132,"Target","present",0,"H","4",0,0.204522142286805,"fast","post_error",0.458661997318268,60.5902777777778
324.620342046112,0,"ahsaer12","2021_Jun_11_1337","Present_First","S_blue","MainTask",132,"Response","present",0,"H","4",0,0.204522142286805,"fast","post_error",0.458661997318268,60.5902777777778
325.632432192189,0.1,"ahsaer12","2021_Jun_11_1337","Present_First","S_blue","MainTask",133,"Flanker","present",0.33,"H","2",1,0.188529567087244,"fast","post_error",0.458661997318268,60.5902777777778
325.715714460197,0.2,"ahsaer12","2021_Jun_11_1337","Present_First","S_blue","MainTask",133,"Target","present",0.33,"H","2",1,0.188529567087244,"fast","post_error",0.458661997318268,60.5902777777778
325.904244027284,0,"ahsaer12","2021_Jun_11_1337","Present_First","S_blue","MainTask",133,"Response","present",0.33,"H","2",1,0.188529567087244,"fast","post_error",0.458661997318268,60.5902777777778
326.749113108152,0.1,"ahsaer12","2021_Jun_11_1337","Present_First","S_blue","MainTask",134,"Flanker","present",0.33,"S","4",1,0.260826869822267,"fast","post_correct",0.458661997318268,60.5902777777778
326.832491265817,0.2,"ahsaer12","2021_Jun_11_1337","Present_First","S_blue","MainTask",134,"Target","present",0.33,"S","4",1,0.260826869822267,"fast","post_correct",0.458661997318268,60.5902777777778
327.093318135639,0,"ahsaer12","2021_Jun_11_1337","Present_First","S_blue","MainTask",134,"Response","present",0.33,"S","4",1,0.260826869822267,"fast","post_correct",0.458661997318268,60.5902777777778
328.065842248914,0.1,"ahsaer12","2021_Jun_11_1337","Present_First","S_blue","MainTask",135,"Flanker","present",0,"S","2",0,0.293125936368597,"fast","post_correct",0.458661997318268,60.5902777777778
328.149153213826,0.2,"ahsaer12","2021_Jun_11_1337","Present_First","S_blue","MainTask",135,"Target","present",0,"S","2",0,0.293125936368597,"fast","post_correct",0.458661997318268,60.5902777777778
328.442279150195,0,"ahsaer12","2021_Jun_11_1337","Present_First","S_blue","MainTask",135,"Response","present",0,"S","2",0,0.293125936368597,"fast","post_correct",0.458661997318268,60.5902777777778
329.299136538126,0.1,"ahsaer12","2021_Jun_11_1337","Present_First","S_blue","MainTask",136,"Flanker","present",0.33,"H","None",0,NA,NA,"post_error",0.458661997318268,60.5902777777778
329.38249124832,0.2,"ahsaer12","2021_Jun_11_1337","Present_First","S_blue","MainTask",136,"Target","present",0.33,"H","None",0,NA,NA,"post_error",0.458661997318268,60.5902777777778
330.399132653543,0.1,"ahsaer12","2021_Jun_11_1337","Present_First","S_blue","MainTask",136,"TooSlowFeedback","present",0.33,"H","None",0,NA,NA,"post_error",0.458661997318268,60.5902777777778
332.282428290109,0.1,"ahsaer12","2021_Jun_11_1337","Present_First","S_blue","MainTask",137,"Flanker","present",0.33,"H","2",1,0.331418806481452,"fast","post_error",0.458661997318268,60.5902777777778
332.365777050945,0.2,"ahsaer12","2021_Jun_11_1337","Present_First","S_blue","MainTask",137,"Target","present",0.33,"H","2",1,0.331418806481452,"fast","post_error",0.458661997318268,60.5902777777778
332.697195857427,0,"ahsaer12","2021_Jun_11_1337","Present_First","S_blue","MainTask",137,"Response","present",0.33,"H","2",1,0.331418806481452,"fast","post_error",0.458661997318268,60.5902777777778
333.615853430209,0.1,"ahsaer12","2021_Jun_11_1337","Present_First","S_blue","MainTask",138,"Flanker","present",0.33,"H","2",1,0.341106111705813,"fast","post_correct",0.458661997318268,60.5902777777778
333.699047157765,0.2,"ahsaer12","2021_Jun_11_1337","Present_First","S_blue","MainTask",138,"Target","present",0.33,"H","2",1,0.341106111705813,"fast","post_correct",0.458661997318268,60.5902777777778
334.04015326947,0,"ahsaer12","2021_Jun_11_1337","Present_First","S_blue","MainTask",138,"Response","present",0.33,"H","2",1,0.341106111705813,"fast","post_correct",0.458661997318268,60.5902777777778
334.94917673129,0.1,"ahsaer12","2021_Jun_11_1337","Present_First","S_blue","MainTask",139,"Flanker","present",1,"H","2",1,0.221659094067945,"fast","post_correct",0.458661997318268,60.5902777777778
335.032517093032,0.2,"ahsaer12","2021_Jun_11_1337","Present_First","S_blue","MainTask",139,"Target","present",1,"H","2",1,0.221659094067945,"fast","post_correct",0.458661997318268,60.5902777777778
335.2541761871,0,"ahsaer12","2021_Jun_11_1337","Present_First","S_blue","MainTask",139,"Response","present",1,"H","2",1,0.221659094067945,"fast","post_correct",0.458661997318268,60.5902777777778
336.082401762971,0.1,"ahsaer12","2021_Jun_11_1337","Present_First","S_blue","MainTask",140,"Flanker","present",1,"S","4",1,0.285444964760245,"fast","post_correct",0.458661997318268,60.5902777777778
336.165755073316,0.2,"ahsaer12","2021_Jun_11_1337","Present_First","S_blue","MainTask",140,"Target","present",1,"S","4",1,0.285444964760245,"fast","post_correct",0.458661997318268,60.5902777777778
336.451200038076,0,"ahsaer12","2021_Jun_11_1337","Present_First","S_blue","MainTask",140,"Response","present",1,"S","4",1,0.285444964760245,"fast","post_correct",0.458661997318268,60.5902777777778
337.315819588857,0.1,"ahsaer12","2021_Jun_11_1337","Present_First","S_blue","MainTask",141,"Flanker","present",1,"H","2",1,0.180992080004216,"fast","post_correct",0.458661997318268,60.5902777777778
337.399152601392,0.2,"ahsaer12","2021_Jun_11_1337","Present_First","S_blue","MainTask",141,"Target","present",1,"H","2",1,0.180992080004216,"fast","post_correct",0.458661997318268,60.5902777777778
337.580144681397,0,"ahsaer12","2021_Jun_11_1337","Present_First","S_blue","MainTask",141,"Response","present",1,"H","2",1,0.180992080004216,"fast","post_correct",0.458661997318268,60.5902777777778
338.465842458892,0.1,"ahsaer12","2021_Jun_11_1337","Present_First","S_blue","MainTask",142,"Flanker","present",1,"H","2",1,0.205043236086567,"fast","post_correct",0.458661997318268,60.5902777777778
338.549118777541,0.2,"ahsaer12","2021_Jun_11_1337","Present_First","S_blue","MainTask",142,"Target","present",1,"H","2",1,0.205043236086567,"fast","post_correct",0.458661997318268,60.5902777777778
338.754162013627,0,"ahsaer12","2021_Jun_11_1337","Present_First","S_blue","MainTask",142,"Response","present",1,"H","2",1,0.205043236086567,"fast","post_correct",0.458661997318268,60.5902777777778
339.599095837515,0.1,"ahsaer12","2021_Jun_11_1337","Present_First","S_blue","MainTask",143,"Flanker","present",0.33,"H","2",1,0.345762359529544,"fast","post_correct",0.458661997318268,60.5902777777778
339.682419401068,0.2,"ahsaer12","2021_Jun_11_1337","Present_First","S_blue","MainTask",143,"Target","present",0.33,"H","2",1,0.345762359529544,"fast","post_correct",0.458661997318268,60.5902777777778
340.028181760597,0,"ahsaer12","2021_Jun_11_1337","Present_First","S_blue","MainTask",143,"Response","present",0.33,"H","2",1,0.345762359529544,"fast","post_correct",0.458661997318268,60.5902777777778
340.915833027409,0.1,"ahsaer12","2021_Jun_11_1337","Present_First","S_blue","MainTask",144,"Flanker","present",0,"S","2",0,0.182016069566089,"fast","post_correct",0.458661997318268,60.5902777777778
340.999144342284,0.2,"ahsaer12","2021_Jun_11_1337","Present_First","S_blue","MainTask",144,"Target","present",0,"S","2",0,0.182016069566089,"fast","post_correct",0.458661997318268,60.5902777777778
341.18116041185,0,"ahsaer12","2021_Jun_11_1337","Present_First","S_blue","MainTask",144,"Response","present",0,"S","2",0,0.182016069566089,"fast","post_correct",0.458661997318268,60.5902777777778
342.015807445168,0.1,"ahsaer12","2021_Jun_11_1337","Present_First","S_blue","MainTask",145,"Flanker","present",1,"S","4",1,0.162037774227429,"fast","post_error",0.458661997318268,60.5902777777778
342.099132058609,0.2,"ahsaer12","2021_Jun_11_1337","Present_First","S_blue","MainTask",145,"Target","present",1,"S","4",1,0.162037774227429,"fast","post_error",0.458661997318268,60.5902777777778
342.261169832836,0,"ahsaer12","2021_Jun_11_1337","Present_First","S_blue","MainTask",145,"Response","present",1,"S","4",1,0.162037774227429,"fast","post_error",0.458661997318268,60.5902777777778
343.065751258728,0.1,"ahsaer12","2021_Jun_11_1337","Present_First","S_blue","MainTask",146,"Flanker","present",1,"S","4",1,0.318113241486571,"fast","post_correct",0.458661997318268,60.5902777777778
343.149070272771,0.2,"ahsaer12","2021_Jun_11_1337","Present_First","S_blue","MainTask",146,"Target","present",1,"S","4",1,0.318113241486571,"fast","post_correct",0.458661997318268,60.5902777777778
343.467183514258,0,"ahsaer12","2021_Jun_11_1337","Present_First","S_blue","MainTask",146,"Response","present",1,"S","4",1,0.318113241486571,"fast","post_correct",0.458661997318268,60.5902777777778
344.28250108226,0.1,"ahsaer12","2021_Jun_11_1337","Present_First","S_blue","MainTask",147,"Flanker","present",1,"H","2",1,0.249309611959688,"fast","post_correct",0.458661997318268,60.5902777777778
344.365829895247,0.2,"ahsaer12","2021_Jun_11_1337","Present_First","S_blue","MainTask",147,"Target","present",1,"H","2",1,0.249309611959688,"fast","post_correct",0.458661997318268,60.5902777777778
344.615139507207,0,"ahsaer12","2021_Jun_11_1337","Present_First","S_blue","MainTask",147,"Response","present",1,"H","2",1,0.249309611959688,"fast","post_correct",0.458661997318268,60.5902777777778
345.565782930311,0.1,"ahsaer12","2021_Jun_11_1337","Present_First","S_blue","MainTask",148,"Flanker","present",0,"S","2",0,0.254870162252701,"fast","post_correct",0.458661997318268,60.5902777777778
345.649184535449,0.2,"ahsaer12","2021_Jun_11_1337","Present_First","S_blue","MainTask",148,"Target","present",0,"S","2",0,0.254870162252701,"fast","post_correct",0.458661997318268,60.5902777777778
345.904054697701,0,"ahsaer12","2021_Jun_11_1337","Present_First","S_blue","MainTask",148,"Response","present",0,"S","2",0,0.254870162252701,"fast","post_correct",0.458661997318268,60.5902777777778
346.832505964232,0.1,"ahsaer12","2021_Jun_11_1337","Present_First","S_blue","MainTask",149,"Flanker","present",1,"S","4",1,0.107287579034164,"fast","post_error",0.458661997318268,60.5902777777778
346.915831277598,0.2,"ahsaer12","2021_Jun_11_1337","Present_First","S_blue","MainTask",149,"Target","present",1,"S","4",1,0.107287579034164,"fast","post_error",0.458661997318268,60.5902777777778
347.023118856632,0,"ahsaer12","2021_Jun_11_1337","Present_First","S_blue","MainTask",149,"Response","present",1,"S","4",1,0.107287579034164,"fast","post_error",0.458661997318268,60.5902777777778
347.832420573443,0.1,"ahsaer12","2021_Jun_11_1337","Present_First","S_blue","MainTask",150,"Flanker","present",0,"H","4",0,0.191322265893177,"fast","post_correct",0.458661997318268,60.5902777777778
347.915746936693,0.2,"ahsaer12","2021_Jun_11_1337","Present_First","S_blue","MainTask",150,"Target","present",0,"H","4",0,0.191322265893177,"fast","post_correct",0.458661997318268,60.5902777777778
348.107069202586,0,"ahsaer12","2021_Jun_11_1337","Present_First","S_blue","MainTask",150,"Response","present",0,"H","4",0,0.191322265893177,"fast","post_correct",0.458661997318268,60.5902777777778
349.099078864345,0.1,"ahsaer12","2021_Jun_11_1337","Present_First","S_blue","MainTask",151,"Flanker","present",0.66,"S","4",1,0.241742378084382,"fast","post_error",0.458661997318268,60.5902777777778
349.182352033335,0.2,"ahsaer12","2021_Jun_11_1337","Present_First","S_blue","MainTask",151,"Target","present",0.66,"S","4",1,0.241742378084382,"fast","post_error",0.458661997318268,60.5902777777778
349.424094411419,0,"ahsaer12","2021_Jun_11_1337","Present_First","S_blue","MainTask",151,"Response","present",0.66,"S","4",1,0.241742378084382,"fast","post_error",0.458661997318268,60.5902777777778
350.332377703066,0.1,"ahsaer12","2021_Jun_11_1337","Present_First","S_blue","MainTask",152,"Flanker","present",1,"S","4",1,0.206404939226559,"fast","post_correct",0.458661997318268,60.5902777777778
350.415669070091,0.2,"ahsaer12","2021_Jun_11_1337","Present_First","S_blue","MainTask",152,"Target","present",1,"S","4",1,0.206404939226559,"fast","post_correct",0.458661997318268,60.5902777777778
350.622074009318,0,"ahsaer12","2021_Jun_11_1337","Present_First","S_blue","MainTask",152,"Response","present",1,"S","4",1,0.206404939226559,"fast","post_correct",0.458661997318268,60.5902777777778
351.48231833197,0.1,"ahsaer12","2021_Jun_11_1337","Present_First","S_blue","MainTask",153,"Flanker","present",1,"H","2",1,0.208377676466625,"fast","post_correct",0.458661997318268,60.5902777777778
351.565696489635,0.2,"ahsaer12","2021_Jun_11_1337","Present_First","S_blue","MainTask",153,"Target","present",1,"H","2",1,0.208377676466625,"fast","post_correct",0.458661997318268,60.5902777777778
351.774074166102,0,"ahsaer12","2021_Jun_11_1337","Present_First","S_blue","MainTask",153,"Response","present",1,"H","2",1,0.208377676466625,"fast","post_correct",0.458661997318268,60.5902777777778
352.599073789892,0.1,"ahsaer12","2021_Jun_11_1337","Present_First","S_blue","MainTask",154,"Flanker","present",0,"H","4",0,0.21068812728663,"fast","post_correct",0.458661997318268,60.5902777777778
