Flanker,FlankerAndTarget,Congruency,Target,Item,Anchors,NASA_Item,NASA_Anchor,Practiceloop.thisRepN,Practiceloop.thisTrialN,Practiceloop.thisN,Practiceloop.thisIndex,Conditions.thisRepN,Conditions.thisTrialN,Conditions.thisN,Conditions.thisIndex,TrialLoop.thisRepN,TrialLoop.thisTrialN,TrialLoop.thisN,TrialLoop.thisIndex,NASAtrials.thisRepN,NASAtrials.thisTrialN,NASAtrials.thisN,NASAtrials.thisIndex,OrderExperimenter,ResponseMapping,ITI_jitter,IntTrInt.started,IntTrInt.stopped,CorrAns,PracFlankers.started,PracFlankers.stopped,PracTarget.started,PracTarget.stopped,PracResp.keys,PracResp.corr,PracFeedbackSlide.started,PracFeedbackSlide.stopped,PracResp.rt,cutoff,cond_marker,Experimenter_Resp.keys,Experimenter_Resp.rt,TargetTrigger,FlankerTrigger,ResponseTrigger,FlankerSlide.started,FlankerSlide.stopped,TargetSlide.started,TargetSlide.stopped,TargetResponse.keys,TargetResponse.corr,TargetResponse.rt,TargetResponse.started,TargetResponse.stopped,FeedbackSlide.started,FeedbackSlide.stopped,showReminder,ReminderErrors.started,ReminderErrors.stopped,key_resp_3.keys,key_resp_3.started,key_resp_3.stopped,break_slide.started,break_slide.stopped,break_resp.keys,break_resp.started,break_resp.stopped,text.started,text.stopped,break_resp.rt,key_resp_3.rt,ExperimenterPresence,SelfReport.started,SelfReport.stopped,anxious.response,anxious.rt,peppy.response,peppy.rt,peeved.response,peeved.rt,happy.response,happy.rt,tired.response,tired.rt,relaxed.response,relaxed.rt,sad.response,sad.rt,calm.response,calm.rt,exhausted.response,exhausted.rt,irritated.response,irritated.rt,ItemSlide.started,ItemSlide.stopped,rating.response,rating.rt,participant,session,EEGPort,LogFilesFolder,date,expName,psychopyVersion,frameRate,
HHH HHH,HHHSHHH,0,S,,,,,0,0,0,0,,,,,,,,,,,,,Present_First,S_blue,0.9283933255407,45.24945204659707,None,4,43.19938924587041,43.299420007553636,43.2660878524257,43.46603318832058,None,0,44.26617114344299,None,,,,,,,,,,,,,,,,,,,,,,,,,,,,,,,,,,,,,,,,,,,,,,,,,,,,,,,,,,,,,,ahsaer12,1,0x0378,C:\Users\admin\Desktop\FINALTasksLogfiles\,2021_Jun_11_1337,Flanker,2020.1.3,60.01434488168977,
HHH HHH,HHHHHHH,30,H,,,,,0,1,1,9,,,,,,,,,,,,,,,0.8393317717377103,46.88279799023803,None,2,46.182689046987434,46.28272015863149,46.266056355822,46.466026889000204,4,0,None,None,0.5930071941747883,,,,,,,,,,,,,,,,,,,,,,,,,,,,,,,,,,,,,,,,,,,,,,,,,,,,,,,,,,,,,ahsaer12,1,0x0378,C:\Users\admin\Desktop\FINALTasksLogfiles\,2021_Jun_11_1337,Flanker,2020.1.3,60.01434488168977,
SSS SSS,SSSHSSS,0,H,,,,,0,2,2,6,,,,,,,,,,,,,,,0.7912715043749672,48.299333916836986,None,2,47.732781419525054,47.832710342190694,47.816018192439515,48.016158807273314,4,0,None,None,0.45705700640064606,,,,,,,,,,,,,,,,,,,,,,,,,,,,,,,,,,,,,,,,,,,,,,,,,,,,,,,,,,,,,ahsaer12,1,0x0378,C:\Users\admin\Desktop\FINALTasksLogfiles\,2021_Jun_11_1337,Flanker,2020.1.3,60.01434488168977,
SSS SSS,SSSSSSS,30,S,,,,,0,3,3,14,,,,,,,,,,,,,,,0.9609430600049405,49.482710289696115,None,4,49.09933083717078,49.19936859809786,49.1827033954396,49.38275406997491,4,1,None,None,0.27330477408031584,,,,,,,,,,,,,,,,,,,,,,,,,,,,,,,,,,,,,,,,,,,,,,,,,,,,,,,,,,,,,ahsaer12,1,0x0378,C:\Users\admin\Desktop\FINALTasksLogfiles\,2021_Jun_11_1337,Flanker,2020.1.3,60.01434488168977,
SSS SSS,SSSSSSS,30,S,,,,,0,4,4,5,,,,,,,,,,,,,,,0.8930609954577661,50.79942333219515,None,4,50.44931479139996,50.54937914945913,50.53270239804624,50.73274152382692,4,1,None,None,0.2433266572188586,,,,,,,,,,,,,,,,,,,,,,,,,,,,,,,,,,,,,,,,,,,,,,,,,,,,,,,,,,,,,ahsaer12,1,0x0378,C:\Users\admin\Desktop\FINALTasksLogfiles\,2021_Jun_11_1337,Flanker,2020.1.3,60.01434488168977,
HSS SSH,HSSSSSH,20,S,,,,,0,5,5,13,,,,,,,,,,,,,,,0.9199165832425853,51.93276665111807,None,4,51.69941776779524,51.79930679476274,51.78264019225571,None,2,0,None,None,0.13033574328983377,,,,,,,,,,,,,,,,,,,,,,,,,,,,,,,,,,,,,,,,,,,,,,,,,,,,,,,,,,,,,ahsaer12,1,0x0378,C:\Users\admin\Desktop\FINALTasksLogfiles\,2021_Jun_11_1337,Flanker,2020.1.3,60.01434488168977,
HSS SSH,HSSSSSH,20,S,,,,,0,6,6,2,,,,,,,,,,,,,,,0.9276098908092771,53.099348685245786,None,4,52.866121238825144,52.966105105564566,52.94938005936092,None,2,0,None,None,0.12659569665447634,,,,,,,,,,,,,,,,,,,,,,,,,,,,,,,,,,,,,,,,,,,,,,,,,,,,,,,,,,,,,ahsaer12,1,0x0378,C:\Users\admin\Desktop\FINALTasksLogfiles\,2021_Jun_11_1337,Flanker,2020.1.3,60.01434488168977,
HHS SHH,HHSSSHH,10,S,,,,,0,7,7,1,,,,,,,,,,,,,,,0.8832465470588016,54.36611581440957,None,4,54.03279321325317,54.13282642467129,54.11614862337228,54.316161501983515,2,0,None,None,0.22487839686436928,,,,,,,,,,,,,,,,,,,,,,,,,,,,,,,,,,,,,,,,,,,,,,,,,,,,,,,,,,,,,ahsaer12,1,0x0378,C:\Users\admin\Desktop\FINALTasksLogfiles\,2021_Jun_11_1337,Flanker,2020.1.3,60.01434488168977,
HHH HHH,HHHHHHH,30,H,,,,,0,8,8,12,,,,,,,,,,,,,,,0.7616386458877725,55.48283102667483,None,2,55.24938415391989,55.34939951726301,55.33273256479333,None,2,1,None,None,0.12523924294873723,,,,,,,,,,,,,,,,,,,,,,,,,,,,,,,,,,,,,,,,,,,,,,,,,,,,,,,,,,,,,ahsaer12,1,0x0378,C:\Users\admin\Desktop\FINALTasksLogfiles\,2021_Jun_11_1337,Flanker,2020.1.3,60.01434488168977,
SSS SSS,SSSSSSS,30,S,,,,,0,9,9,3,,,,,,,,,,,,,,,0.9154973055312703,56.61601861239433,None,4,56.24943629829613,56.34949715673247,56.33282040531958,56.532787788837595,4,1,None,None,0.26415991035355546,,,,,,,,,,,,,,,,,,,,,,,,,,,,,,,,,,,,,,,,,,,,,,,,,,,,,,,,,,,,,ahsaer12,1,0x0378,C:\Users\admin\Desktop\FINALTasksLogfiles\,2021_Jun_11_1337,Flanker,2020.1.3,60.01434488168977,
HHH HHH,HHHHHHH,30,H,,,,,0,10,10,11,,,,,,,,,,,,,,,0.7745999440176105,58.11607688110962,None,2,57.532763641442216,57.63267401610756,57.61601686258291,57.81606123779602,2,1,None,None,0.46800032616556564,,,,,,,,,,,,,,,,,,,,,,,,,,,,,,,,,,,,,,,,,,,,,,,,,,,,,,,,,,,,,ahsaer12,1,0x0378,C:\Users\admin\Desktop\FINALTasksLogfiles\,2021_Jun_11_1337,Flanker,2020.1.3,60.01434488168977,
SSS SSS,SSSSSSS,30,S,,,,,0,11,11,4,,,,,,,,,,,,,,,0.9631412126398715,59.13275923191759,None,4,58.89939530021729,58.99935047005238,58.98268071788516,None,4,1,None,None,0.11833448762445187,,,,,,,,,,,,,,,,,,,,,,,,,,,,,,,,,,,,,,,,,,,,,,,,,,,,,,,,,,,,,ahsaer12,1,0x0378,C:\Users\admin\Desktop\FINALTasksLogfiles\,2021_Jun_11_1337,Flanker,2020.1.3,60.01434488168977,
HHH HHH,HHHHHHH,30,H,,,,,0,12,12,10,,,,,,,,,,,,,,,0.8067393978547026,62.18273524200413,None,2,60.09939907981061,60.199343050851894,60.18273384215536,60.38270157563602,None,0,61.18276463883376,None,,,,,,,,,,,,,,,,,,,,,,,,,,,,,,,,,,,,,,,,,,,,,,,,,,,,,,,,,,,,,,ahsaer12,1,0x0378,C:\Users\admin\Desktop\FINALTasksLogfiles\,2021_Jun_11_1337,Flanker,2020.1.3,60.01434488168977,
SHH HHS,SHHHHHS,20,H,,,,,0,13,13,8,,,,,,,,,,,,,,,0.8892472379901862,63.565998157098875,None,2,62.99947120703109,63.099471871959395,63.08280211979218,63.282671513878086,2,1,None,None,0.4650819909074926,,,,,,,,,,,,,,,,,,,,,,,,,,,,,,,,,,,,,,,,,,,,,,,,,,,,,,,,,,,,,ahsaer12,1,0x0378,C:\Users\admin\Desktop\FINALTasksLogfiles\,2021_Jun_11_1337,Flanker,2020.1.3,60.01434488168977,
SSH HSS,SSHHHSS,10,H,,,,,0,14,14,7,,,,,,,,,,,,,,,0.9304552961484989,64.7993372414785,None,2,64.46606433496163,64.56605275121183,64.54938999829028,64.74938642867528,4,0,None,None,0.22753181069310813,,,,,,,,,,,,,,,,,,,,,,,,,,,,,,,,,,,,,,,,,,,,,,,,,,,,,,,,,,,,,ahsaer12,1,0x0378,C:\Users\admin\Desktop\FINALTasksLogfiles\,2021_Jun_11_1337,Flanker,2020.1.3,60.01434488168977,
HSS SSH,HSSSSSH,20,S,,,,,,,,,0,0,0,0,0,0,0,2,,,,,,,0.772681727815846,142.29936751321475,None,4,,,,,,,,,,0.45866199731826784,200,n,36.68804784404165,224,220,226,140.44935118747526,140.56600690615596,140.5493466029693,140.7494060265617,4,1,0.7108653831674019,140.5493466029693,None,141.2993437157802,None,False,None,None,None,None,None,None,None,None,None,None,None,None,,,,,,,,,,,,,,,,,,,,,,,,,,,,,,ahsaer12,1,0x0378,C:\Users\admin\Desktop\FINALTasksLogfiles\,2021_Jun_11_1337,Flanker,2020.1.3,60.01434488168977,
SHH HHS,SHHHHHS,20,H,,,,,,,,,0,0,0,0,0,1,1,8,,,,,,,0.8015728719498203,144.8493136015295,None,2,,,,,,,,,,,,,,224,220,226,143.08272722786933,143.182580208726,143.16592095542546,143.36594888241416,2,1,0.6402436997159384,143.16592095542546,None,143.84934579805667,None,False,None,None,None,None,None,None,None,None,None,None,None,None,,,,,,,,,,,,,,,,,,,,,,,,,,,,,,ahsaer12,1,0x0378,C:\Users\admin\Desktop\FINALTasksLogfiles\,2021_Jun_11_1337,Flanker,2020.1.3,60.01434488168977,
SSS SSS,SSSHSSS,0,H,,,,,,,,,0,0,0,0,0,2,2,6,,,,,,,0.8018020105229173,146.23263391043292,None,2,,,,,,,,,,,,,,204,200,207,145.66602751893333,145.76591654590084,145.7492999879978,145.94939860736122,2,1,0.4468076617922634,145.7492999879978,None,None,None,False,None,None,None,None,None,None,None,None,None,None,None,None,,,,,,,,,,,,,,,,,,,,,,,,,,,,,,ahsaer12,1,0x0378,C:\Users\admin\Desktop\FINALTasksLogfiles\,2021_Jun_11_1337,Flanker,2020.1.3,60.01434488168977,
SSS SSS,SSSSSSS,30,S,,,,,,,,,0,0,0,0,0,3,3,3,,,,,,,0.9371880830903834,147.41605227876244,None,4,,,,,,,,,,,,,,234,230,237,147.04938562376083,147.14935129246442,147.13268189025803,147.33268986939765,4,1,0.2374220940273517,147.13268189025803,None,None,None,False,None,None,None,None,None,None,None,None,None,None,None,None,,,,,,,,,,,,,,,,,,,,,,,,,,,,,,ahsaer12,1,0x0378,C:\Users\admin\Desktop\FINALTasksLogfiles\,2021_Jun_11_1337,Flanker,2020.1.3,60.01434488168977,
HSS SSH,HSSSSSH,20,S,,,,,,,,,0,0,0,0,0,4,4,2,,,,,,,0.9717460352918385,148.73254064549292,None,4,,,,,,,,,,,,,,224,220,229,148.3659744296583,148.46591035156962,148.44930359260798,148.64934516812355,2,0,0.24083037644413707,148.44930359260798,None,None,None,False,None,None,None,None,None,None,None,None,None,None,None,None,,,,,,,,,,,,,,,,,,,,,,,,,,,,,,ahsaer12,1,0x0378,C:\Users\admin\Desktop\FINALTasksLogfiles\,2021_Jun_11_1337,Flanker,2020.1.3,60.01434488168977,
SSS SSS,SSSSSSS,30,S,,,,,,,,,0,0,0,0,0,5,5,4,,,,,,,0.8235791693453043,150.08266178492704,None,4,,,,,,,,,,,,,,234,230,237,149.715957683964,149.81587260814013,149.79920355589638,149.9992997255249,4,1,0.24588593120279256,149.79920355589638,None,None,None,False,None,None,None,None,None,None,None,None,None,None,None,None,,,,,,,,,,,,,,,,,,,,,,,,,,,,,,ahsaer12,1,0x0378,C:\Users\admin\Desktop\FINALTasksLogfiles\,2021_Jun_11_1337,Flanker,2020.1.3,60.01434488168977,
SHH HHS,SHHHHHS,20,H,,,,,,,,,0,0,0,0,0,6,6,8,,,,,,,0.9583210346172006,151.28263161817995,None,2,,,,,,,,,,,,,,224,220,229,150.915965313141,151.01597192742884,150.99930742469587,151.1993042050417,4,0,0.2377986534156662,150.99930742469587,None,None,None,False,None,None,None,None,None,None,None,None,None,None,None,None,,,,,,,,,,,,,,,,,,,,,,,,,,,,,,ahsaer12,1,0x0378,C:\Users\admin\Desktop\FINALTasksLogfiles\,2021_Jun_11_1337,Flanker,2020.1.3,60.01434488168977,
HSS SSH,HSSSSSH,20,S,,,,,,,,,0,0,0,0,0,7,7,2,,,,,,,0.8647785209142435,152.63255747867697,None,4,,,,,,,,,,,,,,224,220,227,152.24926166712976,152.34930747718863,152.33263457536123,152.5326114078598,4,1,0.25640474674764846,152.33263457536123,None,None,None,False,None,None,None,None,None,None,None,None,None,None,None,None,,,,,,,,,,,,,,,,,,,,,,,,,,,,,,ahsaer12,1,0x0378,C:\Users\admin\Desktop\FINALTasksLogfiles\,2021_Jun_11_1337,Flanker,2020.1.3,60.01434488168977,
HHH HHH,HHHHHHH,30,H,,,,,,,,,0,0,0,0,0,8,8,10,,,,,,,0.7512683886185292,155.59929356618886,None,2,,,,,,,,,,,,,,234,230,0,153.4992705036766,153.59935515954749,153.58270815492688,153.78256600025816,None,0,,153.58270815492688,None,154.59937265765984,None,False,None,None,None,None,None,None,None,None,None,None,None,None,,,,,,,,,,,,,,,,,,,,,,,,,,,,,,ahsaer12,1,0x0378,C:\Users\admin\Desktop\FINALTasksLogfiles\,2021_Jun_11_1337,Flanker,2020.1.3,60.01434488168977,
HHH HHH,HHHSHHH,0,S,,,,,,,,,0,0,0,0,0,9,9,0,,,,,,,0.7540028726529227,157.9826268236975,None,4,,,,,,,,,,,,,,204,200,208,156.36604092248672,156.46596144605792,156.44933333940025,156.6492734258627,2,0,0.4987333116114314,156.44933333940025,None,156.9826243739626,None,False,None,None,None,None,None,None,None,None,None,None,None,None,,,,,,,,,,,,,,,,,,,,,,,,,,,,,,ahsaer12,1,0x0378,C:\Users\admin\Desktop\FINALTasksLogfiles\,2021_Jun_11_1337,Flanker,2020.1.3,60.01434488168977,
HHH HHH,HHHHHHH,30,H,,,,,,,,,0,0,0,0,0,10,10,11,,,,,,,0.975530767326767,159.16601019580048,None,2,,,,,,,,,,,,,,234,230,239,158.7492894891293,158.84929610341533,158.8326221517018,159.03261718223803,4,0,0.2914163707446278,158.8326221517018,None,None,None,False,None,None,None,None,None,None,None,None,None,None,None,None,,,,,,,,,,,,,,,,,,,,,,,,,,,,,,ahsaer12,1,0x0378,C:\Users\admin\Desktop\FINALTasksLogfiles\,2021_Jun_11_1337,Flanker,2020.1.3,60.01434488168977,
HHH HHH,HHHHHHH,30,H,,,,,,,,,0,0,0,0,0,11,11,10,,,,,,,0.7816793444460991,160.3993685281057,None,2,,,,,,,,,,,,,,234,230,239,160.1492903990311,160.2493502075813,160.2326612074903,None,4,0,0.12030617497839557,160.2326612074903,None,None,None,False,None,None,None,None,None,None,None,None,None,None,None,None,,,,,,,,,,,,,,,,,,,,,,,,,,,,,,ahsaer12,1,0x0378,C:\Users\admin\Desktop\FINALTasksLogfiles\,2021_Jun_11_1337,Flanker,2020.1.3,60.01434488168977,
HHH HHH,HHHHHHH,30,H,,,,,,,,,0,0,0,0,1,0,12,9,,,,,,,0.9707928761046476,161.44928959411845,None,2,,,,,,,,,,,,,,234,230,239,161.18269009687356,161.2826960112361,161.2660157602004,None,4,0,0.14898663179337746,161.2660157602004,None,None,None,False,None,None,None,None,None,None,None,None,None,None,None,None,,,,,,,,,,,,,,,,,,,,,,,,,,,,,,ahsaer12,1,0x0378,C:\Users\admin\Desktop\FINALTasksLogfiles\,2021_Jun_11_1337,Flanker,2020.1.3,60.01434488168977,
SSH HSS,SSHHHSS,10,H,,,,,,,,,0,0,0,0,1,1,13,7,,,,,,,0.9424831895356302,162.73256514285094,None,2,,,,,,,,,,,,,,214,210,219,162.43268948443983,162.5326558530669,162.5159885506364,None,4,0,0.1790287917447131,162.5159885506364,None,None,None,False,None,None,None,None,None,None,None,None,None,None,None,None,,,,,,,,,,,,,,,,,,,,,,,,,,,,,,ahsaer12,1,0x0378,C:\Users\admin\Desktop\FINALTasksLogfiles\,2021_Jun_11_1337,Flanker,2020.1.3,60.01434488168977,
SSH HSS,SSHHHSS,10,H,,,,,,,,,0,0,0,0,1,2,14,7,,,,,,,0.8525034523257828,163.9993578192607,None,2,,,,,,,,,,,,,,214,210,219,163.68257023480146,163.78256495037022,163.76589694801442,163.96599696722842,4,0,0.19309412479924504,163.76589694801442,None,None,None,False,None,None,None,None,None,None,None,None,None,None,None,None,,,,,,,,,,,,,,,,,,,,,,,,,,,,,,ahsaer12,1,0x0378,C:\Users\admin\Desktop\FINALTasksLogfiles\,2021_Jun_11_1337,Flanker,2020.1.3,60.01434488168977,
HHH HHH,HHHSHHH,0,S,,,,,,,,,0,0,0,0,1,3,15,0,,,,,,,0.9598619331515377,165.19936824813522,None,4,,,,,,,,,,,,,,204,200,207,164.86595955626217,164.96599906700067,164.94933246449364,165.14933624408695,4,1,0.21360016322250885,164.94933246449364,None,None,None,False,None,None,None,None,None,None,None,None,None,None,None,None,,,,,,,,,,,,,,,,,,,,,,,,,,,,,,ahsaer12,1,0x0378,C:\Users\admin\Desktop\FINALTasksLogfiles\,2021_Jun_11_1337,Flanker,2020.1.3,60.01434488168977,
SSS SSS,SSSSSSS,30,S,,,,,,,,,0,0,0,0,1,4,16,3,,,,,,,0.7609355156539367,166.58261471500373,None,4,,,,,,,,,,,,,,234,230,237,166.16600039685727,166.26603080857785,166.24938065429706,166.449374984908,4,1,0.28952937425674463,166.24938065429706,None,None,None,False,None,None,None,None,None,None,None,None,None,None,None,None,,,,,,,,,,,,,,,,,,,,,,,,,,,,,,ahsaer12,1,0x0378,C:\Users\admin\Desktop\FINALTasksLogfiles\,2021_Jun_11_1337,Flanker,2020.1.3,60.01434488168977,
HHH HHH,HHHSHHH,0,S,,,,,,,,,0,0,0,0,1,5,17,0,,,,,,,0.9655516452048103,167.8993701029358,None,4,,,,,,,,,,,,,,204,200,207,167.34935752179263,167.4493588866444,167.43268773462842,167.63269151422173,4,1,0.4173432895258884,167.43268773462842,None,None,None,False,None,None,None,None,None,None,None,None,None,None,None,None,,,,,,,,,,,,,,,,,,,,,,,,,,,,,,ahsaer12,1,0x0378,C:\Users\admin\Desktop\FINALTasksLogfiles\,2021_Jun_11_1337,Flanker,2020.1.3,60.01434488168977,
SSS SSS,SSSSSSS,30,S,,,,,,,,,0,0,0,0,1,6,18,5,,,,,,,0.923629924656465,169.2992611246882,None,4,,,,,,,,,,,,,,234,230,237,168.86592456003746,168.96598611839727,168.94927017121336,169.14927325088138,4,1,0.31565510659675056,168.94927017121336,None,None,None,False,None,None,None,None,None,None,None,None,None,None,None,None,,,,,,,,,,,,,,,,,,,,,,,,,,,,,,ahsaer12,1,0x0378,C:\Users\admin\Desktop\FINALTasksLogfiles\,2021_Jun_11_1337,Flanker,2020.1.3,60.01434488168977,
HHH HHH,HHHHHHH,30,H,,,,,,,,,0,0,0,0,1,7,19,9,,,,,,,0.7719366818874729,170.54930950697053,None,2,,,,,,,,,,,,,,234,230,237,170.23264615911285,170.3326422745322,170.31594172568657,170.51592380761758,2,1,0.18992836622601317,170.31594172568657,None,None,None,False,None,None,None,None,None,None,None,None,None,None,None,None,,,,,,,,,,,,,,,,,,,,,,,,,,,,,,ahsaer12,1,0x0378,C:\Users\admin\Desktop\FINALTasksLogfiles\,2021_Jun_11_1337,Flanker,2020.1.3,60.01434488168977,
SSS SSS,SSSSSSS,30,S,,,,,,,,,0,0,0,0,1,8,20,5,,,,,,,0.7845800454171021,171.73253049658706,None,4,,,,,,,,,,,,,,234,230,237,171.33261112789114,171.4326131926682,171.4159514896328,171.61595631911223,4,1,0.27892446799523896,171.4159514896328,None,None,None,False,None,None,None,None,None,None,None,None,None,None,None,None,,,,,,,,,,,,,,,,,,,,,,,,,,,,,,ahsaer12,1,0x0378,C:\Users\admin\Desktop\FINALTasksLogfiles\,2021_Jun_11_1337,Flanker,2020.1.3,60.01434488168977,
SSS SSS,SSSSSSS,30,S,,,,,,,,,0,0,0,0,1,9,21,3,,,,,,,0.8993226793785691,172.94923692479824,None,4,,,,,,,,,,,,,,234,230,237,172.53257956129528,172.63255677875168,172.6158985753391,172.81587785757438,4,1,0.2929282076929667,172.6158985753391,None,None,None,False,None,None,None,None,None,None,None,None,None,None,None,None,,,,,,,,,,,,,,,,,,,,,,,,,,,,,,ahsaer12,1,0x0378,C:\Users\admin\Desktop\FINALTasksLogfiles\,2021_Jun_11_1337,Flanker,2020.1.3,60.01434488168977,
HHH HHH,HHHHHHH,30,H,,,,,,,,,0,0,0,0,1,10,22,9,,,,,,,0.8282774454379671,174.36588028981168,None,2,,,,,,,,,,,,,,234,230,237,173.84924990839863,173.94927612057108,173.93260776825264,174.13269343901266,2,1,0.3722601017489069,173.93260776825264,None,None,None,False,None,None,None,None,None,None,None,None,None,None,None,None,,,,,,,,,,,,,,,,,,,,,,,,,,,,,,ahsaer12,1,0x0378,C:\Users\admin\Desktop\FINALTasksLogfiles\,2021_Jun_11_1337,Flanker,2020.1.3,60.01434488168977,
SSS SSS,SSSSSSS,30,S,,,,,,,,,0,0,0,0,1,11,23,5,,,,,,,0.970046903027198,175.4659369487017,None,4,,,,,,,,,,,,,,234,230,237,175.19924471145896,175.29932201812153,175.28268271267007,None,4,1,0.14912976635423547,175.28268271267007,None,None,None,False,None,None,None,None,None,None,None,None,None,None,None,None,,,,,,,,,,,,,,,,,,,,,,,,,,,,,,ahsaer12,1,0x0378,C:\Users\admin\Desktop\FINALTasksLogfiles\,2021_Jun_11_1337,Flanker,2020.1.3,60.01434488168977,
SHH HHS,SHHHHHS,20,H,,,,,,,,,0,0,0,0,2,0,24,8,,,,,,,0.768798971296939,176.8326344003799,None,2,,,,,,,,,,,,,,224,220,227,176.44931969087156,176.54926926131157,176.53260825819962,176.73265753288615,2,1,0.26515100346477993,176.53260825819962,None,None,None,False,None,None,None,None,None,None,None,None,None,None,None,None,,,,,,,,,,,,,,,,,,,,,,,,,,,,,,ahsaer12,1,0x0378,C:\Users\admin\Desktop\FINALTasksLogfiles\,2021_Jun_11_1337,Flanker,2020.1.3,60.01434488168977,
HHH HHH,HHHSHHH,0,S,,,,,,,,,0,0,0,0,2,1,25,0,,,,,,,0.9659463214468429,177.94928626947694,None,4,,,,,,,,,,,,,,204,200,207,177.61588142718938,177.71591673837975,177.69923578742055,177.89923186784472,4,1,0.20753356750537932,177.69923578742055,None,None,None,False,None,None,None,None,None,None,None,None,None,None,None,None,,,,,,,,,,,,,,,,,,,,,,,,,,,,,,ahsaer12,1,0x0378,C:\Users\admin\Desktop\FINALTasksLogfiles\,2021_Jun_11_1337,Flanker,2020.1.3,60.01434488168977,
SSH HSS,SSHHHSS,10,H,,,,,,,,,0,0,0,0,2,2,26,7,,,,,,,0.8559125888765218,179.26592721975067,None,2,,,,,,,,,,,,,,214,210,217,178.91588097223757,179.0160275714279,178.99936411858107,179.19920271598858,2,1,0.2203698331140913,178.99936411858107,None,None,None,False,None,None,None,None,None,None,None,None,None,None,None,None,,,,,,,,,,,,,,,,,,,,,,,,,,,,,,ahsaer12,1,0x0378,C:\Users\admin\Desktop\FINALTasksLogfiles\,2021_Jun_11_1337,Flanker,2020.1.3,60.01434488168977,
HHH HHH,HHHSHHH,0,S,,,,,,,,,0,0,0,0,2,3,27,0,,,,,,,0.973021501866902,180.56600655619332,None,4,,,,,,,,,,,,,,204,200,207,180.13267419108888,180.23260556349123,180.21594351049316,180.41599313514052,4,1,0.3168883735888812,180.21594351049316,None,None,None,False,None,None,None,None,None,None,None,None,None,None,None,None,,,,,,,,,,,,,,,,,,,,,,,,,,,,,,ahsaer12,1,0x0378,C:\Users\admin\Desktop\FINALTasksLogfiles\,2021_Jun_11_1337,Flanker,2020.1.3,60.01434488168977,
HSS SSH,HSSSSSH,20,S,,,,,,,,,0,0,0,0,2,4,28,2,,,,,,,0.7870712324299602,181.8826527559013,None,4,,,,,,,,,,,,,,224,220,229,181.54927661051806,181.64923248027844,181.6325658777714,181.83259905419254,2,0,0.21323725236288738,181.6325658777714,None,None,None,False,None,None,None,None,None,None,None,None,None,None,None,None,,,,,,,,,,,,,,,,,,,,,,,,,,,,,,ahsaer12,1,0x0378,C:\Users\admin\Desktop\FINALTasksLogfiles\,2021_Jun_11_1337,Flanker,2020.1.3,60.01434488168977,
HSS SSH,HSSSSSH,20,S,,,,,,,,,0,0,0,0,2,5,29,2,,,,,,,0.9200169384940473,183.01590298486371,None,4,,,,,,,,,,,,,,224,220,227,182.6826864222694,182.7825341536918,182.76587385050516,182.96587273062687,4,1,0.21280574889897252,182.76587385050516,None,None,None,False,None,None,None,None,None,None,None,None,None,None,None,None,,,,,,,,,,,,,,,,,,,,,,,,,,,,,,ahsaer12,1,0x0378,C:\Users\admin\Desktop\FINALTasksLogfiles\,2021_Jun_11_1337,Flanker,2020.1.3,60.01434488168977,
HHH HHH,HHHHHHH,30,H,,,,,,,,,0,0,0,0,2,6,30,11,,,,,,,0.8910970256293046,184.31587908244182,None,2,,,,,,,,,,,,,,234,230,237,183.94923552494947,184.04927538565062,184.03259373476612,184.23254152039772,2,1,0.2370885799973621,184.03259373476612,None,None,None,False,None,None,None,None,None,None,None,None,None,None,None,None,,,,,,,,,,,,,,,,,,,,,,,,,,,,,,ahsaer12,1,0x0378,C:\Users\admin\Desktop\FINALTasksLogfiles\,2021_Jun_11_1337,Flanker,2020.1.3,60.01434488168977,
SSH HSS,SSHHHSS,10,H,,,,,,,,,0,0,0,0,2,7,31,7,,,,,,,0.8443141224968094,185.5659869583069,None,2,,,,,,,,,,,,,,214,210,219,185.2159025649089,185.315929127044,185.29926322446227,185.4993320970334,4,0,0.21950542633931036,185.29926322446227,None,None,None,False,None,None,None,None,None,None,None,None,None,None,None,None,,,,,,,,,,,,,,,,,,,,,,,,,,,,,,ahsaer12,1,0x0378,C:\Users\admin\Desktop\FINALTasksLogfiles\,2021_Jun_11_1337,Flanker,2020.1.3,60.01434488168977,
HHH HHH,HHHHHHH,30,H,,,,,,,,,0,0,0,0,2,8,32,10,,,,,,,0.8269175381501885,186.8993330069352,None,2,,,,,,,,,,,,,,234,230,237,186.4160050338578,186.5158646639975,186.49919806149046,186.69925013587272,2,1,0.3645605821420759,186.49919806149046,None,None,None,False,None,None,None,None,None,None,None,None,None,None,None,None,,,,,,,,,,,,,,,,,,,,,,,,,,,,,,ahsaer12,1,0x0378,C:\Users\admin\Desktop\FINALTasksLogfiles\,2021_Jun_11_1337,Flanker,2020.1.3,60.01434488168977,
HSS SSH,HSSSSSH,20,S,,,,,,,,,0,0,0,0,2,9,33,2,,,,,,,0.8399503937114517,188.09929199135877,None,4,,,,,,,,,,,,,,224,220,227,187.73256584277442,187.83258715547527,187.81592545243984,188.0158704383739,4,1,0.24072608769165527,187.81592545243984,None,None,None,False,None,None,None,None,None,None,None,None,None,None,None,None,,,,,,,,,,,,,,,,,,,,,,,,,,,,,,ahsaer12,1,0x0378,C:\Users\admin\Desktop\FINALTasksLogfiles\,2021_Jun_11_1337,Flanker,2020.1.3,60.01434488168977,
HHS SHH,HHSSSHH,10,S,,,,,,,,,0,0,0,0,2,10,34,1,,,,,,,0.9782888358496937,189.3159039297625,None,4,,,,,,,,,,,,,,214,210,217,188.94913333597106,189.04928483463118,189.03254194035253,189.2325835158681,4,1,0.24215813324553892,189.03254194035253,None,None,None,False,None,None,None,None,None,None,None,None,None,None,None,None,,,,,,,,,,,,,,,,,,,,,,,,,,,,,,ahsaer12,1,0x0378,C:\Users\admin\Desktop\FINALTasksLogfiles\,2021_Jun_11_1337,Flanker,2020.1.3,60.01434488168977,
HHH HHH,HHHHHHH,30,H,,,,,,,,,0,0,0,0,2,11,35,11,,,,,,,0.9060170940580021,190.69925748508103,None,2,,,,,,,,,,,,,,234,230,239,190.29926952378264,190.39926458931404,190.38260078650637,190.58261576488985,4,0,0.2711161101269681,190.38260078650637,None,None,None,False,None,None,None,None,None,None,None,None,None,None,None,None,,,,,,,,,,,,,,,,,,,,,,,,,,,,,,ahsaer12,1,0x0378,C:\Users\admin\Desktop\FINALTasksLogfiles\,2021_Jun_11_1337,Flanker,2020.1.3,60.01434488168977,
HHH HHH,HHHHHHH,30,H,,,,,,,,,0,0,0,0,3,0,36,10,,,,,,,0.9539782700253496,191.86587906494424,None,2,,,,,,,,,,,,,,234,230,237,191.6159528194894,191.71595068472016,191.69928408221313,None,2,1,0.12937404700824118,191.69928408221313,None,None,None,False,None,None,None,None,None,None,None,None,None,None,None,None,,,,,,,,,,,,,,,,,,,,,,,,,,,,,,ahsaer12,1,0x0378,C:\Users\admin\Desktop\FINALTasksLogfiles\,2021_Jun_11_1337,Flanker,2020.1.3,60.01434488168977,
HHH HHH,HHHHHHH,30,H,,,,,,,,,0,0,0,0,3,1,37,10,,,,,,,0.8075355921806767,193.14926415186164,None,2,,,,,,,,,,,,,,234,230,237,192.83257000732556,192.93262561632764,192.9159443154058,193.11597469212938,2,1,0.1986945707903942,192.9159443154058,None,None,None,False,None,None,None,None,None,None,None,None,None,None,None,None,,,,,,,,,,,,,,,,,,,,,,,,,,,,,,ahsaer12,1,0x0378,C:\Users\admin\Desktop\FINALTasksLogfiles\,2021_Jun_11_1337,Flanker,2020.1.3,60.01434488168977,
HHS SHH,HHSSSHH,10,S,,,,,,,,,0,0,0,0,3,2,38,1,,,,,,,0.8489185143234816,194.33258383083376,None,4,,,,,,,,,,,,,,214,210,217,193.96601656511484,194.06600113177956,194.0493359291213,194.24928161497883,4,1,0.24028723502124194,194.0493359291213,None,None,None,False,None,None,None,None,None,None,None,None,None,None,None,None,,,,,,,,,,,,,,,,,,,,,,,,,,,,,,ahsaer12,1,0x0378,C:\Users\admin\Desktop\FINALTasksLogfiles\,2021_Jun_11_1337,Flanker,2020.1.3,60.01434488168977,
HHH HHH,HHHHHHH,30,H,,,,,,,,,0,0,0,0,3,3,39,9,,,,,,,0.7623164918751857,195.61586077941502,None,2,,,,,,,,,,,,,,234,230,237,195.1825763591405,195.28257562422004,195.2659195205797,195.4659128013045,2,1,0.3106929917612433,195.2659195205797,None,None,None,False,None,None,None,None,None,None,None,None,None,None,None,None,,,,,,,,,,,,,,,,,,,,,,,,,,,,,,ahsaer12,1,0x0378,C:\Users\admin\Desktop\FINALTasksLogfiles\,2021_Jun_11_1337,Flanker,2020.1.3,60.01434488168977,
HSS SSH,HSSSSSH,20,S,,,,,,,,,0,0,0,0,3,4,40,2,,,,,,,0.758743351843991,196.84924745866192,None,4,,,,,,,,,,,,,,224,220,227,196.38257698907182,196.48261090041524,196.4659093016835,196.66595822640556,4,1,0.3487394884468813,196.4659093016835,None,None,None,False,None,None,None,None,None,None,None,None,None,None,None,None,,,,,,,,,,,,,,,,,,,,,,,,,,,,,,ahsaer12,1,0x0378,C:\Users\admin\Desktop\FINALTasksLogfiles\,2021_Jun_11_1337,Flanker,2020.1.3,60.01434488168977,
SSS SSS,SSSSSSS,30,S,,,,,,,,,0,0,0,0,3,5,41,5,,,,,,,0.8396252553461943,198.03262523136982,None,4,,,,,,,,,,,,,,234,230,237,197.61598081647026,197.71596748290722,197.69930403006038,197.8992010711645,4,1,0.2983008282553783,197.69930403006038,None,None,None,False,None,None,None,None,None,None,None,None,None,None,None,None,,,,,,,,,,,,,,,,,,,,,,,,,,,,,,ahsaer12,1,0x0378,C:\Users\admin\Desktop\FINALTasksLogfiles\,2021_Jun_11_1337,Flanker,2020.1.3,60.01434488168977,
HHH HHH,HHHSHHH,0,S,,,,,,,,,0,0,0,0,3,6,42,0,,,,,,,0.9075136967527389,199.43258169606452,None,4,,,,,,,,,,,,,,204,200,207,198.88257541424173,198.98257852890674,198.96591052655094,199.16590975663348,4,1,0.43068945014238125,198.96591052655094,None,None,None,False,None,None,None,None,None,None,None,None,None,None,None,None,,,,,,,,,,,,,,,,,,,,,,,,,,,,,,ahsaer12,1,0x0378,C:\Users\admin\Desktop\FINALTasksLogfiles\,2021_Jun_11_1337,Flanker,2020.1.3,60.01434488168977,
SSS SSS,SSSSSSS,30,S,,,,,,,,,0,0,0,0,3,7,43,3,,,,,,,0.9996895364009841,200.71585409513682,None,4,,,,,,,,,,,,,,234,230,237,200.3492448339457,200.44919230460982,200.43252290240525,200.63265126856095,4,1,0.25006693028262816,200.43252290240525,None,None,None,False,None,None,None,None,None,None,None,None,None,None,None,None,,,,,,,,,,,,,,,,,,,,,,,,,,,,,,ahsaer12,1,0x0378,C:\Users\admin\Desktop\FINALTasksLogfiles\,2021_Jun_11_1337,Flanker,2020.1.3,60.01434488168977,
SSS SSS,SSSSSSS,30,S,,,,,,,,,0,0,0,0,3,8,44,4,,,,,,,0.786225553385494,202.0493086320639,None,4,,,,,,,,,,,,,,234,230,237,201.7159671329464,201.81587610776296,201.7992053057078,201.99932527277088,4,1,0.21138455217442242,201.7992053057078,None,None,None,False,None,None,None,None,None,None,None,None,None,None,None,None,,,,,,,,,,,,,,,,,,,,,,,,,,,,,,ahsaer12,1,0x0378,C:\Users\admin\Desktop\FINALTasksLogfiles\,2021_Jun_11_1337,Flanker,2020.1.3,60.01434488168977,
SSS SSS,SSSSSSS,30,S,,,,,,,,,0,0,0,0,3,9,45,5,,,,,,,0.9871125330780246,203.19932065326793,None,4,,,,,,,,,,,,,,234,230,237,202.84927090613382,202.94933386434423,202.93265536311992,203.13267139139134,4,1,0.2219117668173567,202.93265536311992,None,None,None,False,None,None,None,None,None,None,None,None,None,None,None,None,,,,,,,,,,,,,,,,,,,,,,,,,,,,,,ahsaer12,1,0x0378,C:\Users\admin\Desktop\FINALTasksLogfiles\,2021_Jun_11_1337,Flanker,2020.1.3,60.01434488168977,
SHH HHS,SHHHHHS,20,H,,,,,,,,,0,0,0,0,3,10,46,8,,,,,,,0.8756140261089631,204.56583927423526,None,2,,,,,,,,,,,,,,224,220,227,204.1993122541735,204.29927582310302,204.2826018713895,204.4825902526427,2,1,0.24793076066816866,204.2826018713895,None,None,None,False,None,None,None,None,None,None,None,None,None,None,None,None,,,,,,,,,,,,,,,,,,,,,,,,,,,,,,ahsaer12,1,0x0378,C:\Users\admin\Desktop\FINALTasksLogfiles\,2021_Jun_11_1337,Flanker,2020.1.3,60.01434488168977,
HHH HHH,HHHHHHH,30,H,,,,,,,,,0,0,0,0,3,11,47,11,,,,,,,0.8571857447538617,205.81584951063087,None,2,,,,,,,,,,,,,,234,230,237,205.44920525321504,205.5493214056878,205.53259320982397,205.73264598413152,2,1,0.2458698329392064,205.53259320982397,None,None,None,False,None,None,None,None,None,None,None,None,None,None,None,None,,,,,,,,,,,,,,,,,,,,,,,,,,,,,,ahsaer12,1,0x0378,C:\Users\admin\Desktop\FINALTasksLogfiles\,2021_Jun_11_1337,Flanker,2020.1.3,60.01434488168977,
HHH HHH,HHHSHHH,0,S,,,,,,,,,0,0,0,0,4,0,48,0,,,,,,,0.7797472880868812,207.16595630161282,None,4,,,,,,,,,,,,,,204,200,207,206.68250969133078,206.78257159965324,206.76589974771377,206.96590177749385,4,1,0.3516847707978741,206.76589974771377,None,None,None,False,None,None,None,None,None,None,None,None,None,None,None,None,,,,,,,,,,,,,,,,,,,,,,,,,,,,,,ahsaer12,1,0x0378,C:\Users\admin\Desktop\FINALTasksLogfiles\,2021_Jun_11_1337,Flanker,2020.1.3,60.01434488168977,
SSS SSS,SSSHSSS,0,H,,,,,,,,,0,0,0,0,4,1,49,6,,,,,,,0.7935645104123012,208.34921263741853,None,2,,,,,,,,,,,,,,204,200,209,207.94931986585289,208.04933067968705,208.03265637801087,208.23261466250915,4,0,0.28178365963321994,208.03265637801087,None,None,None,False,None,None,None,None,None,None,None,None,None,None,None,None,,,,,,,,,,,,,,,,,,,,,,,,,,,,,,ahsaer12,1,0x0378,C:\Users\admin\Desktop\FINALTasksLogfiles\,2021_Jun_11_1337,Flanker,2020.1.3,60.01434488168977,
HHH HHH,HHHHHHH,30,H,,,,,,,,,0,0,0,0,4,2,50,11,,,,,,,0.991308714347906,209.38251154613135,None,2,,,,,,,,,,,,,,234,230,237,209.14928689940825,209.2492466187523,209.2325429202465,None,2,1,0.11192212919740996,209.2325429202465,None,None,None,False,None,None,None,None,None,None,None,None,None,None,None,None,,,,,,,,,,,,,,,,,,,,,,,,,,,,,,ahsaer12,1,0x0378,C:\Users\admin\Desktop\FINALTasksLogfiles\,2021_Jun_11_1337,Flanker,2020.1.3,60.01434488168977,
SHH HHS,SHHHHHS,20,H,,,,,,,,,0,0,0,0,4,3,51,8,,,,,,,0.9712998231194556,210.78246976063747,None,2,,,,,,,,,,,,,,224,220,229,210.3825727895255,210.48246881573868,210.46590020266376,210.66590153252037,4,0,0.27154131426868844,210.46590020266376,None,None,None,False,None,None,None,None,None,None,None,None,None,None,None,None,,,,,,,,,,,,,,,,,,,,,,,,,,,,,,ahsaer12,1,0x0378,C:\Users\admin\Desktop\FINALTasksLogfiles\,2021_Jun_11_1337,Flanker,2020.1.3,60.01434488168977,
SSH HSS,SSHHHSS,10,H,,,,,,,,,0,0,0,0,4,4,52,7,,,,,,,0.7879657203947634,213.8658706658498,None,2,,,,,,,,,,,,,,214,210,0,211.76580910748817,211.8658367195112,211.84917746621068,212.04926208708457,None,0,,211.84917746621068,None,212.8658927134711,None,False,None,None,None,None,None,None,None,None,None,None,None,None,,,,,,,,,,,,,,,,,,,,,,,,,,,,,,ahsaer12,1,0x0378,C:\Users\admin\Desktop\FINALTasksLogfiles\,2021_Jun_11_1337,Flanker,2020.1.3,60.01434488168977,
SSS SSS,SSSHSSS,0,H,,,,,,,,,0,0,0,0,4,5,53,6,,,,,,,0.9448813865706205,215.08261803964524,None,2,,,,,,,,,,,,,,204,200,209,214.6659715249716,214.76584585352612,214.7493160862614,214.94922887566645,4,0,0.29313608527445467,214.7493160862614,None,None,None,False,None,None,None,None,None,None,None,None,None,None,None,None,,,,,,,,,,,,,,,,,,,,,,,,,,,,,,ahsaer12,1,0x0378,C:\Users\admin\Desktop\FINALTasksLogfiles\,2021_Jun_11_1337,Flanker,2020.1.3,60.01434488168977,
HHH HHH,HHHHHHH,30,H,,,,,,,,,0,0,0,0,4,6,54,9,,,,,,,0.7739399881266197,217.69931942840049,None,2,,,,,,,,,,,,,,234,230,236,216.03261403257784,216.1326353452787,216.1159690927343,216.3159784717227,2,1,0.5434682869454264,216.1159690927343,None,216.69919939134707,None,False,None,None,None,None,None,None,None,None,None,None,None,None,,,,,,,,,,,,,,,,,,,,,,,,,,,,,,ahsaer12,1,0x0378,C:\Users\admin\Desktop\FINALTasksLogfiles\,2021_Jun_11_1337,Flanker,2020.1.3,60.01434488168977,
HHH HHH,HHHHHHH,30,H,,,,,,,,,0,0,0,0,4,7,55,11,,,,,,,0.8417681801368232,220.58255837108118,None,2,,,,,,,,,,,,,,234,230,0,218.48256645520814,218.58261506496638,218.56594286306245,218.76587315058168,None,0,,218.56594286306245,None,219.58261646481515,None,False,None,None,None,None,None,None,None,None,None,None,None,None,,,,,,,,,,,,,,,,,,,,,,,,,,,,,,ahsaer12,1,0x0378,C:\Users\admin\Desktop\FINALTasksLogfiles\,2021_Jun_11_1337,Flanker,2020.1.3,60.01434488168977,
SSH HSS,SSHHHSS,10,H,,,,,,,,,0,0,0,0,4,8,56,7,,,,,,,0.7826671879342157,221.9659434230034,None,2,,,,,,,,,,,,,,214,210,217,221.43255019946264,221.5324987200147,221.51583911675152,221.71596538313497,2,1,0.413556697909371,221.51583911675152,None,None,None,False,None,None,None,None,None,None,None,None,None,None,None,None,,,,,,,,,,,,,,,,,,,,,,,,,,,,,,ahsaer12,1,0x0378,C:\Users\admin\Desktop\FINALTasksLogfiles\,2021_Jun_11_1337,Flanker,2020.1.3,60.01434488168977,
SHH HHS,SHHHHHS,20,H,,,,,,,,,0,0,0,0,4,9,57,8,,,,,,,0.8893296556141163,223.21588436687125,None,2,,,,,,,,,,,,,,224,220,227,222.74930103788392,222.84921666198352,222.8325007147978,223.03262873099266,2,1,0.3378822593986115,222.8325007147978,None,None,None,False,None,None,None,None,None,None,None,None,None,None,None,None,,,,,,,,,,,,,,,,,,,,,,,,,,,,,,ahsaer12,1,0x0378,C:\Users\admin\Desktop\FINALTasksLogfiles\,2021_Jun_11_1337,Flanker,2020.1.3,60.01434488168977,
HHH HHH,HHHHHHH,30,H,,,,,,,,,0,0,0,0,4,10,58,10,,,,,,,0.8747087283074075,224.4492178518558,None,2,,,,,,,,,,,,,,234,230,237,224.11596244345128,224.21595750898268,224.19928180745774,224.39924814108963,2,1,0.21104648863547482,224.19928180745774,None,None,None,False,None,None,None,None,None,None,None,None,None,None,None,None,,,,,,,,,,,,,,,,,,,,,,,,,,,,,,ahsaer12,1,0x0378,C:\Users\admin\Desktop\FINALTasksLogfiles\,2021_Jun_11_1337,Flanker,2020.1.3,60.01434488168977,
SSS SSS,SSSSSSS,30,S,,,,,,,,,0,0,0,0,4,11,59,4,,,,,,,0.8538585974455317,225.73249725017195,None,4,,,,,,,,,,,,,,234,230,237,225.33253343626893,225.43249420550092,225.41582725303124,225.6159748671107,4,1,0.27748612312097976,225.41582725303124,None,None,None,False,None,None,None,None,None,None,None,None,None,None,None,None,,,,,,,,,,,,,,,,,,,,,,,,,,,,,,ahsaer12,1,0x0378,C:\Users\admin\Desktop\FINALTasksLogfiles\,2021_Jun_11_1337,Flanker,2020.1.3,60.01434488168977,
SHH HHS,SHHHHHS,20,H,,,,,,,,,0,0,0,0,5,0,60,8,,,,,,,0.8243060725180213,226.9991635902079,None,2,,,,,,,,,,,,,,224,220,227,226.5992193741913,226.69921059013905,226.6825446875555,226.88264365688156,2,1,0.2757629089701368,226.6825446875555,None,None,None,False,None,None,None,None,None,None,None,None,None,None,None,None,,,,,,,,,,,,,,,,,,,,,,,,,,,,,,ahsaer12,1,0x0378,C:\Users\admin\Desktop\FINALTasksLogfiles\,2021_Jun_11_1337,Flanker,2020.1.3,60.01434488168977,
HHH HHH,HHHSHHH,0,S,,,,,,,,,0,0,0,0,5,1,61,0,,,,,,,0.9152808220017659,228.1992142647432,None,4,,,,,,,,,,,,,,204,200,209,227.83261620234407,227.9324859813878,227.91582427835237,228.1159543943195,2,0,0.23650659276427177,227.91582427835237,None,None,None,False,None,None,None,None,None,None,None,None,None,None,None,None,,,,,,,,,,,,,,,,,,,,,,,,,,,,,,ahsaer12,1,0x0378,C:\Users\admin\Desktop\FINALTasksLogfiles\,2021_Jun_11_1337,Flanker,2020.1.3,60.01434488168977,
HHS SHH,HHSSSHH,10,S,,,,,,,,,0,0,0,0,5,2,62,1,,,,,,,0.8470653672897216,229.48252340985164,None,4,,,,,,,,,,,,,,214,210,217,229.11586200428428,229.21588926634286,229.19917016949876,229.39922329376896,4,1,0.24312472899873683,229.19917016949876,None,None,None,False,None,None,None,None,None,None,None,None,None,None,None,None,,,,,,,,,,,,,,,,,,,,,,,,,,,,,,ahsaer12,1,0x0378,C:\Users\admin\Desktop\FINALTasksLogfiles\,2021_Jun_11_1337,Flanker,2020.1.3,60.01434488168977,
HHS SHH,HHSSSHH,10,S,,,,,,,,,0,0,0,0,5,3,63,1,,,,,,,0.8590636319660468,230.66578009561817,None,4,,,,,,,,,,,,,,214,210,217,230.33249844004422,230.43251695304753,230.41587484789852,230.61591117397984,4,1,0.21239559313653444,230.41587484789852,None,None,None,False,None,None,None,None,None,None,None,None,None,None,None,None,,,,,,,,,,,,,,,,,,,,,,,,,,,,,,ahsaer12,1,0x0378,C:\Users\admin\Desktop\FINALTasksLogfiles\,2021_Jun_11_1337,Flanker,2020.1.3,60.01434488168977,
HHH HHH,HHHHHHH,30,H,,,,,,,,,0,0,0,0,5,4,64,9,,,,,,,0.9734953506341832,231.91588902136937,None,2,,,,,,,,,,,,,,234,230,237,231.53252426725885,231.63254418011093,231.6158800273406,231.81579491651974,2,1,0.25238333045672334,231.6158800273406,None,None,None,False,None,None,None,None,None,None,None,None,None,None,None,None,,,,,,,,,,,,,,,,,,,,,,,,,,,,,,ahsaer12,1,0x0378,C:\Users\admin\Desktop\FINALTasksLogfiles\,2021_Jun_11_1337,Flanker,2020.1.3,60.01434488168977,
HHH HHH,HHHHHHH,30,H,,,,,,,,,0,0,0,0,5,5,65,11,,,,,,,0.9282712653106109,233.2992642743484,None,2,,,,,,,,,,,,,,234,230,237,232.89923921705122,232.99924898099744,232.9825725795472,233.18258965770656,2,1,0.2686751233886753,232.9825725795472,None,None,None,False,None,None,None,None,None,None,None,None,None,None,None,None,,,,,,,,,,,,,,,,,,,,,,,,,,,,,,ahsaer12,1,0x0378,C:\Users\admin\Desktop\FINALTasksLogfiles\,2021_Jun_11_1337,Flanker,2020.1.3,60.01434488168977,
HHH HHH,HHHHHHH,30,H,,,,,,,,,0,0,0,0,5,6,66,10,,,,,,,0.850645283493383,234.5991707294379,None,2,,,,,,,,,,,,,,234,230,237,234.23262096182953,234.3325768315899,234.315946975119,234.51583631705398,2,1,0.2373185052001645,234.315946975119,None,None,None,False,None,None,None,None,None,None,None,None,None,None,None,None,,,,,,,,,,,,,,,,,,,,,,,,,,,,,,ahsaer12,1,0x0378,C:\Users\admin\Desktop\FINALTasksLogfiles\,2021_Jun_11_1337,Flanker,2020.1.3,60.01434488168977,
SSS SSS,SSSSSSS,30,S,,,,,,,,,0,0,0,0,5,7,67,3,,,,,,,0.986416573020482,235.88252851929974,None,4,,,,,,,,,,,,,,234,230,237,235.4491475094419,235.54925946236835,235.53259530959622,235.73257319198274,4,1,0.309621407330269,235.53259530959622,None,None,None,False,None,None,None,None,None,None,None,None,None,None,None,None,,,,,,,,,,,,,,,,,,,,,,,,,,,,,,ahsaer12,1,0x0378,C:\Users\admin\Desktop\FINALTasksLogfiles\,2021_Jun_11_1337,Flanker,2020.1.3,60.01434488168977,
SSS SSS,SSSSSSS,30,S,,,,,,,,,0,0,0,0,5,8,68,3,,,,,,,0.9604656702232691,237.23261606235792,None,4,,,,,,,,,,,,,,234,230,237,236.88261426005192,236.98261422505675,236.9659465726636,237.16595455180322,4,1,0.21827880863020255,236.9659465726636,None,None,None,False,None,None,None,None,None,None,None,None,None,None,None,None,,,,,,,,,,,,,,,,,,,,,,,,,,,,,,ahsaer12,1,0x0378,C:\Users\admin\Desktop\FINALTasksLogfiles\,2021_Jun_11_1337,Flanker,2020.1.3,60.01434488168977,
SSS SSS,SSSSSSS,30,S,,,,,,,,,0,0,0,0,5,9,69,3,,,,,,,0.811861726489941,238.5325060692212,None,4,,,,,,,,,,,,,,234,230,237,238.19927935772284,238.2992926212919,238.28262601878487,238.4825710047171,4,1,0.20067745693631878,238.28262601878487,None,None,None,False,None,None,None,None,None,None,None,None,None,None,None,None,,,,,,,,,,,,,,,,,,,,,,,,,,,,,,ahsaer12,1,0x0378,C:\Users\admin\Desktop\FINALTasksLogfiles\,2021_Jun_11_1337,Flanker,2020.1.3,60.01434488168977,
HHS SHH,HHSSSHH,10,S,,,,,,,,,0,0,0,0,5,10,70,1,,,,,,,0.8690344436085314,239.749224046187,None,4,,,,,,,,,,,,,,214,210,217,239.34915699341946,239.44914365985642,239.43248650633177,239.63253298131895,4,1,0.27363023897851235,239.43248650633177,None,None,None,False,None,None,None,None,None,None,None,None,None,None,None,None,,,,,,,,,,,,,,,,,,,,,,,,,,,,,,ahsaer12,1,0x0378,C:\Users\admin\Desktop\FINALTasksLogfiles\,2021_Jun_11_1337,Flanker,2020.1.3,60.01434488168977,
SSS SSS,SSSSSSS,30,S,,,,,,,,,0,0,0,0,5,11,71,4,,,,,,,0.8442193225496364,240.98262017441448,None,4,,,,,,,,,,,,,,234,230,237,240.63250498433808,240.73258964020897,240.71587719264608,240.915864873974,4,1,0.21834110191230138,240.71587719264608,None,None,None,False,None,None,None,None,None,None,None,None,None,None,None,None,,,,,,,,,,,,,,,,,,,,,,,,,,,,,,ahsaer12,1,0x0378,C:\Users\admin\Desktop\FINALTasksLogfiles\,2021_Jun_11_1337,Flanker,2020.1.3,60.01434488168977,
SSS SSS,SSSHSSS,0,H,,,,,,,,,0,0,0,0,6,0,72,6,,,,,,,0.8958651232493796,242.1659584013869,None,2,,,,,,,,,,,,,,204,200,209,241.83254725977895,241.9326186170838,241.9159628634061,242.1159155485093,4,0,0.21222376166770118,241.9159628634061,None,None,None,False,None,None,None,None,None,None,None,None,None,None,None,None,,,,,,,,,,,,,,,,,,,,,,,,,,,,,,ahsaer12,1,0x0378,C:\Users\admin\Desktop\FINALTasksLogfiles\,2021_Jun_11_1337,Flanker,2020.1.3,60.01434488168977,
HSS SSH,HSSSSSH,20,S,,,,,,,,,0,0,0,0,6,1,73,2,,,,,,,0.8821474381333199,243.49923375764047,None,4,,,,,,,,,,,,,,224,220,227,243.06593883849746,243.16593775361434,243.14925785254127,243.3492805300957,4,1,0.30086815136928635,243.14925785254127,None,None,None,False,None,None,None,None,None,None,None,None,None,None,None,None,,,,,,,,,,,,,,,,,,,,,,,,,,,,,,ahsaer12,1,0x0378,C:\Users\admin\Desktop\FINALTasksLogfiles\,2021_Jun_11_1337,Flanker,2020.1.3,60.01434488168977,
HHH HHH,HHHSHHH,0,S,,,,,,,,,0,0,0,0,6,2,74,0,,,,,,,0.9565285974174619,244.74915860324472,None,4,,,,,,,,,,,,,,204,200,209,244.3825846882428,244.48253845822728,244.46588060477734,244.66582874037158,2,0,0.24221062758260814,244.46588060477734,None,None,None,False,None,None,None,None,None,None,None,None,None,None,None,None,,,,,,,,,,,,,,,,,,,,,,,,,,,,,,ahsaer12,1,0x0378,C:\Users\admin\Desktop\FINALTasksLogfiles\,2021_Jun_11_1337,Flanker,2020.1.3,60.01434488168977,
SSS SSS,SSSSSSS,30,S,,,,,,,,,0,0,0,0,6,3,75,5,,,,,,,0.9722789381130319,245.93247933210478,None,4,,,,,,,,,,,,,,234,230,237,245.7159356363427,245.81594225062872,245.79914021272816,None,4,1,0.09900432238464418,245.79914021272816,None,None,None,False,None,None,None,None,None,None,None,None,None,None,None,None,,,,,,,,,,,,,,,,,,,,,,,,,,,,,,ahsaer12,1,0x0378,C:\Users\admin\Desktop\FINALTasksLogfiles\,2021_Jun_11_1337,Flanker,2020.1.3,60.01434488168977,
HHS SHH,HHSSSHH,10,S,,,,,,,,,0,0,0,0,6,4,76,1,,,,,,,0.9610276661215764,247.26590622201547,None,4,,,,,,,,,,,,,,214,210,217,246.91586207427645,247.01585608992173,246.99918773760328,247.19919431689414,4,1,0.2249529388263909,246.99918773760328,None,None,None,False,None,None,None,None,None,None,None,None,None,None,None,None,,,,,,,,,,,,,,,,,,,,,,,,,,,,,,ahsaer12,1,0x0378,C:\Users\admin\Desktop\FINALTasksLogfiles\,2021_Jun_11_1337,Flanker,2020.1.3,60.01434488168977,
HHS SHH,HHSSSHH,10,S,,,,,,,,,0,0,0,0,6,5,77,1,,,,,,,0.7905729899239781,248.5991658299663,None,4,,,,,,,,,,,,,,214,210,217,248.23252577209678,248.33251978774206,248.31585178538626,248.51586606384626,4,1,0.24724483464342484,248.31585178538626,None,None,None,False,None,None,None,None,None,None,None,None,None,None,None,None,,,,,,,,,,,,,,,,,,,,,,,,,,,,,,ahsaer12,1,0x0378,C:\Users\admin\Desktop\FINALTasksLogfiles\,2021_Jun_11_1337,Flanker,2020.1.3,60.01434488168977,
SSH HSS,SSHHHSS,10,H,,,,,,,,,0,0,0,0,6,6,78,7,,,,,,,0.9956422842784807,249.7824060675066,None,2,,,,,,,,,,,,,,214,210,217,249.39912775407174,249.49917671379262,249.4824656660785,249.6824145015962,2,1,0.2635989208556566,249.4824656660785,None,None,None,False,None,None,None,None,None,None,None,None,None,None,None,None,,,,,,,,,,,,,,,,,,,,,,,,,,,,,,ahsaer12,1,0x0378,C:\Users\admin\Desktop\FINALTasksLogfiles\,2021_Jun_11_1337,Flanker,2020.1.3,60.01434488168977,
SSH HSS,SSHHHSS,10,H,,,,,,,,,0,0,0,0,6,7,79,7,,,,,,,0.9572719726531851,251.01586903852512,None,2,,,,,,,,,,,,,,214,210,219,250.78252680448531,250.88242982994416,250.86585631739763,None,4,0,0.10121328414606978,250.86585631739763,None,None,None,False,None,None,None,None,None,None,None,None,None,None,None,None,,,,,,,,,,,,,,,,,,,,,,,,,,,,,,ahsaer12,1,0x0378,C:\Users\admin\Desktop\FINALTasksLogfiles\,2021_Jun_11_1337,Flanker,2020.1.3,60.01434488168977,
SSS SSS,SSSSSSS,30,S,,,,,,,,,0,0,0,0,6,8,80,4,,,,,,,0.786688018874649,252.2158483207586,None,4,,,,,,,,,,,,,,234,230,237,251.9824728403055,252.0824735052338,252.06585134793204,None,4,1,0.1041904130634066,252.06585134793204,None,None,None,False,None,None,None,None,None,None,None,None,None,None,None,None,,,,,,,,,,,,,,,,,,,,,,,,,,,,,,ahsaer12,1,0x0378,C:\Users\admin\Desktop\FINALTasksLogfiles\,2021_Jun_11_1337,Flanker,2020.1.3,60.01434488168977,
HSS SSH,HSSSSSH,20,S,,,,,,,,,0,0,0,0,6,9,81,2,,,,,,,0.882527713996143,253.41579505650407,None,4,,,,,,,,,,,,,,224,220,227,253.01586763867635,253.11586480398182,253.0992128998896,253.29918133329375,4,1,0.27786338243276987,253.0992128998896,None,None,None,False,None,None,None,None,None,None,None,None,None,None,None,None,,,,,,,,,,,,,,,,,,,,,,,,,,,,,,ahsaer12,1,0x0378,C:\Users\admin\Desktop\FINALTasksLogfiles\,2021_Jun_11_1337,Flanker,2020.1.3,60.01434488168977,
HHH HHH,HHHHHHH,30,H,,,,,,,,,0,0,0,0,6,10,82,10,,,,,,,0.9193508078792628,254.6824596467286,None,2,,,,,,,,,,,,,,234,230,237,254.2992611246882,254.39926878886217,254.38259973661843,254.58248767870464,2,1,0.2644423298952461,254.38259973661843,None,None,None,False,None,None,None,None,None,None,None,None,None,None,None,None,,,,,,,,,,,,,,,,,,,,,,,,,,,,,,ahsaer12,1,0x0378,C:\Users\admin\Desktop\FINALTasksLogfiles\,2021_Jun_11_1337,Flanker,2020.1.3,60.01434488168977,
SSS SSS,SSSSSSS,30,S,,,,,,,,,0,0,0,0,6,11,83,4,,,,,,,0.8469168811027763,255.9992664791116,None,4,,,,,,,,,,,,,,234,230,239,255.61583278243597,255.71588349196645,255.69920919029028,255.89923291773084,2,0,0.25477497251995374,255.69920919029028,None,None,None,False,None,None,None,None,None,None,None,None,None,None,None,None,,,,,,,,,,,,,,,,,,,,,,,,,,,,,,ahsaer12,1,0x0378,C:\Users\admin\Desktop\FINALTasksLogfiles\,2021_Jun_11_1337,Flanker,2020.1.3,60.01434488168977,
SHH HHS,SHHHHHS,20,H,,,,,,,,,0,0,0,0,7,0,84,8,,,,,,,0.8508288970988511,257.0492547378781,None,2,,,,,,,,,,,,,,224,220,229,256.8492761555681,256.9492649217791,256.9325986692347,None,4,0,0.07937598929856904,256.9325986692347,None,None,None,False,None,None,None,None,None,None,None,None,None,None,None,None,,,,,,,,,,,,,,,,,,,,,,,,,,,,,,ahsaer12,1,0x0378,C:\Users\admin\Desktop\FINALTasksLogfiles\,2021_Jun_11_1337,Flanker,2020.1.3,60.01434488168977,
SHH HHS,SHHHHHS,20,H,,,,,,,,,0,0,0,0,7,1,85,8,,,,,,,0.9214386056044845,258.2492571176208,None,2,,,,,,,,,,,,,,224,220,229,257.89918427297744,257.9991838880178,257.9825127360018,258.1825627106118,4,0,0.2265092209818249,257.9825127360018,None,None,None,False,None,None,None,None,None,None,None,None,None,None,None,None,,,,,,,,,,,,,,,,,,,,,,,,,,,,,,ahsaer12,1,0x0378,C:\Users\admin\Desktop\FINALTasksLogfiles\,2021_Jun_11_1337,Flanker,2020.1.3,60.01434488168977,
SSH HSS,SSHHHSS,10,H,,,,,,,,,0,0,0,0,7,2,86,7,,,,,,,0.7961296613012244,261.2825941722185,None,2,,,,,,,,,,,,,,214,210,0,259.18244967280407,259.28257737403146,259.26587542533525,259.4659086017582,None,0,,259.26587542533525,None,260.28246713591943,None,False,None,None,None,None,None,None,None,None,None,None,None,None,,,,,,,,,,,,,,,,,,,,,,,,,,,,,,ahsaer12,1,0x0378,C:\Users\admin\Desktop\FINALTasksLogfiles\,2021_Jun_11_1337,Flanker,2020.1.3,60.01434488168977,
SSS SSS,SSSSSSS,30,S,,,,,,,,,0,0,0,0,7,3,87,5,,,,,,,0.9506224877373589,262.44911636280085,None,4,,,,,,,,,,,,,,234,230,237,262.08251760047824,262.1825770590658,262.1657862199572,262.3659159859617,4,1,0.24515136042464292,262.1657862199572,None,None,None,False,None,None,None,None,None,None,None,None,None,None,None,None,,,,,,,,,,,,,,,,,,,,,,,,,,,,,,ahsaer12,1,0x0378,C:\Users\admin\Desktop\FINALTasksLogfiles\,2021_Jun_11_1337,Flanker,2020.1.3,60.01434488168977,
HHH HHH,HHHSHHH,0,S,,,,,,,,,0,0,0,0,7,4,88,0,,,,,,,0.7531473066732015,263.68245194755764,None,4,,,,,,,,,,,,,,204,200,209,263.3992194441835,263.4992509057902,263.4825468573217,None,2,0,0.1654247089445562,263.4825468573217,None,None,None,False,None,None,None,None,None,None,None,None,None,None,None,None,,,,,,,,,,,,,,,,,,,,,,,,,,,,,,ahsaer12,1,0x0378,C:\Users\admin\Desktop\FINALTasksLogfiles\,2021_Jun_11_1337,Flanker,2020.1.3,60.01434488168977,
HHS SHH,HHSSSHH,10,S,,,,,,,,,0,0,0,0,7,5,89,1,,,,,,,0.9691075838784484,264.6492573275973,None,4,,,,,,,,,,,,,,214,210,217,264.4491223121586,264.54921641701003,264.53255891352273,None,4,1,0.08341105411818717,264.53255891352273,None,None,None,False,None,None,None,None,None,None,None,None,None,None,None,None,,,,,,,,,,,,,,,,,,,,,,,,,,,,,,ahsaer12,1,0x0378,C:\Users\admin\Desktop\FINALTasksLogfiles\,2021_Jun_11_1337,Flanker,2020.1.3,60.01434488168977,
HSS SSH,HSSSSSH,20,S,,,,,,,,,0,0,0,0,7,6,90,2,,,,,,,0.894470626704111,265.81578686738794,None,4,,,,,,,,,,,,,,224,220,227,265.63260017407265,265.73258614058614,265.71592408758806,None,4,1,0.060971824188527535,265.71592408758806,None,None,None,False,None,None,None,None,None,None,None,None,None,None,None,None,,,,,,,,,,,,,,,,,,,,,,,,,,,,,,ahsaer12,1,0x0378,C:\Users\admin\Desktop\FINALTasksLogfiles\,2021_Jun_11_1337,Flanker,2020.1.3,60.01434488168977,
HHS SHH,HHSSSHH,10,S,,,,,,,,,0,0,0,0,7,7,91,1,,,,,,,0.8500861637802946,267.0491682972006,None,4,,,,,,,,,,,,,,214,210,217,266.7157778033652,266.8158334123673,266.7991430124275,266.99916638990544,4,1,0.21174011382936442,266.7991430124275,None,None,None,False,None,None,None,None,None,None,None,None,None,None,None,None,,,,,,,,,,,,,,,,,,,,,,,,,,,,,,ahsaer12,1,0x0378,C:\Users\admin\Desktop\FINALTasksLogfiles\,2021_Jun_11_1337,Flanker,2020.1.3,60.01434488168977,
HHH HHH,HHHHHHH,30,H,,,,,,,,,0,0,0,0,7,8,92,9,,,,,,,0.9850863894824833,268.3325880303819,None,2,,,,,,,,,,,,,,234,230,237,267.8992178693534,267.99922553352735,267.98254073298267,268.1825347136328,2,1,0.30140989294341125,267.98254073298267,None,None,None,False,None,None,None,None,None,None,None,None,None,None,None,None,,,,,,,,,,,,,,,,,,,,,,,,,,,,,,ahsaer12,1,0x0378,C:\Users\admin\Desktop\FINALTasksLogfiles\,2021_Jun_11_1337,Flanker,2020.1.3,60.01434488168977,
HHH HHH,HHHHHHH,30,H,,,,,,,,,0,0,0,0,7,9,93,9,,,,,,,0.7864416523829094,269.5490361864486,None,2,,,,,,,,,,,,,,234,230,239,269.3325330863081,269.43239901576635,269.4157362628448,None,4,0,0.09211601528841129,269.4157362628448,None,None,None,False,None,None,None,None,None,None,None,None,None,None,None,None,,,,,,,,,,,,,,,,,,,,,,,,,,,,,,ahsaer12,1,0x0378,C:\Users\admin\Desktop\FINALTasksLogfiles\,2021_Jun_11_1337,Flanker,2020.1.3,60.01434488168977,
SHH HHS,SHHHHHS,20,H,,,,,,,,,0,0,0,0,7,10,94,8,,,,,,,0.7549630146478302,270.6324906358859,None,2,,,,,,,,,,,,,,224,220,229,270.34913039628736,270.44913316098973,270.4324655085966,None,4,0,0.15438794926012633,270.4324655085966,None,None,None,False,None,None,None,None,None,None,None,None,None,None,None,None,,,,,,,,,,,,,,,,,,,,,,,,,,,,,,ahsaer12,1,0x0378,C:\Users\admin\Desktop\FINALTasksLogfiles\,2021_Jun_11_1337,Flanker,2020.1.3,60.01434488168977,
SSH HSS,SSHHHSS,10,H,,,,,,,,,0,0,0,0,7,11,95,7,,,,,,,0.9376066394522589,275.78249075837266,None,2,,,,,,,,,,,,,,214,210,217,271.3991305537711,271.49918021341546,271.4824544672865,None,2,1,0.11542735116017866,271.4824544672865,None,None,None,False,None,None,None,None,None,271.63242694275505,None,space,273.61591607345144,None,275.68243969887953,None,2.01987365662535,,,,,,,,,,,,,,,,,,,,,,,,,,,,,ahsaer12,1,0x0378,C:\Users\admin\Desktop\FINALTasksLogfiles\,2021_Jun_11_1337,Flanker,2020.1.3,60.01434488168977,
SSS SSS,SSSSSSS,30,S,,,,,,,,,0,0,0,0,8,0,96,4,,,,,,,0.8676742793007504,278.4658396591931,None,4,,,,,,,,,,,,,,234,230,236,276.73259104005774,276.8324303723857,276.81576271999074,277.0158900362603,4,1,0.6129574925344059,276.81576271999074,None,277.46585225783565,None,False,None,None,None,None,None,None,None,None,None,None,None,None,,,,,,,,,,,,,,,,,,,,,,,,,,,,,,ahsaer12,1,0x0378,C:\Users\admin\Desktop\FINALTasksLogfiles\,2021_Jun_11_1337,Flanker,2020.1.3,60.01434488168977,
HHH HHH,HHHHHHH,30,H,,,,,,,,,0,0,0,0,8,1,97,10,,,,,,,0.8046957291912203,279.7990880683519,None,2,,,,,,,,,,,,,,234,230,237,279.34916749228614,279.44908731593387,279.43242806263333,279.63255257920537,2,1,0.3282897939461691,279.43242806263333,None,None,None,False,None,None,None,None,None,None,None,None,None,None,None,None,,,,,,,,,,,,,,,,,,,,,,,,,,,,,,ahsaer12,1,0x0378,C:\Users\admin\Desktop\FINALTasksLogfiles\,2021_Jun_11_1337,Flanker,2020.1.3,60.01434488168977,
HHH HHH,HHHHHHH,30,H,,,,,,,,,0,0,0,0,8,2,98,9,,,,,,,0.8737564839318133,280.96579958851544,None,2,,,,,,,,,,,,,,234,230,237,280.61577188900264,280.71586669377757,280.69919449187546,280.8990981822626,2,1,0.23255726869865612,280.69919449187546,None,None,None,False,None,None,None,None,None,None,None,None,None,None,None,None,,,,,,,,,,,,,,,,,,,,,,,,,,,,,,ahsaer12,1,0x0378,C:\Users\admin\Desktop\FINALTasksLogfiles\,2021_Jun_11_1337,Flanker,2020.1.3,60.01434488168977,
HHH HHH,HHHHHHH,30,H,,,,,,,,,0,0,0,0,8,3,99,10,,,,,,,0.8835584194209306,282.11589980020653,None,2,,,,,,,,,,,,,,234,230,237,281.84912707164585,281.94915118404606,281.93248073195355,None,2,1,0.1493050974459038,281.93248073195355,None,None,None,False,None,None,None,None,None,None,None,None,None,None,None,None,,,,,,,,,,,,,,,,,,,,,,,,,,,,,,ahsaer12,1,0x0378,C:\Users\admin\Desktop\FINALTasksLogfiles\,2021_Jun_11_1337,Flanker,2020.1.3,60.01434488168977,
SHH HHS,SHHHHHS,20,H,,,,,,,,,0,0,0,0,8,4,100,8,,,,,,,0.8030488541553606,283.3158706833474,None,2,,,,,,,,,,,,,,224,220,227,282.999157990811,283.0991425574757,283.08246510613935,283.28248253425954,2,1,0.20033309407517663,283.08246510613935,None,None,None,False,None,None,None,None,None,None,None,None,None,None,None,None,,,,,,,,,,,,,,,,,,,,,,,,,,,,,,ahsaer12,1,0x0378,C:\Users\admin\Desktop\FINALTasksLogfiles\,2021_Jun_11_1337,Flanker,2020.1.3,60.01434488168977,
HSS SSH,HSSSSSH,20,S,,,,,,,,,0,0,0,0,8,5,101,2,,,,,,,0.8707421084371505,284.4991224696423,None,4,,,,,,,,,,,,,,224,220,227,284.13255170429875,284.23256916741593,284.2159025649089,284.4158681986155,4,1,0.23880934441149293,284.2159025649089,None,None,None,False,None,None,None,None,None,None,None,None,None,None,None,None,,,,,,,,,,,,,,,,,,,,,,,,,,,,,,ahsaer12,1,0x0378,C:\Users\admin\Desktop\FINALTasksLogfiles\,2021_Jun_11_1337,Flanker,2020.1.3,60.01434488168977,
HHH HHH,HHHHHHH,30,H,,,,,,,,,0,0,0,0,8,6,102,10,,,,,,,0.8323961270297847,285.74912640671755,None,2,,,,,,,,,,,,,,234,230,237,285.3824335045465,285.4824243705316,285.46589110364584,285.6658703858793,2,1,0.24476605198105972,285.46589110364584,None,None,None,False,None,None,None,None,None,None,None,None,None,None,None,None,,,,,,,,,,,,,,,,,,,,,,,,,,,,,,ahsaer12,1,0x0378,C:\Users\admin\Desktop\FINALTasksLogfiles\,2021_Jun_11_1337,Flanker,2020.1.3,60.01434488168977,
SSS SSS,SSSSSSS,30,S,,,,,,,,,0,0,0,0,8,7,103,3,,,,,,,0.8325768673873399,286.93256017338535,None,4,,,,,,,,,,,,,,234,230,237,286.58247892964755,286.68242675027614,286.66575979780646,286.86590951166,4,1,0.23097718911049014,286.66575979780646,None,None,None,False,None,None,None,None,None,None,None,None,None,None,None,None,,,,,,,,,,,,,,,,,,,,,,,,,,,,,,ahsaer12,1,0x0378,C:\Users\admin\Desktop\FINALTasksLogfiles\,2021_Jun_11_1337,Flanker,2020.1.3,60.01434488168977,
SSS SSS,SSSSSSS,30,S,,,,,,,,,0,0,0,0,8,8,104,4,,,,,,,0.9661100113172189,288.1158921010374,None,4,,,,,,,,,,,,,,234,230,237,287.7657650122437,287.8657898245674,287.8491256717971,288.0491458996148,4,1,0.23154867747689423,287.8491256717971,None,None,None,False,None,None,None,None,None,None,None,None,None,None,None,None,,,,,,,,,,,,,,,,,,,,,,,,,,,,,,ahsaer12,1,0x0378,C:\Users\admin\Desktop\FINALTasksLogfiles\,2021_Jun_11_1337,Flanker,2020.1.3,60.01434488168977,
HHH HHH,HHHHHHH,30,H,,,,,,,,,0,0,0,0,8,9,105,11,,,,,,,0.8063499962389199,289.43236646927653,None,2,,,,,,,,,,,,,,234,230,237,289.08250325202425,289.1825340137075,289.16586986093716,289.3658036480774,2,1,0.21984453976801888,289.16586986093716,None,None,None,False,None,None,None,None,None,None,None,None,None,None,None,None,,,,,,,,,,,,,,,,,,,,,,,,,,,,,,ahsaer12,1,0x0378,C:\Users\admin\Desktop\FINALTasksLogfiles\,2021_Jun_11_1337,Flanker,2020.1.3,60.01434488168977,
SSS SSS,SSSSSSS,30,S,,,,,,,,,0,0,0,0,8,10,106,4,,,,,,,0.7779958163089902,290.58237604074566,None,4,,,,,,,,,,,,,,234,230,237,290.2491055839637,290.34914334489076,290.33248024200657,290.53248297171194,4,1,0.20620126119320048,290.33248024200657,None,None,None,False,None,None,None,None,None,None,None,None,None,None,None,None,,,,,,,,,,,,,,,,,,,,,,,,,,,,,,ahsaer12,1,0x0378,C:\Users\admin\Desktop\FINALTasksLogfiles\,2021_Jun_11_1337,Flanker,2020.1.3,60.01434488168977,
HSS SSH,HSSSSSH,20,S,,,,,,,,,0,0,0,0,8,11,107,2,,,,,,,0.9159954471721194,291.6823770556348,None,4,,,,,,,,,,,,,,224,220,227,291.3658365445299,291.46570597361097,291.4490425207641,291.64909564503614,4,1,0.1985860824916017,291.4490425207641,None,None,None,False,None,None,None,None,None,None,None,None,None,None,None,None,,,,,,,,,,,,,,,,,,,,,,,,,,,,,,ahsaer12,1,0x0378,C:\Users\admin\Desktop\FINALTasksLogfiles\,2021_Jun_11_1337,Flanker,2020.1.3,60.01434488168977,
SSS SSS,SSSSSSS,30,S,,,,,,,,,0,0,0,0,9,0,108,5,,,,,,,0.7605688040743898,292.89915522611045,None,4,,,,,,,,,,,,,,234,230,237,292.59916233034346,292.69910770123533,292.68243584929405,None,4,1,0.17020309359577368,292.68243584929405,None,None,None,False,None,None,None,None,None,None,None,None,None,None,None,None,,,,,,,,,,,,,,,,,,,,,,,,,,,,,,ahsaer12,1,0x0378,C:\Users\admin\Desktop\FINALTasksLogfiles\,2021_Jun_11_1337,Flanker,2020.1.3,60.01434488168977,
HSS SSH,HSSSSSH,20,S,,,,,,,,,0,0,0,0,9,1,109,2,,,,,,,0.9992509062800143,294.0324729977874,None,4,,,,,,,,,,,,,,224,220,227,293.66580669274845,293.7657552133005,293.74914320490643,293.9492222263834,4,1,0.2374609398375469,293.74914320490643,None,None,None,False,None,None,None,None,None,None,None,None,None,None,None,None,,,,,,,,,,,,,,,,,,,,,,,,,,,,,,ahsaer12,1,0x0378,C:\Users\admin\Desktop\FINALTasksLogfiles\,2021_Jun_11_1337,Flanker,2020.1.3,60.01434488168977,
HHH HHH,HHHHHHH,30,H,,,,,,,,,0,0,0,0,9,2,110,10,,,,,,,0.9776366891549446,295.5157523261132,None,2,,,,,,,,,,,,,,234,230,237,295.03247019808987,295.1325447050549,295.1158392567377,295.3158454860659,2,1,0.36371402344229864,295.1158392567377,None,None,None,False,None,None,None,None,None,None,None,None,None,None,None,None,,,,,,,,,,,,,,,,,,,,,,,,,,,,,,ahsaer12,1,0x0378,C:\Users\admin\Desktop\FINALTasksLogfiles\,2021_Jun_11_1337,Flanker,2020.1.3,60.01434488168977,
SHH HHS,SHHHHHS,20,H,,,,,,,,,0,0,0,0,9,3,111,8,,,,,,,0.7928875025694146,296.8157921168204,None,2,,,,,,,,,,,,,,224,220,229,296.49910812119015,296.5992176243799,296.5825139258741,296.7825096563338,4,0,0.19509485901835433,296.5825139258741,None,None,None,False,None,None,None,None,None,None,None,None,None,None,None,None,,,,,,,,,,,,,,,,,,,,,,,,,,,,,,ahsaer12,1,0x0378,C:\Users\admin\Desktop\FINALTasksLogfiles\,2021_Jun_11_1337,Flanker,2020.1.3,60.01434488168977,
SSS SSS,SSSSSSS,30,S,,,,,,,,,0,0,0,0,9,4,112,4,,,,,,,0.9626218833151108,297.94920787793126,None,4,,,,,,,,,,,,,,234,230,237,297.61585867964277,297.71579775121245,297.6991290489332,297.8992220689015,4,1,0.20545199200205388,297.6991290489332,None,None,None,False,None,None,None,None,None,None,None,None,None,None,None,None,,,,,,,,,,,,,,,,,,,,,,,,,,,,,,ahsaer12,1,0x0378,C:\Users\admin\Desktop\FINALTasksLogfiles\,2021_Jun_11_1337,Flanker,2020.1.3,60.01434488168977,
HHS SHH,HHSSSHH,10,S,,,,,,,,,0,0,0,0,9,5,113,1,,,,,,,0.9348041739684769,299.24916052803746,None,4,,,,,,,,,,,,,,214,210,217,298.9158487757104,299.01576964924425,298.9991037466625,299.19908512867005,4,1,0.20941216489882208,298.9991037466625,None,None,None,False,None,None,None,None,None,None,None,None,None,None,None,None,,,,,,,,,,,,,,,,,,,,,,,,,,,,,,ahsaer12,1,0x0378,C:\Users\admin\Desktop\FINALTasksLogfiles\,2021_Jun_11_1337,Flanker,2020.1.3,60.01434488168977,
SSS SSS,SSSSSSS,30,S,,,,,,,,,0,0,0,0,9,6,114,3,,,,,,,0.9043024754500945,300.5157369277731,None,4,,,,,,,,,,,,,,234,230,237,300.1992069155349,300.29920968023725,300.28253852822127,300.48241842117386,4,1,0.18505199214268941,300.28253852822127,None,None,None,False,None,None,None,None,None,None,None,None,None,None,None,None,,,,,,,,,,,,,,,,,,,,,,,,,,,,,,ahsaer12,1,0x0378,C:\Users\admin\Desktop\FINALTasksLogfiles\,2021_Jun_11_1337,Flanker,2020.1.3,60.01434488168977,
HHH HHH,HHHHHHH,30,H,,,,,,,,,0,0,0,0,9,7,115,11,,,,,,,0.8039545938476982,301.8157742687454,None,2,,,,,,,,,,,,,,234,230,237,301.4324690082176,301.5324752725428,301.5157418272447,301.7158897912868,2,1,0.2557398184617341,301.5157418272447,None,None,None,False,None,None,None,None,None,None,None,None,None,None,None,None,,,,,,,,,,,,,,,,,,,,,,,,,,,,,,ahsaer12,1,0x0378,C:\Users\admin\Desktop\FINALTasksLogfiles\,2021_Jun_11_1337,Flanker,2020.1.3,60.01434488168977,
HHH HHH,HHHHHHH,30,H,,,,,,,,,0,0,0,0,9,8,116,11,,,,,,,0.8018836078774123,302.96587168074075,None,2,,,,,,,,,,,,,,234,230,237,302.63256412796,302.73242690775805,302.71576380487386,302.91588727155795,2,1,0.20477341518744652,302.71576380487386,None,None,None,False,None,None,None,None,None,None,None,None,None,None,None,None,,,,,,,,,,,,,,,,,,,,,,,,,,,,,,ahsaer12,1,0x0378,C:\Users\admin\Desktop\FINALTasksLogfiles\,2021_Jun_11_1337,Flanker,2020.1.3,60.01434488168977,
HHS SHH,HHSSSHH,10,S,,,,,,,,,0,0,0,0,9,9,117,1,,,,,,,0.799771896981361,304.24920392335844,None,4,,,,,,,,,,,,,,214,210,219,303.7824109669782,303.8824602766599,303.8657695267575,304.06579640385826,2,0,0.3457931562079466,303.8657695267575,None,None,None,False,None,None,None,None,None,None,None,None,None,None,None,None,,,,,,,,,,,,,,,,,,,,,,,,,,,,,,ahsaer12,1,0x0378,C:\Users\admin\Desktop\FINALTasksLogfiles\,2021_Jun_11_1337,Flanker,2020.1.3,60.01434488168977,
HHH HHH,HHHHHHH,30,H,,,,,,,,,0,0,0,0,9,10,118,9,,,,,,,0.9167732937247159,305.482414921551,None,2,,,,,,,,,,,,,,234,230,237,305.0491959442188,305.1492022085422,305.13252335735706,305.3325344861569,2,1,0.314023232594991,305.13252335735706,None,None,None,False,None,None,None,None,None,None,None,None,None,None,None,None,,,,,,,,,,,,,,,,,,,,,,,,,,,,,,ahsaer12,1,0x0378,C:\Users\admin\Desktop\FINALTasksLogfiles\,2021_Jun_11_1337,Flanker,2020.1.3,60.01434488168977,
HHH HHH,HHHSHHH,0,S,,,,,,,,,0,0,0,0,9,11,119,0,,,,,,,0.9987083868982995,306.63245878931957,None,4,,,,,,,,,,,,,,204,200,207,306.399115155431,306.4991546661695,306.48250066230503,None,4,1,0.11502524452771468,306.48250066230503,None,None,None,False,None,None,None,None,None,None,None,None,None,None,None,None,,,,,,,,,,,,,,,,,,,,,,,,,,,,,,ahsaer12,1,0x0378,C:\Users\admin\Desktop\FINALTasksLogfiles\,2021_Jun_11_1337,Flanker,2020.1.3,60.01434488168977,
HHH HHH,HHHHHHH,30,H,,,,,,,,,0,0,0,0,10,0,120,10,,,,,,,0.9272947400006963,308.1325422553182,None,2,,,,,,,,,,,,,,234,230,237,307.63254767973376,307.7324727528139,307.71588349196645,307.9158659238601,2,1,0.37462024720662157,307.71588349196645,None,None,None,False,None,None,None,None,None,None,None,None,None,None,None,None,,,,,,,,,,,,,,,,,,,,,,,,,,,,,,ahsaer12,1,0x0378,C:\Users\admin\Desktop\FINALTasksLogfiles\,2021_Jun_11_1337,Flanker,2020.1.3,60.01434488168977,
SSS SSS,SSSHSSS,0,H,,,,,,,,,0,0,0,0,10,1,121,6,,,,,,,0.9806131827806128,309.2990854436357,None,2,,,,,,,,,,,,,,204,200,209,309.06586359661196,309.1658548125597,309.14919065978756,None,4,0,0.1052868448132358,309.14919065978756,None,None,None,False,None,None,None,None,None,None,None,None,None,None,None,None,,,,,,,,,,,,,,,,,,,,,,,,,,,,,,ahsaer12,1,0x0378,C:\Users\admin\Desktop\FINALTasksLogfiles\,2021_Jun_11_1337,Flanker,2020.1.3,60.01434488168977,
HHS SHH,HHSSSHH,10,S,,,,,,,,,0,0,0,0,10,2,122,1,,,,,,,0.9563567898175439,310.6490403509997,None,4,,,,,,,,,,,,,,214,210,217,310.2824933830889,310.38248494899926,310.3658204462663,310.5656884405016,4,1,0.23364705116546247,310.3658204462663,None,None,None,False,None,None,None,None,None,None,None,None,None,None,None,None,,,,,,,,,,,,,,,,,,,,,,,,,,,,,,ahsaer12,1,0x0378,C:\Users\admin\Desktop\FINALTasksLogfiles\,2021_Jun_11_1337,Flanker,2020.1.3,60.01434488168977,
SSS SSS,SSSSSSS,30,S,,,,,,,,,0,0,0,0,10,3,123,3,,,,,,,0.8681359699952368,311.9491214372538,None,4,,,,,,,,,,,,,,234,230,237,311.61579043700294,311.71577920321397,311.6991154004045,311.89913107871325,4,1,0.21533842575081508,311.6991154004045,None,None,None,False,None,None,None,None,None,None,None,None,None,None,None,None,,,,,,,,,,,,,,,,,,,,,,,,,,,,,,ahsaer12,1,0x0378,C:\Users\admin\Desktop\FINALTasksLogfiles\,2021_Jun_11_1337,Flanker,2020.1.3,60.01434488168977,
HHH HHH,HHHHHHH,30,H,,,,,,,,,0,0,0,0,10,4,124,11,,,,,,,0.9251253312189972,313.31576989421774,None,2,,,,,,,,,,,,,,234,230,237,312.8324475205354,312.93248808116186,312.9158298777493,313.11579936103954,2,1,0.3575823347455298,312.9158298777493,None,None,None,False,None,None,None,None,None,None,None,None,None,None,None,None,,,,,,,,,,,,,,,,,,,,,,,,,,,,,,ahsaer12,1,0x0378,C:\Users\admin\Desktop\FINALTasksLogfiles\,2021_Jun_11_1337,Flanker,2020.1.3,60.01434488168977,
SSS SSS,SSSHSSS,0,H,,,,,,,,,0,0,0,0,10,5,125,6,,,,,,,0.8380419589258838,314.63238739701956,None,2,,,,,,,,,,,,,,204,200,209,314.24917417656616,314.34915769334293,314.3325015897044,314.53245217503354,4,0,0.2559480460040504,314.3325015897044,None,None,None,False,None,None,None,None,None,None,None,None,None,None,None,None,,,,,,,,,,,,,,,,,,,,,,,,,,,,,,ahsaer12,1,0x0378,C:\Users\admin\Desktop\FINALTasksLogfiles\,2021_Jun_11_1337,Flanker,2020.1.3,60.01434488168977,
HHH HHH,HHHHHHH,30,H,,,,,,,,,0,0,0,0,10,6,126,9,,,,,,,0.8029964737758681,315.96572924610155,None,2,,,,,,,,,,,,,,234,230,237,315.48249611279425,315.5825254746287,315.5658280754433,315.7657349154906,2,1,0.35359451483054727,315.5658280754433,None,None,None,False,None,None,None,None,None,None,None,None,None,None,None,None,,,,,,,,,,,,,,,,,,,,,,,,,,,,,,ahsaer12,1,0x0378,C:\Users\admin\Desktop\FINALTasksLogfiles\,2021_Jun_11_1337,Flanker,2020.1.3,60.01434488168977,
SSS SSS,SSSHSSS,0,H,,,,,,,,,0,0,0,0,10,7,127,6,,,,,,,0.7528622168623831,318.44918600528945,None,2,,,,,,,,,,,,,,204,200,206,316.7824004681097,316.8825484671488,316.86586786615226,317.0658670962348,2,1,0.5375311772622808,316.86586786615226,None,317.44911811261227,None,False,None,None,None,None,None,None,None,None,None,None,None,None,,,,,,,,,,,,,,,,,,,,,,,,,,,,,,ahsaer12,1,0x0378,C:\Users\admin\Desktop\FINALTasksLogfiles\,2021_Jun_11_1337,Flanker,2020.1.3,60.01434488168977,
SSH HSS,SSHHHSS,10,H,,,,,,,,,0,0,0,0,10,8,128,7,,,,,,,0.9591770628910807,319.66575314852344,None,2,,,,,,,,,,,,,,214,210,217,319.21577867827,319.31577899323565,319.299110640919,319.49905947643674,2,1,0.322272542905921,319.299110640919,None,None,None,False,None,None,None,None,None,None,None,None,None,None,None,None,,,,,,,,,,,,,,,,,,,,,,,,,,,,,,ahsaer12,1,0x0378,C:\Users\admin\Desktop\FINALTasksLogfiles\,2021_Jun_11_1337,Flanker,2020.1.3,60.01434488168977,
SHH HHS,SHHHHHS,20,H,,,,,,,,,0,0,0,0,10,9,129,8,,,,,,,0.7930642359656237,320.93238099271,None,2,,,,,,,,,,,,,,224,220,227,320.6325011347526,320.73249480043705,320.71583414728775,None,2,1,0.1785521431502275,320.71583414728775,None,None,None,False,None,None,None,None,None,None,None,None,None,None,None,None,,,,,,,,,,,,,,,,,,,,,,,,,,,,,,ahsaer12,1,0x0378,C:\Users\admin\Desktop\FINALTasksLogfiles\,2021_Jun_11_1337,Flanker,2020.1.3,60.01434488168977,
SSS SSS,SSSSSSS,30,S,,,,,,,,,0,0,0,0,10,10,130,4,,,,,,,0.81515764880178,322.1491658124687,None,4,,,,,,,,,,,,,,234,230,237,321.7325227974179,321.83241777374315,321.8157123254259,322.01577699845075,4,1,0.3006959699396248,321.8157123254259,None,None,None,False,None,None,None,None,None,None,None,None,None,None,None,None,,,,,,,,,,,,,,,,,,,,,,,,,,,,,,ahsaer12,1,0x0378,C:\Users\admin\Desktop\FINALTasksLogfiles\,2021_Jun_11_1337,Flanker,2020.1.3,60.01434488168977,
HHH HHH,HHHSHHH,0,S,,,,,,,,,0,0,0,0,10,11,131,0,,,,,,,0.9923923647808919,323.33251908781676,None,4,,,,,,,,,,,,,,204,200,209,322.96583283492873,323.06585379766875,323.0491822956901,323.2491528288683,2,0,0.23416324549543788,323.0491822956901,None,None,None,False,None,None,None,None,None,None,None,None,None,None,None,None,,,,,,,,,,,,,,,,,,,,,,,,,,,,,,ahsaer12,1,0x0378,C:\Users\admin\Desktop\FINALTasksLogfiles\,2021_Jun_11_1337,Flanker,2020.1.3,60.01434488168977,
SSS SSS,SSSHSSS,0,H,,,,,,,,,0,0,0,0,11,0,132,6,,,,,,,0.9670476002535758,324.6657786957676,None,2,,,,,,,,,,,,,,204,200,209,324.3324942404961,324.432488606104,324.41581990382474,324.61588107722673,4,0,0.20452214228680532,324.41581990382474,None,None,None,False,None,None,None,None,None,None,None,None,None,None,None,None,,,,,,,,,,,,,,,,,,,,,,,,,,,,,,ahsaer12,1,0x0378,C:\Users\admin\Desktop\FINALTasksLogfiles\,2021_Jun_11_1337,Flanker,2020.1.3,60.01434488168977,
SSH HSS,SSHHHSS,10,H,,,,,,,,,0,0,0,0,11,1,133,7,,,,,,,0.8002361059058725,325.9490479451797,None,2,,,,,,,,,,,,,,214,210,217,325.6324321921893,325.73238491228767,325.715714460197,325.91573923752367,2,1,0.18852956708724378,325.715714460197,None,None,None,False,None,None,None,None,None,None,None,None,None,None,None,None,,,,,,,,,,,,,,,,,,,,,,,,,,,,,,ahsaer12,1,0x0378,C:\Users\admin\Desktop\FINALTasksLogfiles\,2021_Jun_11_1337,Flanker,2020.1.3,60.01434488168977,
HHS SHH,HHSSSHH,10,S,,,,,,,,,0,0,0,0,11,2,134,1,,,,,,,0.930734426880312,327.13238162264315,None,4,,,,,,,,,,,,,,214,210,217,326.7491131081515,326.8491540187406,326.8324912658172,327.03250974382536,4,1,0.2608268698222673,326.8324912658172,None,None,None,False,None,None,None,None,None,None,None,None,None,None,None,None,,,,,,,,,,,,,,,,,,,,,,,,,,,,,,ahsaer12,1,0x0378,C:\Users\admin\Desktop\FINALTasksLogfiles\,2021_Jun_11_1337,Flanker,2020.1.3,60.01434488168977,
HHH HHH,HHHSHHH,0,S,,,,,,,,,0,0,0,0,11,3,135,0,,,,,,,0.8021708801999737,328.48238342494915,None,4,,,,,,,,,,,,,,204,200,209,328.0658422489141,328.1658208662211,328.14915321382614,328.3491548936454,2,0,0.29312593636859674,328.14915321382614,None,None,None,False,None,None,None,None,None,None,None,None,None,None,None,None,,,,,,,,,,,,,,,,,,,,,,,,,,,,,,ahsaer12,1,0x0378,C:\Users\admin\Desktop\FINALTasksLogfiles\,2021_Jun_11_1337,Flanker,2020.1.3,60.01434488168977,
SSH HSS,SSHHHSS,10,H,,,,,,,,,0,0,0,0,11,4,136,7,,,,,,,0.8838159816380095,331.39910115694147,None,2,,,,,,,,,,,,,,214,210,0,329.2991365381258,329.3991078062245,329.38249124831964,329.582447083083,None,0,,329.38249124831964,None,330.39913265354335,None,False,None,None,None,None,None,None,None,None,None,None,None,None,,,,,,,,,,,,,,,,,,,,,,,,,,,,,,ahsaer12,1,0x0378,C:\Users\admin\Desktop\FINALTasksLogfiles\,2021_Jun_11_1337,Flanker,2020.1.3,60.01434488168977,
SSH HSS,SSHHHSS,10,H,,,,,,,,,0,0,0,0,11,5,137,7,,,,,,,0.8785774364496419,332.7323866620991,None,2,,,,,,,,,,,,,,214,210,217,332.28242829010924,332.3824377040946,332.3657770509453,332.56572763627446,2,1,0.3314188064814516,332.3657770509453,None,None,None,False,None,None,None,None,None,None,None,None,None,None,None,None,,,,,,,,,,,,,,,,,,,,,,,,,,,,,,ahsaer12,1,0x0378,C:\Users\admin\Desktop\FINALTasksLogfiles\,2021_Jun_11_1337,Flanker,2020.1.3,60.01434488168977,
SSH HSS,SSHHHSS,10,H,,,,,,,,,0,0,0,0,11,6,138,7,,,,,,,0.8535093009884639,334.08241891112084,None,2,,,,,,,,,,,,,,214,210,217,333.6158534302085,333.7157050112146,333.69904715776465,333.8991499766762,2,1,0.3411061117058125,333.69904715776465,None,None,None,False,None,None,None,None,None,None,None,None,None,None,None,None,,,,,,,,,,,,,,,,,,,,,,,,,,,,,,ahsaer12,1,0x0378,C:\Users\admin\Desktop\FINALTasksLogfiles\,2021_Jun_11_1337,Flanker,2020.1.3,60.01434488168977,
HHH HHH,HHHHHHH,30,H,,,,,,,,,0,0,0,0,11,7,139,9,,,,,,,0.7762440041936998,335.29916768476687,None,2,,,,,,,,,,,,,,234,230,237,334.9491767312902,335.0490339116932,335.03251709303186,335.2323770381372,2,1,0.22165909406794526,335.03251709303186,None,None,None,False,None,None,None,None,None,None,None,None,None,None,None,None,,,,,,,,,,,,,,,,,,,,,,,,,,,,,,ahsaer12,1,0x0378,C:\Users\admin\Desktop\FINALTasksLogfiles\,2021_Jun_11_1337,Flanker,2020.1.3,60.01434488168977,
SSS SSS,SSSSSSS,30,S,,,,,,,,,0,0,0,0,11,8,140,4,,,,,,,0.8125853677101986,336.4990601763602,None,4,,,,,,,,,,,,,,234,230,237,336.08240176297113,336.18237653069264,336.1657550733162,336.3657704016623,4,1,0.28544496476024506,336.1657550733162,None,None,None,False,None,None,None,None,None,None,None,None,None,None,None,None,,,,,,,,,,,,,,,,,,,,,,,,,,,,,,ahsaer12,1,0x0378,C:\Users\admin\Desktop\FINALTasksLogfiles\,2021_Jun_11_1337,Flanker,2020.1.3,60.01434488168977,
HHH HHH,HHHHHHH,30,H,,,,,,,,,0,0,0,0,11,9,141,11,,,,,,,0.8449040996105082,337.6157417922477,None,2,,,,,,,,,,,,,,234,230,237,337.31581958885727,337.4158251532572,337.3991526013924,None,2,1,0.1809920800042164,337.3991526013924,None,None,None,False,None,None,None,None,None,None,None,None,None,None,None,None,,,,,,,,,,,,,,,,,,,,,,,,,,,,,,ahsaer12,1,0x0378,C:\Users\admin\Desktop\FINALTasksLogfiles\,2021_Jun_11_1337,Flanker,2020.1.3,60.01434488168977,
HHH HHH,HHHHHHH,30,H,,,,,,,,,0,0,0,0,11,10,142,10,,,,,,,0.7855196243294927,338.7991017168806,None,2,,,,,,,,,,,,,,234,230,237,338.46584245889244,338.5657951789908,338.54911877754057,338.7490322668709,2,1,0.20504323608656705,338.54911877754057,None,None,None,False,None,None,None,None,None,None,None,None,None,None,None,None,,,,,,,,,,,,,,,,,,,,,,,,,,,,,,ahsaer12,1,0x0378,C:\Users\admin\Desktop\FINALTasksLogfiles\,2021_Jun_11_1337,Flanker,2020.1.3,60.01434488168977,
SSH HSS,SSHHHSS,10,H,,,,,,,,,0,0,0,0,11,11,143,7,,,,,,,0.8375897301129935,340.0658282504246,None,2,,,,,,,,,,,,,,214,210,217,339.59909583751505,339.6990443580671,339.6824194010678,339.8825152207337,2,1,0.3457623595295445,339.6824194010678,None,None,None,False,None,None,None,None,None,None,None,None,None,None,None,None,,,,,,,,,,,,,,,,,,,,,,,,,,,,,,ahsaer12,1,0x0378,C:\Users\admin\Desktop\FINALTasksLogfiles\,2021_Jun_11_1337,Flanker,2020.1.3,60.01434488168977,
HHH HHH,HHHSHHH,0,S,,,,,,,,,0,0,0,0,12,0,144,0,,,,,,,0.7996074514815448,341.21584447117493,None,4,,,,,,,,,,,,,,204,200,209,340.91583302740946,341.01580779513097,340.9991443422841,None,2,0,0.18201606956608885,340.9991443422841,None,None,None,False,None,None,None,None,None,None,None,None,None,None,None,None,,,,,,,,,,,,,,,,,,,,,,,,,,,,,,ahsaer12,1,0x0378,C:\Users\admin\Desktop\FINALTasksLogfiles\,2021_Jun_11_1337,Flanker,2020.1.3,60.01434488168977,
SSS SSS,SSSSSSS,30,S,,,,,,,,,0,0,0,0,12,1,145,4,,,,,,,0.7613639846293024,342.29916523503016,None,4,,,,,,,,,,,,,,234,230,237,342.0158074451683,342.11580915998275,342.09913205860903,None,4,1,0.1620377742274286,342.09913205860903,None,None,None,False,None,None,None,None,None,None,None,None,None,None,None,None,,,,,,,,,,,,,,,,,,,,,,,,,,,,,,ahsaer12,1,0x0378,C:\Users\admin\Desktop\FINALTasksLogfiles\,2021_Jun_11_1337,Flanker,2020.1.3,60.01434488168977,
SSS SSS,SSSSSSS,30,S,,,,,,,,,0,0,0,0,12,2,146,3,,,,,,,0.7629190907324791,343.51580272067804,None,4,,,,,,,,,,,,,,234,230,237,343.0657512587277,343.1657501738446,343.1490702727715,343.3490960999861,4,1,0.3181132414865715,343.1490702727715,None,None,None,False,None,None,None,None,None,None,None,None,None,None,None,None,,,,,,,,,,,,,,,,,,,,,,,,,,,,,,ahsaer12,1,0x0378,C:\Users\admin\Desktop\FINALTasksLogfiles\,2021_Jun_11_1337,Flanker,2020.1.3,60.01434488168977,
HHH HHH,HHHHHHH,30,H,,,,,,,,,0,0,0,0,12,3,147,10,,,,,,,0.9034084208027312,344.64902530262225,None,2,,,,,,,,,,,,,,234,230,237,344.28250108225984,344.38250174718814,344.36582989524686,344.5657976287257,2,1,0.24930961195968848,344.36582989524686,None,None,None,False,None,None,None,None,None,None,None,None,None,None,None,None,,,,,,,,,,,,,,,,,,,,,,,,,,,,,,ahsaer12,1,0x0378,C:\Users\admin\Desktop\FINALTasksLogfiles\,2021_Jun_11_1337,Flanker,2020.1.3,60.01434488168977,
HHH HHH,HHHSHHH,0,S,,,,,,,,,0,0,0,0,12,4,148,0,,,,,,,0.8833382016482171,345.949019598238,None,4,,,,,,,,,,,,,,204,200,209,345.5657829303109,345.6658329399179,345.6491845354485,345.84902838229027,2,0,0.25487016225270054,345.6491845354485,None,None,None,False,None,None,None,None,None,None,None,None,None,None,None,None,,,,,,,,,,,,,,,,,,,,,,,,,,,,,,ahsaer12,1,0x0378,C:\Users\admin\Desktop\FINALTasksLogfiles\,2021_Jun_11_1337,Flanker,2020.1.3,60.01434488168977,
SSS SSS,SSSSSSS,30,S,,,,,,,,,0,0,0,0,12,5,149,4,,,,,,,0.7672204819818715,347.06574775910485,None,4,,,,,,,,,,,,,,234,230,237,346.83250596423204,346.93249613029366,346.91583127759804,None,4,1,0.10728757903416408,346.91583127759804,None,None,None,False,None,None,None,None,None,None,None,None,None,None,None,None,,,,,,,,,,,,,,,,,,,,,,,,,,,,,,ahsaer12,1,0x0378,C:\Users\admin\Desktop\FINALTasksLogfiles\,2021_Jun_11_1337,Flanker,2020.1.3,60.01434488168977,
SSS SSS,SSSHSSS,0,H,,,,,,,,,0,0,0,0,12,6,150,6,,,,,,,0.9415275612620401,348.1491423649968,None,2,,,,,,,,,,,,,,204,200,209,347.8324205734425,347.9324156389739,347.9157469366928,348.1157895620963,4,0,0.19132226589317725,347.9157469366928,None,None,None,False,None,None,None,None,None,None,None,None,None,None,None,None,,,,,,,,,,,,,,,,,,,,,,,,,,,,,,ahsaer12,1,0x0378,C:\Users\admin\Desktop\FINALTasksLogfiles\,2021_Jun_11_1337,Flanker,2020.1.3,60.01434488168977,
HSS SSH,HSSSSSH,20,S,,,,,,,,,0,0,0,0,12,7,151,2,,,,,,,0.864467825291985,349.46576896681836,None,4,,,,,,,,,,,,,,224,220,227,349.09907886434485,349.1990217855018,349.1823520333346,349.38236421202055,4,1,0.24174237808438193,349.1823520333346,None,None,None,False,None,None,None,None,None,None,None,None,None,None,None,None,,,,,,,,,,,,,,,,,,,,,,,,,,,,,,ahsaer12,1,0x0378,C:\Users\admin\Desktop\FINALTasksLogfiles\,2021_Jun_11_1337,Flanker,2020.1.3,60.01434488168977,
SSS SSS,SSSSSSS,30,S,,,,,,,,,0,0,0,0,12,8,152,5,,,,,,,0.802335905610265,350.6656677577339,None,4,,,,,,,,,,,,,,234,230,237,350.3323777030655,350.43233112308917,350.4156690700911,350.615753690965,4,1,0.20640493922655878,350.4156690700911,None,None,None,False,None,None,None,None,None,None,None,None,None,None,None,None,,,,,,,,,,,,,,,,,,,,,,,,,,,,,,ahsaer12,1,0x0378,C:\Users\admin\Desktop\FINALTasksLogfiles\,2021_Jun_11_1337,Flanker,2020.1.3,60.01434488168977,
HHH HHH,HHHHHHH,30,H,,,,,,,,,0,0,0,0,12,9,153,11,,,,,,,0.7758937967201224,351.8157357728978,None,2,,,,,,,,,,,,,,234,230,237,351.4823183319695,351.58236624180245,351.56569648963523,351.76570446877304,2,1,0.20837767646662542,351.56569648963523,None,None,None,False,None,None,None,None,None,None,None,None,None,None,None,None,,,,,,,,,,,,,,,,,,,,,,,,,,,,,,ahsaer12,1,0x0378,C:\Users\admin\Desktop\FINALTasksLogfiles\,2021_Jun_11_1337,Flanker,2020.1.3,60.01434488168977,
SSS SSS,SSSHSSS,0,H,,,,,,,,,0,0,0,0,12,10,154,6,,,,,,,0.7694451842511323,352.93242228825693,None,2,,,,,,,,,,,,,,204,200,209,352.5990737898919,352.69900761202916,352.68237670567396,352.8824319297164,4,0,0.21068812728663033,352.68237670567396,None,None,None,False,None,None,None,None,None,None,None,None,None,None,None,None,,,,,,,,,,,,,,,,,,,,,,,,,,,,,,ahsaer12,1,0x0378,C:\Users\admin\Desktop\FINALTasksLogfiles\,2021_Jun_11_1337,Flanker,2020.1.3,60.01434488168977,
HHS SHH,HHSSSHH,10,S,,,,,,,,,0,0,0,0,12,11,155,1,,,,,,,0.8123057725480961,354.0157909969421,None,4,,,,,,,,,,,,,,214,210,217,353.71569171265037,353.81573262323764,353.79908351884296,None,4,1,0.1789643986903684,353.79908351884296,None,None,None,False,None,None,None,None,None,None,None,None,None,None,None,None,,,,,,,,,,,,,,,,,,,,,,,,,,,,,,ahsaer12,1,0x0378,C:\Users\admin\Desktop\FINALTasksLogfiles\,2021_Jun_11_1337,Flanker,2020.1.3,60.01434488168977,
SHH HHS,SHHHHHS,20,H,,,,,,,,,0,0,0,0,13,0,156,8,,,,,,,0.78210017203891,355.3156771542199,None,2,,,,,,,,,,,,,,224,220,227,354.83240482513975,354.9324075898421,354.915732238278,355.1158175590772,2,1,0.3562860745478247,354.915732238278,None,None,None,False,None,None,None,None,None,None,None,None,None,None,None,None,,,,,,,,,,,,,,,,,,,,,,,,,,,,,,ahsaer12,1,0x0378,C:\Users\admin\Desktop\FINALTasksLogfiles\,2021_Jun_11_1337,Flanker,2020.1.3,60.01434488168977,
SSS SSS,SSSSSSS,30,S,,,,,,,,,0,0,0,0,13,1,157,4,,,,,,,0.889042427763896,356.51580307063887,None,4,,,,,,,,,,,,,,234,230,237,356.09913800796676,356.199154421196,356.18243252465254,356.38241180688783,4,1,0.2975225121972471,356.18243252465254,None,None,None,False,None,None,None,None,None,None,None,None,None,None,None,None,,,,,,,,,,,,,,,,,,,,,,,,,,,,,,ahsaer12,1,0x0378,C:\Users\admin\Desktop\FINALTasksLogfiles\,2021_Jun_11_1337,Flanker,2020.1.3,60.01434488168977,
SSS SSS,SSSSSSS,30,S,,,,,,,,,0,0,0,0,13,2,158,3,,,,,,,0.9978541875985651,357.7656824211517,None,4,,,,,,,,,,,,,,234,230,237,357.4156764192994,357.5156819836993,357.4990164310784,357.69904610787853,4,1,0.21796839210946928,357.4990164310784,None,None,None,False,None,None,None,None,None,None,None,None,None,None,None,None,,,,,,,,,,,,,,,,,,,,,,,,,,,,,,ahsaer12,1,0x0378,C:\Users\admin\Desktop\FINALTasksLogfiles\,2021_Jun_11_1337,Flanker,2020.1.3,60.01434488168977,
SSH HSS,SSHHHSS,10,H,,,,,,,,,0,0,0,0,13,3,159,7,,,,,,,0.8061239870985626,359.09915830577665,None,2,,,,,,,,,,,,,,214,210,217,358.7657699117153,358.8658101223791,358.8491452696835,359.0491560485207,2,1,0.20581385297555244,358.8491452696835,None,None,None,False,None,None,None,None,None,None,None,None,None,None,None,None,,,,,,,,,,,,,,,,,,,,,,,,,,,,,,ahsaer12,1,0x0378,C:\Users\admin\Desktop\FINALTasksLogfiles\,2021_Jun_11_1337,Flanker,2020.1.3,60.01434488168977,
HHH HHH,HHHSHHH,0,S,,,,,,,,,0,0,0,0,13,4,160,0,,,,,,,0.8278471255946764,360.3323689540084,None,4,,,,,,,,,,,,,,204,200,209,359.91577073412736,360.01578189792235,359.99912509435853,360.1990035874642,2,0,0.2858376224139647,359.99912509435853,None,None,None,False,None,None,None,None,None,None,None,None,None,None,None,None,,,,,,,,,,,,,,,,,,,,,,,,,,,,,,ahsaer12,1,0x0378,C:\Users\admin\Desktop\FINALTasksLogfiles\,2021_Jun_11_1337,Flanker,2020.1.3,60.01434488168977,
HHH HHH,HHHSHHH,0,S,,,,,,,,,0,0,0,0,13,5,161,0,,,,,,,0.8919517614240992,361.38235056349185,None,4,,,,,,,,,,,,,,204,200,207,361.16567808161926,361.26579913356363,361.24910523400104,None,4,1,0.08680743781769706,361.24910523400104,None,None,None,False,None,None,None,None,None,None,None,None,None,None,None,None,,,,,,,,,,,,,,,,,,,,,,,,,,,,,,ahsaer12,1,0x0378,C:\Users\admin\Desktop\FINALTasksLogfiles\,2021_Jun_11_1337,Flanker,2020.1.3,60.01434488168977,
SSS SSS,SSSSSSS,30,S,,,,,,,,,0,0,0,0,13,6,162,5,,,,,,,0.7761933191936945,362.4824716154362,None,4,,,,,,,,,,,,,,234,230,237,362.28248918354257,362.3824748000934,362.3657962988691,None,4,1,0.08215888916492986,362.3657962988691,None,None,None,False,None,None,None,None,None,None,None,None,None,None,None,None,,,,,,,,,,,,,,,,,,,,,,,,,,,,,,ahsaer12,1,0x0378,C:\Users\admin\Desktop\FINALTasksLogfiles\,2021_Jun_11_1337,Flanker,2020.1.3,60.01434488168977,
SSS SSS,SSSHSSS,0,H,,,,,,,,,0,0,0,0,13,7,163,6,,,,,,,0.8220344710723438,363.58243518436575,None,2,,,,,,,,,,,,,,204,200,209,363.2657308909238,363.36577810083327,363.3491219971929,363.54901483875074,4,0,0.1868021533882711,363.3491219971929,None,None,None,False,None,None,None,None,None,None,None,None,None,None,None,None,,,,,,,,,,,,,,,,,,,,,,,,,,,,,,ahsaer12,1,0x0378,C:\Users\admin\Desktop\FINALTasksLogfiles\,2021_Jun_11_1337,Flanker,2020.1.3,60.01434488168977,
HHH HHH,HHHHHHH,30,H,,,,,,,,,0,0,0,0,13,8,164,9,,,,,,,0.9855057012998643,366.5158188189416,None,2,,,,,,,,,,,,,,234,230,0,364.41567116986516,364.5157992210552,364.4990640259457,364.6990086619171,None,0,,364.4990640259457,None,365.5158065702617,None,False,None,None,None,None,None,None,None,None,None,None,None,None,,,,,,,,,,,,,,,,,,,,,,,,,,,,,,ahsaer12,1,0x0378,C:\Users\admin\Desktop\FINALTasksLogfiles\,2021_Jun_11_1337,Flanker,2020.1.3,60.01434488168977,
SSS SSS,SSSSSSS,30,S,,,,,,,,,0,0,0,0,13,9,165,3,,,,,,,0.8704439493513811,367.8657964738504,None,4,,,,,,,,,,,,,,234,230,237,367.51570333139716,367.61571834477763,367.5990587415163,367.799143712351,4,1,0.2278170299341582,367.5990587415163,None,None,None,False,None,None,None,None,None,None,None,None,None,None,None,None,,,,,,,,,,,,,,,,,,,,,,,,,,,,,,ahsaer12,1,0x0378,C:\Users\admin\Desktop\FINALTasksLogfiles\,2021_Jun_11_1337,Flanker,2020.1.3,60.01434488168977,
SSS SSS,SSSHSSS,0,H,,,,,,,,,0,0,0,0,13,10,166,6,,,,,,,0.9055657475398777,369.18247871967105,None,2,,,,,,,,,,,,,,204,200,207,368.74900252007865,368.8490997745903,368.8324303723857,369.0324313522797,2,1,0.3084745810156164,368.8324303723857,None,None,None,False,None,None,None,None,None,None,None,None,None,None,None,None,,,,,,,,,,,,,,,,,,,,,,,,,,,,,,ahsaer12,1,0x0378,C:\Users\admin\Desktop\FINALTasksLogfiles\,2021_Jun_11_1337,Flanker,2020.1.3,60.01434488168977,
SSS SSS,SSSSSSS,30,S,,,,,,,,,0,0,0,0,13,11,167,4,,,,,,,0.8357118260883557,370.4990164310784,None,4,,,,,,,,,,,,,,234,230,237,370.0990648658553,370.19894444384227,370.1822767914491,370.38239745843566,4,1,0.2686758233121509,370.1822767914491,None,None,None,False,None,None,None,None,None,None,None,None,None,None,None,None,,,,,,,,,,,,,,,,,,,,,,,,,,,,,,ahsaer12,1,0x0378,C:\Users\admin\Desktop\FINALTasksLogfiles\,2021_Jun_11_1337,Flanker,2020.1.3,60.01434488168977,
HHS SHH,HHSSSHH,10,S,,,,,,,,,0,0,0,0,14,0,168,1,,,,,,,0.8473081221636293,371.6989764653881,None,4,,,,,,,,,,,,,,214,210,217,371.349070552742,371.4490033249913,371.4323118751654,371.6323821475853,4,1,0.22353664157162711,371.4323118751654,None,None,None,False,None,None,None,None,None,None,None,None,None,None,None,None,,,,,,,,,,,,,,,,,,,,,,,,,,,,,,ahsaer12,1,0x0378,C:\Users\admin\Desktop\FINALTasksLogfiles\,2021_Jun_11_1337,Flanker,2020.1.3,60.01434488168977,
HHH HHH,HHHHHHH,30,H,,,,,,,,,0,0,0,0,14,1,169,9,,,,,,,0.9951922728755944,372.8990803341876,None,2,,,,,,,,,,,,,,234,230,237,372.54901903829705,372.64906029884696,372.63239229649116,372.8323915265755,2,1,0.22842211467468587,372.63239229649116,None,None,None,False,None,None,None,None,None,None,None,None,None,None,None,None,,,,,,,,,,,,,,,,,,,,,,,,,,,,,,ahsaer12,1,0x0378,C:\Users\admin\Desktop\FINALTasksLogfiles\,2021_Jun_11_1337,Flanker,2020.1.3,60.01434488168977,
SSS SSS,SSSSSSS,30,S,,,,,,,,,0,0,0,0,14,2,170,5,,,,,,,0.8255773952277071,374.2324690782116,None,4,,,,,,,,,,,,,,234,230,237,373.8991321286012,373.99913069375543,373.98244974279623,374.18235798269234,4,1,0.21030631846406322,373.98244974279623,None,None,None,False,None,None,None,None,None,None,None,None,None,None,None,None,,,,,,,,,,,,,,,,,,,,,,,,,,,,,,ahsaer12,1,0x0378,C:\Users\admin\Desktop\FINALTasksLogfiles\,2021_Jun_11_1337,Flanker,2020.1.3,60.01434488168977,
HHH HHH,HHHSHHH,0,S,,,,,,,,,0,0,0,0,14,3,171,0,,,,,,,0.9026350635486367,375.39912460441155,None,4,,,,,,,,,,,,,,204,200,209,375.0657796056712,375.16580021844675,375.14912801654464,375.34909784979754,2,0,0.20771204825723544,375.14912801654464,None,None,None,False,None,None,None,None,None,None,None,None,None,None,None,None,,,,,,,,,,,,,,,,,,,,,,,,,,,,,,ahsaer12,1,0x0378,C:\Users\admin\Desktop\FINALTasksLogfiles\,2021_Jun_11_1337,Flanker,2020.1.3,60.01434488168977,
SSS SSS,SSSSSSS,30,S,,,,,,,,,0,0,0,0,14,4,172,3,,,,,,,0.9900691634126567,376.4823183319695,None,4,,,,,,,,,,,,,,234,230,237,376.3158094399532,376.41580310563586,376.39913440335476,None,4,1,0.039655973103435826,376.39913440335476,None,None,None,False,None,None,None,None,None,None,None,None,None,None,None,None,,,,,,,,,,,,,,,,,,,,,,,,,,,,,,ahsaer12,1,0x0378,C:\Users\admin\Desktop\FINALTasksLogfiles\,2021_Jun_11_1337,Flanker,2020.1.3,60.01434488168977,
HHH HHH,HHHHHHH,30,H,,,,,,,,,0,0,0,0,14,5,173,9,,,,,,,0.976807365290923,377.68243654921935,None,2,,,,,,,,,,,,,,234,230,239,377.48239182404177,377.5823973884417,377.56572763627446,None,4,0,0.0681103542992787,377.56572763627446,None,None,None,False,None,None,None,None,None,None,None,None,None,None,None,None,,,,,,,,,,,,,,,,,,,,,,,,,,,,,,ahsaer12,1,0x0378,C:\Users\admin\Desktop\FINALTasksLogfiles\,2021_Jun_11_1337,Flanker,2020.1.3,60.01434488168977,
HHS SHH,HHSSSHH,10,S,,,,,,,,,0,0,0,0,14,6,174,1,,,,,,,0.9614111141026876,378.8490773770063,None,4,,,,,,,,,,,,,,214,210,219,378.6657720464864,378.7656652730002,378.74912150724595,None,2,0,0.05072772901439748,378.74912150724595,None,None,None,False,None,None,None,None,None,None,None,None,None,None,None,None,,,,,,,,,,,,,,,,,,,,,,,,,,,,,,ahsaer12,1,0x0378,C:\Users\admin\Desktop\FINALTasksLogfiles\,2021_Jun_11_1337,Flanker,2020.1.3,60.01434488168977,
SSS SSS,SSSHSSS,0,H,,,,,,,,,0,0,0,0,14,7,175,6,,,,,,,0.8862092792615514,381.9157896320885,None,2,,,,,,,,,,,,,,204,200,0,379.81575852044443,379.91571893971377,379.89903553901786,380.09904421808096,None,0,,379.89903553901786,None,380.91571404024216,None,False,None,None,None,None,None,None,None,None,None,None,None,None,,,,,,,,,,,,,,,,,,,,,,,,,,,,,,ahsaer12,1,0x0378,C:\Users\admin\Desktop\FINALTasksLogfiles\,2021_Jun_11_1337,Flanker,2020.1.3,60.01434488168977,
SSS SSS,SSSSSSS,30,S,,,,,,,,,0,0,0,0,14,8,176,5,,,,,,,0.7824822772682045,383.1656595336208,None,4,,,,,,,,,,,,,,234,230,237,382.81578861719754,382.91580363057983,382.8991265292043,383.099125409326,4,1,0.2235929854959977,382.8991265292043,None,None,None,False,None,None,None,None,None,None,None,None,None,None,None,None,,,,,,,,,,,,,,,,,,,,,,,,,,,,,,ahsaer12,1,0x0378,C:\Users\admin\Desktop\FINALTasksLogfiles\,2021_Jun_11_1337,Flanker,2020.1.3,60.01434488168977,
SSH HSS,SSHHHSS,10,H,,,,,,,,,0,0,0,0,14,9,177,7,,,,,,,0.9253110950631241,384.3323388572553,None,2,,,,,,,,,,,,,,214,210,219,383.9490398960479,384.04904406059904,384.032377458092,384.23231019534614,4,0,0.2533569254555914,384.032377458092,None,None,None,False,None,None,None,None,None,None,None,None,None,None,None,None,,,,,,,,,,,,,,,,,,,,,,,,,,,,,,ahsaer12,1,0x0378,C:\Users\admin\Desktop\FINALTasksLogfiles\,2021_Jun_11_1337,Flanker,2020.1.3,60.01434488168977,
SSS SSS,SSSSSSS,30,S,,,,,,,,,0,0,0,0,14,10,178,3,,,,,,,0.8764817966636855,385.6324321921893,None,4,,,,,,,,,,,,,,234,230,237,385.26575468835836,385.3657630524558,385.349052704667,385.5490155386742,4,1,0.24566720479197102,385.349052704667,None,None,None,False,None,None,None,None,None,None,None,None,None,None,None,None,,,,,,,,,,,,,,,,,,,,,,,,,,,,,,ahsaer12,1,0x0378,C:\Users\admin\Desktop\FINALTasksLogfiles\,2021_Jun_11_1337,Flanker,2020.1.3,60.01434488168977,
HSS SSH,HSSSSSH,20,S,,,,,,,,,0,0,0,0,14,11,179,2,,,,,,,0.9009549819308763,386.9991320936042,None,4,,,,,,,,,,,,,,224,220,227,386.5156795339626,386.6157099456832,386.59903669389314,386.7990474727303,4,1,0.35462935322357225,386.59903669389314,None,None,None,False,None,None,None,None,None,None,None,None,None,None,None,None,,,,,,,,,,,,,,,,,,,,,,,,,,,,,,ahsaer12,1,0x0378,C:\Users\admin\Desktop\FINALTasksLogfiles\,2021_Jun_11_1337,Flanker,2020.1.3,60.01434488168977,
SSH HSS,SSHHHSS,10,H,,,,,,,,,0,0,0,0,15,0,180,7,,,,,,,0.7696244870840442,388.2823670467151,None,2,,,,,,,,,,,,,,214,210,217,387.915649647186,388.01578574750783,387.99912124477487,388.1989801399923,2,1,0.24451267930635368,387.99912124477487,None,None,None,False,None,None,None,None,None,None,None,None,None,None,None,None,,,,,,,,,,,,,,,,,,,,,,,,,,,,,,ahsaer12,1,0x0378,C:\Users\admin\Desktop\FINALTasksLogfiles\,2021_Jun_11_1337,Flanker,2020.1.3,60.01434488168977,
SSS SSS,SSSSSSS,30,S,,,,,,,,,0,0,0,0,15,1,181,3,,,,,,,0.7648916895958037,389.4657143727054,None,4,,,,,,,,,,,,,,234,230,237,389.0657012141255,389.1656465850174,389.14903352673537,389.3490037099509,4,1,0.2837175510630914,389.14903352673537,None,None,None,False,None,None,None,None,None,None,None,None,None,None,None,None,,,,,,,,,,,,,,,,,,,,,,,,,,,,,,ahsaer12,1,0x0378,C:\Users\admin\Desktop\FINALTasksLogfiles\,2021_Jun_11_1337,Flanker,2020.1.3,60.01434488168977,
SSS SSS,SSSHSSS,0,H,,,,,,,,,0,0,0,0,15,2,182,6,,,,,,,0.9442455106946588,390.6157414422869,None,2,,,,,,,,,,,,,,204,200,209,390.2323836874202,390.3323864521226,390.31572229935045,390.51565223690704,4,0,0.2511385147117835,390.31572229935045,None,None,None,False,None,None,None,None,None,None,None,None,None,None,None,None,,,,,,,,,,,,,,,,,,,,,,,,,,,,,,ahsaer12,1,0x0378,C:\Users\admin\Desktop\FINALTasksLogfiles\,2021_Jun_11_1337,Flanker,2020.1.3,60.01434488168977,
SSH HSS,SSHHHSS,10,H,,,,,,,,,0,0,0,0,15,3,183,7,,,,,,,0.7987688167337148,391.78233537513006,None,2,,,,,,,,,,,,,,214,210,217,391.5656065493349,391.6657115030157,391.6490442005834,None,2,1,0.08470311476958159,391.6490442005834,None,None,None,False,None,None,None,None,None,None,None,None,None,None,None,None,,,,,,,,,,,,,,,,,,,,,,,,,,,,,,ahsaer12,1,0x0378,C:\Users\admin\Desktop\FINALTasksLogfiles\,2021_Jun_11_1337,Flanker,2020.1.3,60.01434488168977,
HHH HHH,HHHHHHH,30,H,,,,,,,,,0,0,0,0,15,4,184,9,,,,,,,0.8595247200504879,392.9490227478982,None,2,,,,,,,,,,,,,,234,230,237,392.5823126975756,392.68228781525977,392.66561876301785,392.8655962954399,2,1,0.237976784204875,392.66561876301785,None,None,None,False,None,None,None,None,None,None,None,None,None,None,None,None,,,,,,,,,,,,,,,,,,,,,,,,,,,,,,ahsaer12,1,0x0378,C:\Users\admin\Desktop\FINALTasksLogfiles\,2021_Jun_11_1337,Flanker,2020.1.3,60.01434488168977,
SSS SSS,SSSHSSS,0,H,,,,,,,,,0,0,0,0,15,5,185,6,,,,,,,0.7709656671458142,394.1823075881275,None,2,,,,,,,,,,,,,,204,200,209,393.8157760185568,393.91567099488384,393.8989704460382,394.09908446374175,4,0,0.24565040660490922,393.8989704460382,None,None,None,False,None,None,None,None,None,None,None,None,None,None,None,None,,,,,,,,,,,,,,,,,,,,,,,,,,,,,,ahsaer12,1,0x0378,C:\Users\admin\Desktop\FINALTasksLogfiles\,2021_Jun_11_1337,Flanker,2020.1.3,60.01434488168977,
HHH HHH,HHHHHHH,30,H,,,,,,,,,0,0,0,0,15,6,186,10,,,,,,,0.9602614117330438,395.46566047851775,None,2,,,,,,,,,,,,,,234,230,237,394.96569529976296,395.0656938649172,395.0490216630151,395.24902684245535,2,1,0.3745142086427222,395.0490216630151,None,None,None,False,None,None,None,None,None,None,None,None,None,None,None,None,,,,,,,,,,,,,,,,,,,,,,,,,,,,,,ahsaer12,1,0x0378,C:\Users\admin\Desktop\FINALTasksLogfiles\,2021_Jun_11_1337,Flanker,2020.1.3,60.01434488168977,
HHH HHH,HHHHHHH,30,H,,,,,,,,,0,0,0,0,15,7,187,11,,,,,,,0.7621101526035094,396.74903156694563,None,2,,,,,,,,,,,,,,234,230,237,396.43230417599625,396.53240283035484,396.5156998317743,396.7157802531001,2,1,0.1848735113908333,396.5156998317743,None,None,None,False,None,None,None,None,None,None,None,None,None,None,None,None,,,,,,,,,,,,,,,,,,,,,,,,,,,,,,ahsaer12,1,0x0378,C:\Users\admin\Desktop\FINALTasksLogfiles\,2021_Jun_11_1337,Flanker,2020.1.3,60.01434488168977,
HSS SSH,HSSSSSH,20,S,,,,,,,,,0,0,0,0,15,8,188,2,,,,,,,0.8895900616014382,397.9156310991875,None,4,,,,,,,,,,,,,,224,220,227,397.5156690350959,397.615688947948,397.5990307445354,397.79907127016486,4,1,0.275570079767931,397.5990307445354,None,None,None,False,None,None,None,None,None,None,None,None,None,None,None,None,,,,,,,,,,,,,,,,,,,,,,,,,,,,,,ahsaer12,1,0x0378,C:\Users\admin\Desktop\FINALTasksLogfiles\,2021_Jun_11_1337,Flanker,2020.1.3,60.01434488168977,
HSS SSH,HSSSSSH,20,S,,,,,,,,,0,0,0,0,15,9,189,2,,,,,,,0.8512801993696403,399.3656213177419,None,4,,,,,,,,,,,,,,224,220,227,398.81564058316326,398.9156380984314,398.89902084060304,399.0991012619288,4,1,0.4235351717325102,398.89902084060304,None,None,None,False,None,None,None,None,None,None,None,None,None,None,None,None,,,,,,,,,,,,,,,,,,,,,,,,,,,,,,ahsaer12,1,0x0378,C:\Users\admin\Desktop\FINALTasksLogfiles\,2021_Jun_11_1337,Flanker,2020.1.3,60.01434488168977,
HHH HHH,HHHHHHH,30,H,,,,,,,,,0,0,0,0,15,10,190,10,,,,,,,0.8375412182342094,400.4823298807223,None,2,,,,,,,,,,,,,,234,230,237,400.232302496177,400.3324098995927,400.3157509962566,None,2,1,0.13282537478335144,400.3157509962566,None,None,None,False,None,None,None,None,None,None,None,None,None,None,None,None,,,,,,,,,,,,,,,,,,,,,,,,,,,,,,ahsaer12,1,0x0378,C:\Users\admin\Desktop\FINALTasksLogfiles\,2021_Jun_11_1337,Flanker,2020.1.3,60.01434488168977,
HSS SSH,HSSSSSH,20,S,,,,,,,,,0,0,0,0,15,11,191,2,,,,,,,0.9555251783071446,407.0824353593471,None,4,,,,,,,,,,,,,,224,220,227,401.33241129944145,401.4322975267132,401.4156368735639,401.6156959471937,4,1,0.2938997029159509,401.4156368735639,None,None,None,False,None,None,None,None,None,401.74907531222925,None,space,403.73229812164755,None,406.98238604966537,None,3.2141971988312434,,,,,,,,,,,,,,,,,,,,,,,,,,,,,ahsaer12,1,0x0378,C:\Users\admin\Desktop\FINALTasksLogfiles\,2021_Jun_11_1337,Flanker,2020.1.3,60.01434488168977,
HHH HHH,HHHHHHH,30,H,,,,,,,,,0,0,0,0,16,0,192,9,,,,,,,0.843321764744179,408.4656181330847,None,2,,,,,,,,,,,,,,234,230,239,408.0489887665626,408.14908217148877,408.13235817517125,408.33241864864976,4,0,0.2971172559027764,408.13235817517125,None,None,None,False,None,None,None,None,None,None,None,None,None,None,None,None,,,,,,,,,,,,,,,,,,,,,,,,,,,,,,ahsaer12,1,0x0378,C:\Users\admin\Desktop\FINALTasksLogfiles\,2021_Jun_11_1337,Flanker,2020.1.3,60.01434488168977,
SSS SSS,SSSSSSS,30,S,,,,,,,,,0,0,0,0,16,1,193,4,,,,,,,0.7831188300121221,409.715653216801,None,4,,,,,,,,,,,,,,234,230,237,409.31572544901064,409.4157296135618,409.3990714101492,409.59908288891165,4,1,0.27930487696903583,409.3990714101492,None,None,None,False,None,None,None,None,None,None,None,None,None,None,None,None,,,,,,,,,,,,,,,,,,,,,,,,,,,,,,ahsaer12,1,0x0378,C:\Users\admin\Desktop\FINALTasksLogfiles\,2021_Jun_11_1337,Flanker,2020.1.3,60.01434488168977,
HHS SHH,HHSSSHH,10,S,,,,,,,,,0,0,0,0,16,2,194,1,,,,,,,0.7642237489217977,410.8823776855679,None,4,,,,,,,,,,,,,,214,210,219,410.4989716359105,410.59902374528974,410.58234454414196,410.7823448241106,2,0,0.2661329975562694,410.58234454414196,None,None,None,False,None,None,None,None,None,None,None,None,None,None,None,None,,,,,,,,,,,,,,,,,,,,,,,,,,,,,,ahsaer12,1,0x0378,C:\Users\admin\Desktop\FINALTasksLogfiles\,2021_Jun_11_1337,Flanker,2020.1.3,60.01434488168977,
HHH HHH,HHHHHHH,30,H,,,,,,,,,0,0,0,0,16,3,195,11,,,,,,,0.9085849465980536,411.8323470813684,None,2,,,,,,,,,,,,,,234,230,239,411.6489682587744,411.74897732279715,411.7323072206673,None,4,0,0.06114680531572958,411.7323072206673,None,None,None,False,None,None,None,None,None,None,None,None,None,None,None,None,,,,,,,,,,,,,,,,,,,,,,,,,,,,,,ahsaer12,1,0x0378,C:\Users\admin\Desktop\FINALTasksLogfiles\,2021_Jun_11_1337,Flanker,2020.1.3,60.01434488168977,
SSS SSS,SSSSSSS,30,S,,,,,,,,,0,0,0,0,16,4,196,4,,,,,,,0.84550314776291,412.9490073495581,None,4,,,,,,,,,,,,,,234,230,237,412.74900741955025,412.8490133339128,412.83229948650114,None,4,1,0.08215328976802994,412.83229948650114,None,None,None,False,None,None,None,None,None,None,None,None,None,None,None,None,,,,,,,,,,,,,,,,,,,,,,,,,,,,,,ahsaer12,1,0x0378,C:\Users\admin\Desktop\FINALTasksLogfiles\,2021_Jun_11_1337,Flanker,2020.1.3,60.01434488168977,
HHH HHH,HHHSHHH,0,S,,,,,,,,,0,0,0,0,16,5,197,0,,,,,,,0.7785748823633877,413.94901749846395,None,4,,,,,,,,,,,,,,204,200,209,413.7991055664661,413.89908418377127,413.882418981113,None,2,0,0.028983874088226003,413.882418981113,None,None,None,False,None,None,None,None,None,None,None,None,None,None,None,None,,,,,,,,,,,,,,,,,,,,,,,,,,,,,,ahsaer12,1,0x0378,C:\Users\admin\Desktop\FINALTasksLogfiles\,2021_Jun_11_1337,Flanker,2020.1.3,60.01434488168977,
SSS SSS,SSSSSSS,30,S,,,,,,,,,0,0,0,0,16,6,198,3,,,,,,,0.8394817689849026,414.91572208937396,None,4,,,,,,,,,,,,,,234,230,237,414.7323163196852,414.8324139241595,414.8157511712361,None,4,1,0.060638310158537934,414.8157511712361,None,None,None,False,None,None,None,None,None,None,None,None,None,None,None,None,,,,,,,,,,,,,,,,,,,,,,,,,,,,,,ahsaer12,1,0x0378,C:\Users\admin\Desktop\FINALTasksLogfiles\,2021_Jun_11_1337,Flanker,2020.1.3,60.01434488168977,
SSS SSS,SSSSSSS,30,S,,,,,,,,,0,0,0,0,16,7,199,4,,,,,,,0.9107494522048256,415.9990851986622,None,4,,,,,,,,,,,,,,234,230,237,415.7656845209258,415.8657152826072,415.84905007994894,None,4,1,0.10128537637319823,415.84905007994894,None,None,None,False,None,None,None,None,None,None,None,None,None,None,None,None,,,,,,,,,,,,,,,,,,,,,,,,,,,,,,ahsaer12,1,0x0378,C:\Users\admin\Desktop\FINALTasksLogfiles\,2021_Jun_11_1337,Flanker,2020.1.3,60.01434488168977,
SHH HHS,SHHHHHS,20,H,,,,,,,,,0,0,0,0,16,8,200,8,,,,,,,0.9078039277786321,417.165758572939,None,2,,,,,,,,,,,,,,224,220,229,416.915717539865,417.0157262539251,416.9990495025122,None,4,0,0.12736141407003743,416.9990495025122,None,None,None,False,None,None,None,None,None,None,None,None,None,None,None,None,,,,,,,,,,,,,,,,,,,,,,,,,,,,,,ahsaer12,1,0x0378,C:\Users\admin\Desktop\FINALTasksLogfiles\,2021_Jun_11_1337,Flanker,2020.1.3,60.01434488168977,
