"Onset","Duration","Participant","date_time","Target_Mapping","Order_Instruction","Running","Trial","Event","Type","InstructionCondition","Accuracy","RT","Post_Trial","TaskPerf"
63.7001859638831,0.5,"AM04EN20b","2022_Feb_16_1021","circle","relaxed_first","Practice",0,"Fixation","Go","relaxed",0,NA,NA,94.0476190476191
64.2006292142696,0.1,"AM04EN20b","2022_Feb_16_1021","circle","relaxed_first","Practice",0,"Target","Go","relaxed",0,NA,NA,94.0476190476191
64.3006777836599,1.5,"AM04EN20b","2022_Feb_16_1021","circle","relaxed_first","Practice",0,"ITI","Go","relaxed",0,NA,NA,94.0476190476191
65.7519139694605,0.5,"AM04EN20b","2022_Feb_16_1021","circle","relaxed_first","Practice",1,"Fixation","Go","relaxed",0,NA,"post_error_inh",94.0476190476191
66.2356709358137,0.1,"AM04EN20b","2022_Feb_16_1021","circle","relaxed_first","Practice",1,"Target","Go","relaxed",0,NA,"post_error_inh",94.0476190476191
66.3357548018785,1.5,"AM04EN20b","2022_Feb_16_1021","circle","relaxed_first","Practice",1,"ITI","Go","relaxed",0,NA,"post_error_inh",94.0476190476191
67.8370241694702,0.5,"AM04EN20b","2022_Feb_16_1021","circle","relaxed_first","Practice",2,"Fixation","NoGo","relaxed",1,NA,"post_error_inh",94.0476190476191
68.3207881368162,0.1,"AM04EN20b","2022_Feb_16_1021","circle","relaxed_first","Practice",2,"Target","NoGo","relaxed",1,NA,"post_error_inh",94.0476190476191
68.4208492496537,1.5,"AM04EN20b","2022_Feb_16_1021","circle","relaxed_first","Practice",2,"ITI","NoGo","relaxed",1,NA,"post_error_inh",94.0476190476191
69.9221297021513,0.5,"AM04EN20b","2022_Feb_16_1021","circle","relaxed_first","Practice",3,"Fixation","NoGo","relaxed",1,NA,"post_correct_inh",94.0476190476191
70.4058688743125,0.1,"AM04EN20b","2022_Feb_16_1021","circle","relaxed_first","Practice",3,"Target","NoGo","relaxed",1,NA,"post_correct_inh",94.0476190476191
70.5059571159991,1.5,"AM04EN20b","2022_Feb_16_1021","circle","relaxed_first","Practice",3,"ITI","NoGo","relaxed",1,NA,"post_correct_inh",94.0476190476191
72.0076159138407,0.5,"AM04EN20b","2022_Feb_16_1021","circle","relaxed_first","Practice",4,"Fixation","Go","relaxed",0,NA,"post_correct_inh",94.0476190476191
72.4913577113748,0.1,"AM04EN20b","2022_Feb_16_1021","circle","relaxed_first","Practice",4,"Target","Go","relaxed",0,NA,"post_correct_inh",94.0476190476191
72.5914424525645,1.5,"AM04EN20b","2022_Feb_16_1021","circle","relaxed_first","Practice",4,"ITI","Go","relaxed",0,NA,"post_correct_inh",94.0476190476191
74.0927202796893,0.5,"AM04EN20b","2022_Feb_16_1021","circle","relaxed_first","Practice",5,"Fixation","Go","relaxed",0,NA,"post_error_inh",94.0476190476191
74.5764644108876,0.1,"AM04EN20b","2022_Feb_16_1021","circle","relaxed_first","Practice",5,"Target","Go","relaxed",0,NA,"post_error_inh",94.0476190476191
74.676548568661,1.5,"AM04EN20b","2022_Feb_16_1021","circle","relaxed_first","Practice",5,"ITI","Go","relaxed",0,NA,"post_error_inh",94.0476190476191
76.1778293128664,0.5,"AM04EN20b","2022_Feb_16_1021","circle","relaxed_first","Practice",6,"Fixation","Go","relaxed",0,NA,"post_error_inh",94.0476190476191
76.6615714021091,0.1,"AM04EN20b","2022_Feb_16_1021","circle","relaxed_first","Practice",6,"Target","Go","relaxed",0,NA,"post_error_inh",94.0476190476191
76.7616546847576,1.5,"AM04EN20b","2022_Feb_16_1021","circle","relaxed_first","Practice",6,"ITI","Go","relaxed",0,NA,"post_error_inh",94.0476190476191
78.2629357206715,0.5,"AM04EN20b","2022_Feb_16_1021","circle","relaxed_first","Practice",7,"Fixation","Go","relaxed",0,NA,"post_error_inh",94.0476190476191
78.7466769347893,0.1,"AM04EN20b","2022_Feb_16_1021","circle","relaxed_first","Practice",7,"Target","Go","relaxed",0,NA,"post_error_inh",94.0476190476191
78.8467631345193,1.5,"AM04EN20b","2022_Feb_16_1021","circle","relaxed_first","Practice",7,"ITI","Go","relaxed",0,NA,"post_error_inh",94.0476190476191
80.3480400865201,0.5,"AM04EN20b","2022_Feb_16_1021","circle","relaxed_first","Practice",8,"Fixation","NoGo","relaxed",0,0.484694224325722,"post_error_inh",94.0476190476191
80.8317856762587,0.1,"AM04EN20b","2022_Feb_16_1021","circle","relaxed_first","Practice",8,"Target","NoGo","relaxed",0,0.484694224325722,"post_error_inh",94.0476190476191
80.9318712925724,1.38469422432572,"AM04EN20b","2022_Feb_16_1021","circle","relaxed_first","Practice",8,"ITI","NoGo","relaxed",0,0.484694224325722,"post_error_inh",94.0476190476191
81.3164799005845,0,"AM04EN20b","2022_Feb_16_1021","circle","relaxed_first","Practice",8,"Response","NoGo","relaxed",0,0.484694224325722,"post_error_inh",94.0476190476191
82.3497681650251,0.5,"AM04EN20b","2022_Feb_16_1021","circle","relaxed_first","Practice",9,"Fixation","Go","relaxed",0,NA,"post_error_resp",94.0476190476191
82.8334883761627,0.1,"AM04EN20b","2022_Feb_16_1021","circle","relaxed_first","Practice",9,"Target","Go","relaxed",0,NA,"post_error_resp",94.0476190476191
82.93357340906,1.5,"AM04EN20b","2022_Feb_16_1021","circle","relaxed_first","Practice",9,"ITI","Go","relaxed",0,NA,"post_error_resp",94.0476190476191
84.4348690303768,0.5,"AM04EN20b","2022_Feb_16_1021","circle","relaxed_first","Practice",10,"Fixation","NoGo","relaxed",0,0.416802092129728,"post_error_inh",94.0476190476191
84.9185962425081,0.1,"AM04EN20b","2022_Feb_16_1021","circle","relaxed_first","Practice",10,"Target","NoGo","relaxed",0,0.416802092129728,"post_error_inh",94.0476190476191
85.0186809836978,1.31680209212973,"AM04EN20b","2022_Feb_16_1021","circle","relaxed_first","Practice",10,"ITI","NoGo","relaxed",0,0.416802092129728,"post_error_inh",94.0476190476191
85.3353983346378,0,"AM04EN20b","2022_Feb_16_1021","circle","relaxed_first","Practice",10,"Response","NoGo","relaxed",0,0.416802092129728,"post_error_inh",94.0476190476191
86.3531490613559,0.5,"AM04EN20b","2022_Feb_16_1021","circle","relaxed_first","Practice",11,"Fixation","NoGo","relaxed",0,0.639394589107724,"post_error_resp",94.0476190476191
86.8369209048196,0.1,"AM04EN20b","2022_Feb_16_1021","circle","relaxed_first","Practice",11,"Target","NoGo","relaxed",0,0.639394589107724,"post_error_resp",94.0476190476191
86.9369785171602,1.5,"AM04EN20b","2022_Feb_16_1021","circle","relaxed_first","Practice",11,"ITI","NoGo","relaxed",0,0.639394589107724,"post_error_resp",94.0476190476191
87.4763154939274,0,"AM04EN20b","2022_Feb_16_1021","circle","relaxed_first","Practice",11,"Response","NoGo","relaxed",0,0.639394589107724,"post_error_resp",94.0476190476191
88.4716175357371,0.5,"AM04EN20b","2022_Feb_16_1021","circle","relaxed_first","Practice",12,"Fixation","Go","relaxed",0,NA,"post_error_resp",94.0476190476191
88.9553625420604,0.1,"AM04EN20b","2022_Feb_16_1021","circle","relaxed_first","Practice",12,"Target","Go","relaxed",0,NA,"post_error_resp",94.0476190476191
89.055449033498,1.5,"AM04EN20b","2022_Feb_16_1021","circle","relaxed_first","Practice",12,"ITI","Go","relaxed",0,NA,"post_error_resp",94.0476190476191
90.5567242352508,0.5,"AM04EN20b","2022_Feb_16_1021","circle","relaxed_first","Practice",13,"Fixation","Go","relaxed",0,NA,"post_error_inh",94.0476190476191
91.0404695332809,0.1,"AM04EN20b","2022_Feb_16_1021","circle","relaxed_first","Practice",13,"Target","Go","relaxed",0,NA,"post_error_inh",94.0476190476191
91.1405545661783,1.5,"AM04EN20b","2022_Feb_16_1021","circle","relaxed_first","Practice",13,"ITI","Go","relaxed",0,NA,"post_error_inh",94.0476190476191
92.6418356020922,0.5,"AM04EN20b","2022_Feb_16_1021","circle","relaxed_first","Practice",14,"Fixation","Go","relaxed",0,NA,"post_error_inh",94.0476190476191
93.1255785664589,0.1,"AM04EN20b","2022_Feb_16_1021","circle","relaxed_first","Practice",14,"Target","Go","relaxed",0,NA,"post_error_inh",94.0476190476191
93.2256606822757,1.5,"AM04EN20b","2022_Feb_16_1021","circle","relaxed_first","Practice",14,"ITI","Go","relaxed",0,NA,"post_error_inh",94.0476190476191
113.74315193468,0.5,"AM04EN20b","2022_Feb_16_1021","circle","relaxed_first","MainTask",0,"Fixation","Go","relaxed",0,NA,"post_error_inh",94.0476190476191
114.226864853117,0.1,"AM04EN20b","2022_Feb_16_1021","circle","relaxed_first","MainTask",0,"Target","Go","relaxed",0,NA,"post_error_inh",94.0476190476191
114.326945218686,1.5,"AM04EN20b","2022_Feb_16_1021","circle","relaxed_first","MainTask",0,"ITI","Go","relaxed",0,NA,"post_error_inh",94.0476190476191
115.794862437775,0.5,"AM04EN20b","2022_Feb_16_1021","circle","relaxed_first","MainTask",1,"Fixation","Go","relaxed",0,NA,"post_error_inh",94.0476190476191
116.278605693849,0.1,"AM04EN20b","2022_Feb_16_1021","circle","relaxed_first","MainTask",1,"Target","Go","relaxed",0,NA,"post_error_inh",94.0476190476191
116.378694810659,1.5,"AM04EN20b","2022_Feb_16_1021","circle","relaxed_first","MainTask",1,"ITI","Go","relaxed",0,NA,"post_error_inh",94.0476190476191
117.879972054368,0.5,"AM04EN20b","2022_Feb_16_1021","circle","relaxed_first","MainTask",2,"Fixation","NoGo","relaxed",1,NA,"post_error_inh",94.0476190476191
118.363710643113,0.1,"AM04EN20b","2022_Feb_16_1021","circle","relaxed_first","MainTask",2,"Target","NoGo","relaxed",1,NA,"post_error_inh",94.0476190476191
118.463796259427,1.5,"AM04EN20b","2022_Feb_16_1021","circle","relaxed_first","MainTask",2,"ITI","NoGo","relaxed",1,NA,"post_error_inh",94.0476190476191
119.965079045589,0.5,"AM04EN20b","2022_Feb_16_1021","circle","relaxed_first","MainTask",3,"Fixation","NoGo","relaxed",1,NA,"post_correct_inh",94.0476190476191
120.44882434362,0.1,"AM04EN20b","2022_Feb_16_1021","circle","relaxed_first","MainTask",3,"Target","NoGo","relaxed",1,NA,"post_correct_inh",94.0476190476191
120.548905292605,1.5,"AM04EN20b","2022_Feb_16_1021","circle","relaxed_first","MainTask",3,"ITI","NoGo","relaxed",1,NA,"post_correct_inh",94.0476190476191
122.050187787058,0.5,"AM04EN20b","2022_Feb_16_1021","circle","relaxed_first","MainTask",4,"Fixation","Go","relaxed",1,0.433649690716265,"post_correct_inh",94.0476190476191
122.533927834344,0.1,"AM04EN20b","2022_Feb_16_1021","circle","relaxed_first","MainTask",4,"Target","Go","relaxed",1,0.433649690716265,"post_correct_inh",94.0476190476191
122.634012283826,1.33364969071627,"AM04EN20b","2022_Feb_16_1021","circle","relaxed_first","MainTask",4,"ITI","Go","relaxed",1,0.433649690716265,"post_correct_inh",94.0476190476191
122.967577525061,0,"AM04EN20b","2022_Feb_16_1021","circle","relaxed_first","MainTask",4,"Response","Go","relaxed",1,0.433649690716265,"post_correct_inh",94.0476190476191
124.001846803681,0.5,"AM04EN20b","2022_Feb_16_1021","circle","relaxed_first","MainTask",5,"Fixation","Go","relaxed",1,0.441946451152035,"post_correct_resp",94.0476190476191
124.485587142675,0.1,"AM04EN20b","2022_Feb_16_1021","circle","relaxed_first","MainTask",5,"Target","Go","relaxed",1,0.441946451152035,"post_correct_resp",94.0476190476191
124.585671883865,1.34194645115203,"AM04EN20b","2022_Feb_16_1021","circle","relaxed_first","MainTask",5,"ITI","Go","relaxed",1,0.441946451152035,"post_correct_resp",94.0476190476191
124.927533593827,0,"AM04EN20b","2022_Feb_16_1021","circle","relaxed_first","MainTask",5,"Response","Go","relaxed",1,0.441946451152035,"post_correct_resp",94.0476190476191
125.970187145301,0.5,"AM04EN20b","2022_Feb_16_1021","circle","relaxed_first","MainTask",6,"Fixation","Go","relaxed",1,0.491559573348241,"post_correct_resp",94.0476190476191
126.453930109667,0.1,"AM04EN20b","2022_Feb_16_1021","circle","relaxed_first","MainTask",6,"Target","Go","relaxed",1,0.491559573348241,"post_correct_resp",94.0476190476191
126.554013684025,1.39155957334824,"AM04EN20b","2022_Feb_16_1021","circle","relaxed_first","MainTask",6,"ITI","Go","relaxed",1,0.491559573348241,"post_correct_resp",94.0476190476191
126.945489683016,0,"AM04EN20b","2022_Feb_16_1021","circle","relaxed_first","MainTask",6,"Response","Go","relaxed",1,0.491559573348241,"post_correct_resp",94.0476190476191
127.988567669704,0.5,"AM04EN20b","2022_Feb_16_1021","circle","relaxed_first","MainTask",7,"Fixation","Go","relaxed",1,0.502142158085007,"post_correct_resp",94.0476190476191
128.472310925779,0.1,"AM04EN20b","2022_Feb_16_1021","circle","relaxed_first","MainTask",7,"Target","Go","relaxed",1,0.502142158085007,"post_correct_resp",94.0476190476191
128.572397125508,1.40214215808501,"AM04EN20b","2022_Feb_16_1021","circle","relaxed_first","MainTask",7,"ITI","Go","relaxed",1,0.502142158085007,"post_correct_resp",94.0476190476191
128.974453083864,0,"AM04EN20b","2022_Feb_16_1021","circle","relaxed_first","MainTask",7,"Response","Go","relaxed",1,0.502142158085007,"post_correct_resp",94.0476190476191
130.023634478142,0.5,"AM04EN20b","2022_Feb_16_1021","circle","relaxed_first","MainTask",8,"Fixation","Go","relaxed",1,0.385098969249157,"post_correct_resp",94.0476190476191
130.507377442507,0.1,"AM04EN20b","2022_Feb_16_1021","circle","relaxed_first","MainTask",8,"Target","Go","relaxed",1,0.385098969249157,"post_correct_resp",94.0476190476191
130.607463058821,1.28509896924916,"AM04EN20b","2022_Feb_16_1021","circle","relaxed_first","MainTask",8,"ITI","Go","relaxed",1,0.385098969249157,"post_correct_resp",94.0476190476191
130.892476411756,0,"AM04EN20b","2022_Feb_16_1021","circle","relaxed_first","MainTask",8,"Response","Go","relaxed",1,0.385098969249157,"post_correct_resp",94.0476190476191
131.94192967794,0.5,"AM04EN20b","2022_Feb_16_1021","circle","relaxed_first","MainTask",9,"Fixation","Go","relaxed",1,0.380687176660103,"post_correct_resp",94.0476190476191
132.425675559386,0.1,"AM04EN20b","2022_Feb_16_1021","circle","relaxed_first","MainTask",9,"Target","Go","relaxed",1,0.380687176660103,"post_correct_resp",94.0476190476191
132.525759425452,1.2806871766601,"AM04EN20b","2022_Feb_16_1021","circle","relaxed_first","MainTask",9,"ITI","Go","relaxed",1,0.380687176660103,"post_correct_resp",94.0476190476191
132.806362736046,0,"AM04EN20b","2022_Feb_16_1021","circle","relaxed_first","MainTask",9,"Response","Go","relaxed",1,0.380687176660103,"post_correct_resp",94.0476190476191
133.843551428859,0.5,"AM04EN20b","2022_Feb_16_1021","circle","relaxed_first","MainTask",10,"Fixation","Go","relaxed",1,0.376029765890053,"post_correct_resp",94.0476190476191
134.327293226393,0.1,"AM04EN20b","2022_Feb_16_1021","circle","relaxed_first","MainTask",10,"Target","Go","relaxed",1,0.376029765890053,"post_correct_resp",94.0476190476191
134.42737825929,1.27602976589005,"AM04EN20b","2022_Feb_16_1021","circle","relaxed_first","MainTask",10,"ITI","Go","relaxed",1,0.376029765890053,"post_correct_resp",94.0476190476191
134.703322992283,0,"AM04EN20b","2022_Feb_16_1021","circle","relaxed_first","MainTask",10,"Response","Go","relaxed",1,0.376029765890053,"post_correct_resp",94.0476190476191
135.745168804157,0.5,"AM04EN20b","2022_Feb_16_1021","circle","relaxed_first","MainTask",11,"Fixation","Go","relaxed",1,0.457385391552634,"post_correct_resp",94.0476190476191
136.228886973339,0.1,"AM04EN20b","2022_Feb_16_1021","circle","relaxed_first","MainTask",11,"Target","Go","relaxed",1,0.457385391552634,"post_correct_resp",94.0476190476191
136.329015179028,1.35738539155263,"AM04EN20b","2022_Feb_16_1021","circle","relaxed_first","MainTask",11,"ITI","Go","relaxed",1,0.457385391552634,"post_correct_resp",94.0476190476191
136.686272364892,0,"AM04EN20b","2022_Feb_16_1021","circle","relaxed_first","MainTask",11,"Response","Go","relaxed",1,0.457385391552634,"post_correct_resp",94.0476190476191
137.730188720524,0.5,"AM04EN20b","2022_Feb_16_1021","circle","relaxed_first","MainTask",12,"Fixation","NoGo","relaxed",1,NA,"post_correct_resp",94.0476190476191
138.213931976598,0.1,"AM04EN20b","2022_Feb_16_1021","circle","relaxed_first","MainTask",12,"Target","NoGo","relaxed",1,NA,"post_correct_resp",94.0476190476191
138.314017301204,1.5,"AM04EN20b","2022_Feb_16_1021","circle","relaxed_first","MainTask",12,"ITI","NoGo","relaxed",1,NA,"post_correct_resp",94.0476190476191
139.815298628826,0.5,"AM04EN20b","2022_Feb_16_1021","circle","relaxed_first","MainTask",13,"Fixation","Go","relaxed",0,NA,"post_correct_inh",94.0476190476191
140.299039842944,0.1,"AM04EN20b","2022_Feb_16_1021","circle","relaxed_first","MainTask",13,"Target","Go","relaxed",0,NA,"post_correct_inh",94.0476190476191
140.399122250469,1.5,"AM04EN20b","2022_Feb_16_1021","circle","relaxed_first","MainTask",13,"ITI","Go","relaxed",0,NA,"post_correct_inh",94.0476190476191
141.900402702967,0.5,"AM04EN20b","2022_Feb_16_1021","circle","relaxed_first","MainTask",14,"Fixation","Go","relaxed",1,0.421995662301015,"post_error_inh",94.0476190476191
142.384147125873,0.1,"AM04EN20b","2022_Feb_16_1021","circle","relaxed_first","MainTask",14,"Target","Go","relaxed",1,0.421995662301015,"post_error_inh",94.0476190476191
142.484231575354,1.32199566230101,"AM04EN20b","2022_Feb_16_1021","circle","relaxed_first","MainTask",14,"ITI","Go","relaxed",1,0.421995662301015,"post_error_inh",94.0476190476191
142.806142788174,0,"AM04EN20b","2022_Feb_16_1021","circle","relaxed_first","MainTask",14,"Response","Go","relaxed",1,0.421995662301015,"post_error_inh",94.0476190476191
143.852065803502,0.5,"AM04EN20b","2022_Feb_16_1021","circle","relaxed_first","MainTask",15,"Fixation","Go","relaxed",1,0.516290290352117,"post_correct_resp",94.0476190476191
144.335806434204,0.1,"AM04EN20b","2022_Feb_16_1021","circle","relaxed_first","MainTask",15,"Target","Go","relaxed",1,0.516290290352117,"post_correct_resp",94.0476190476191
144.435892050517,1.41629029035212,"AM04EN20b","2022_Feb_16_1021","circle","relaxed_first","MainTask",15,"ITI","Go","relaxed",1,0.516290290352117,"post_correct_resp",94.0476190476191
144.852096724556,0,"AM04EN20b","2022_Feb_16_1021","circle","relaxed_first","MainTask",15,"Response","Go","relaxed",1,0.516290290352117,"post_correct_resp",94.0476190476191
145.887131445107,0.5,"AM04EN20b","2022_Feb_16_1021","circle","relaxed_first","MainTask",16,"Fixation","Go","relaxed",1,0.559220672766969,"post_break",94.0476190476191
146.370869158728,0.1,"AM04EN20b","2022_Feb_16_1021","circle","relaxed_first","MainTask",16,"Target","Go","relaxed",1,0.559220672766969,"post_break",94.0476190476191
146.470955650166,1.45922067276697,"AM04EN20b","2022_Feb_16_1021","circle","relaxed_first","MainTask",16,"ITI","Go","relaxed",1,0.559220672766969,"post_break",94.0476190476191
146.930089831495,0,"AM04EN20b","2022_Feb_16_1021","circle","relaxed_first","MainTask",16,"Response","Go","relaxed",1,0.559220672766969,"post_break",94.0476190476191
147.972234352415,0.5,"AM04EN20b","2022_Feb_16_1021","circle","relaxed_first","MainTask",17,"Fixation","Go","relaxed",1,0.538037125683331,"post_correct_resp",94.0476190476191
148.455977900197,0.1,"AM04EN20b","2022_Feb_16_1021","circle","relaxed_first","MainTask",17,"Target","Go","relaxed",1,0.538037125683331,"post_correct_resp",94.0476190476191
148.556063516511,1.43803712568333,"AM04EN20b","2022_Feb_16_1021","circle","relaxed_first","MainTask",17,"ITI","Go","relaxed",1,0.538037125683331,"post_correct_resp",94.0476190476191
148.994015025881,0,"AM04EN20b","2022_Feb_16_1021","circle","relaxed_first","MainTask",17,"Response","Go","relaxed",1,0.538037125683331,"post_correct_resp",94.0476190476191
150.040688022613,0.5,"AM04EN20b","2022_Feb_16_1021","circle","relaxed_first","MainTask",18,"Fixation","NoGo","relaxed",1,NA,"post_correct_resp",94.0476190476191
150.524404441547,0.1,"AM04EN20b","2022_Feb_16_1021","circle","relaxed_first","MainTask",18,"Target","NoGo","relaxed",1,NA,"post_correct_resp",94.0476190476191
150.624490349568,1.5,"AM04EN20b","2022_Feb_16_1021","circle","relaxed_first","MainTask",18,"ITI","NoGo","relaxed",1,NA,"post_correct_resp",94.0476190476191
152.125769343525,0.5,"AM04EN20b","2022_Feb_16_1021","circle","relaxed_first","MainTask",19,"Fixation","NoGo","relaxed",1,NA,"post_correct_inh",94.0476190476191
152.609510265936,0.1,"AM04EN20b","2022_Feb_16_1021","circle","relaxed_first","MainTask",19,"Target","NoGo","relaxed",1,NA,"post_correct_inh",94.0476190476191
152.709596173957,1.5,"AM04EN20b","2022_Feb_16_1021","circle","relaxed_first","MainTask",19,"ITI","NoGo","relaxed",1,NA,"post_correct_inh",94.0476190476191
154.210882168907,0.5,"AM04EN20b","2022_Feb_16_1021","circle","relaxed_first","MainTask",20,"Fixation","Go","relaxed",1,0.49428295972757,"post_correct_inh",94.0476190476191
154.694618715696,0.1,"AM04EN20b","2022_Feb_16_1021","circle","relaxed_first","MainTask",20,"Target","Go","relaxed",1,0.49428295972757,"post_correct_inh",94.0476190476191
154.794703748594,1.39428295972757,"AM04EN20b","2022_Feb_16_1021","circle","relaxed_first","MainTask",20,"ITI","Go","relaxed",1,0.49428295972757,"post_correct_inh",94.0476190476191
155.188901675424,0,"AM04EN20b","2022_Feb_16_1021","circle","relaxed_first","MainTask",20,"Response","Go","relaxed",1,0.49428295972757,"post_correct_inh",94.0476190476191
156.229260651355,0.5,"AM04EN20b","2022_Feb_16_1021","circle","relaxed_first","MainTask",21,"Fixation","Go","relaxed",1,0.39783377599997,"post_correct_resp",94.0476190476191
156.713001282056,0.1,"AM04EN20b","2022_Feb_16_1021","circle","relaxed_first","MainTask",21,"Target","Go","relaxed",1,0.39783377599997,"post_correct_resp",94.0476190476191
156.81308689837,1.29783377599997,"AM04EN20b","2022_Feb_16_1021","circle","relaxed_first","MainTask",21,"ITI","Go","relaxed",1,0.39783377599997,"post_correct_resp",94.0476190476191
157.110835058056,0,"AM04EN20b","2022_Feb_16_1021","circle","relaxed_first","MainTask",21,"Response","Go","relaxed",1,0.39783377599997,"post_correct_resp",94.0476190476191
158.147558184817,0.5,"AM04EN20b","2022_Feb_16_1021","circle","relaxed_first","MainTask",22,"Fixation","Go","relaxed",1,0.357509513329205,"post_correct_resp",94.0476190476191
158.631300857475,0.1,"AM04EN20b","2022_Feb_16_1021","circle","relaxed_first","MainTask",22,"Target","Go","relaxed",1,0.357509513329205,"post_correct_resp",94.0476190476191
158.731387057205,1.25750951332921,"AM04EN20b","2022_Feb_16_1021","circle","relaxed_first","MainTask",22,"ITI","Go","relaxed",1,0.357509513329205,"post_correct_resp",94.0476190476191
158.988810370804,0,"AM04EN20b","2022_Feb_16_1021","circle","relaxed_first","MainTask",22,"Response","Go","relaxed",1,0.357509513329205,"post_correct_resp",94.0476190476191
160.032492484871,0.5,"AM04EN20b","2022_Feb_16_1021","circle","relaxed_first","MainTask",23,"Fixation","Go","relaxed",1,0.37852241120072,"post_correct_resp",94.0476190476191
160.516236324362,0.1,"AM04EN20b","2022_Feb_16_1021","circle","relaxed_first","MainTask",23,"Target","Go","relaxed",1,0.37852241120072,"post_correct_resp",94.0476190476191
160.616322524091,1.27852241120072,"AM04EN20b","2022_Feb_16_1021","circle","relaxed_first","MainTask",23,"ITI","Go","relaxed",1,0.37852241120072,"post_correct_resp",94.0476190476191
160.894758735562,0,"AM04EN20b","2022_Feb_16_1021","circle","relaxed_first","MainTask",23,"Response","Go","relaxed",1,0.37852241120072,"post_correct_resp",94.0476190476191
161.9341218202,0.5,"AM04EN20b","2022_Feb_16_1021","circle","relaxed_first","MainTask",24,"Fixation","Go","relaxed",1,0.496891121428234,"post_correct_resp",94.0476190476191
162.417855741616,0.1,"AM04EN20b","2022_Feb_16_1021","circle","relaxed_first","MainTask",24,"Target","Go","relaxed",1,0.496891121428234,"post_correct_resp",94.0476190476191
162.517940482806,1.39689112142823,"AM04EN20b","2022_Feb_16_1021","circle","relaxed_first","MainTask",24,"ITI","Go","relaxed",1,0.496891121428234,"post_correct_resp",94.0476190476191
162.914746863044,0,"AM04EN20b","2022_Feb_16_1021","circle","relaxed_first","MainTask",24,"Response","Go","relaxed",1,0.496891121428234,"post_correct_resp",94.0476190476191
163.952493593361,0.5,"AM04EN20b","2022_Feb_16_1021","circle","relaxed_first","MainTask",25,"Fixation","NoGo","relaxed",1,NA,"post_correct_resp",94.0476190476191
164.436218763537,0.1,"AM04EN20b","2022_Feb_16_1021","circle","relaxed_first","MainTask",25,"Target","NoGo","relaxed",1,NA,"post_correct_resp",94.0476190476191
164.536322757457,1.5,"AM04EN20b","2022_Feb_16_1021","circle","relaxed_first","MainTask",25,"ITI","NoGo","relaxed",1,NA,"post_correct_resp",94.0476190476191
166.037601167998,0.5,"AM04EN20b","2022_Feb_16_1021","circle","relaxed_first","MainTask",26,"Fixation","Go","relaxed",1,0.53428517671,"post_correct_inh",94.0476190476191
166.521363093389,0.1,"AM04EN20b","2022_Feb_16_1021","circle","relaxed_first","MainTask",26,"Target","Go","relaxed",1,0.53428517671,"post_correct_inh",94.0476190476191
166.621430915511,1.43428517671,"AM04EN20b","2022_Feb_16_1021","circle","relaxed_first","MainTask",26,"ITI","Go","relaxed",1,0.53428517671,"post_correct_inh",94.0476190476191
167.055648270099,0,"AM04EN20b","2022_Feb_16_1021","circle","relaxed_first","MainTask",26,"Response","Go","relaxed",1,0.53428517671,"post_correct_inh",94.0476190476191
168.089345217519,0.5,"AM04EN20b","2022_Feb_16_1021","circle","relaxed_first","MainTask",27,"Fixation","Go","relaxed",1,0.355499936554224,"post_correct_resp",94.0476190476191
168.57309051555,0.1,"AM04EN20b","2022_Feb_16_1021","circle","relaxed_first","MainTask",27,"Target","Go","relaxed",1,0.355499936554224,"post_correct_resp",94.0476190476191
168.673175840156,1.25549993655422,"AM04EN20b","2022_Feb_16_1021","circle","relaxed_first","MainTask",27,"ITI","Go","relaxed",1,0.355499936554224,"post_correct_resp",94.0476190476191
168.928590452104,0,"AM04EN20b","2022_Feb_16_1021","circle","relaxed_first","MainTask",27,"Response","Go","relaxed",1,0.355499936554224,"post_correct_resp",94.0476190476191
169.974283601486,0.5,"AM04EN20b","2022_Feb_16_1021","circle","relaxed_first","MainTask",28,"Fixation","NoGo","relaxed",1,NA,"post_correct_resp",94.0476190476191
170.458026565852,0.1,"AM04EN20b","2022_Feb_16_1021","circle","relaxed_first","MainTask",28,"Target","NoGo","relaxed",1,NA,"post_correct_resp",94.0476190476191
170.558112473874,1.5,"AM04EN20b","2022_Feb_16_1021","circle","relaxed_first","MainTask",28,"ITI","NoGo","relaxed",1,NA,"post_correct_resp",94.0476190476191
172.059390884415,0.5,"AM04EN20b","2022_Feb_16_1021","circle","relaxed_first","MainTask",29,"Fixation","Go","relaxed",1,0.47537473545799,"post_correct_inh",94.0476190476191
172.543134723905,0.1,"AM04EN20b","2022_Feb_16_1021","circle","relaxed_first","MainTask",29,"Target","Go","relaxed",1,0.47537473545799,"post_correct_inh",94.0476190476191
172.64321858997,1.37537473545799,"AM04EN20b","2022_Feb_16_1021","circle","relaxed_first","MainTask",29,"ITI","Go","relaxed",1,0.47537473545799,"post_correct_inh",94.0476190476191
173.018509459363,0,"AM04EN20b","2022_Feb_16_1021","circle","relaxed_first","MainTask",29,"Response","Go","relaxed",1,0.47537473545799,"post_correct_inh",94.0476190476191
174.061099710188,0.5,"AM04EN20b","2022_Feb_16_1021","circle","relaxed_first","MainTask",30,"Fixation","Go","relaxed",1,0.428621519011358,"post_correct_resp",94.0476190476191
174.544836840393,0.1,"AM04EN20b","2022_Feb_16_1021","circle","relaxed_first","MainTask",30,"Target","Go","relaxed",1,0.428621519011358,"post_correct_resp",94.0476190476191
174.644920706458,1.32862151901136,"AM04EN20b","2022_Feb_16_1021","circle","relaxed_first","MainTask",30,"ITI","Go","relaxed",1,0.428621519011358,"post_correct_resp",94.0476190476191
174.973458359405,0,"AM04EN20b","2022_Feb_16_1021","circle","relaxed_first","MainTask",30,"Response","Go","relaxed",1,0.428621519011358,"post_correct_resp",94.0476190476191
176.012753476066,0.5,"AM04EN20b","2022_Feb_16_1021","circle","relaxed_first","MainTask",31,"Fixation","Go","relaxed",1,0.389941031216949,"post_correct_resp",94.0476190476191
176.496497315557,0.1,"AM04EN20b","2022_Feb_16_1021","circle","relaxed_first","MainTask",31,"Target","Go","relaxed",1,0.389941031216949,"post_correct_resp",94.0476190476191
176.596582348454,1.28994103121695,"AM04EN20b","2022_Feb_16_1021","circle","relaxed_first","MainTask",31,"ITI","Go","relaxed",1,0.389941031216949,"post_correct_resp",94.0476190476191
176.886438346774,0,"AM04EN20b","2022_Feb_16_1021","circle","relaxed_first","MainTask",31,"Response","Go","relaxed",1,0.389941031216949,"post_correct_resp",94.0476190476191
177.931054218317,0.5,"AM04EN20b","2022_Feb_16_1021","circle","relaxed_first","MainTask",32,"Fixation","NoGo","relaxed",1,NA,"post_correct_resp",94.0476190476191
178.414804183676,0.1,"AM04EN20b","2022_Feb_16_1021","circle","relaxed_first","MainTask",32,"Target","NoGo","relaxed",1,NA,"post_correct_resp",94.0476190476191
178.514910511261,1.5,"AM04EN20b","2022_Feb_16_1021","circle","relaxed_first","MainTask",32,"ITI","NoGo","relaxed",1,NA,"post_correct_resp",94.0476190476191
180.016161209538,0.5,"AM04EN20b","2022_Feb_16_1021","circle","relaxed_first","MainTask",33,"Fixation","Go","relaxed",1,0.563418351645851,"post_correct_inh",94.0476190476191
180.499911758314,0.1,"AM04EN20b","2022_Feb_16_1021","circle","relaxed_first","MainTask",33,"Target","Go","relaxed",1,0.563418351645851,"post_correct_inh",94.0476190476191
180.599986581429,1.46341835164585,"AM04EN20b","2022_Feb_16_1021","circle","relaxed_first","MainTask",33,"ITI","Go","relaxed",1,0.563418351645851,"post_correct_inh",94.0476190476191
181.06333010996,0,"AM04EN20b","2022_Feb_16_1021","circle","relaxed_first","MainTask",33,"Response","Go","relaxed",1,0.563418351645851,"post_correct_inh",94.0476190476191
182.101267617343,0.5,"AM04EN20b","2022_Feb_16_1021","circle","relaxed_first","MainTask",34,"Fixation","Go","relaxed",1,0.475261844440865,"post_correct_resp",94.0476190476191
182.585020208075,0.1,"AM04EN20b","2022_Feb_16_1021","circle","relaxed_first","MainTask",34,"Target","Go","relaxed",1,0.475261844440865,"post_correct_resp",94.0476190476191
182.685096198023,1.37526184444087,"AM04EN20b","2022_Feb_16_1021","circle","relaxed_first","MainTask",34,"ITI","Go","relaxed",1,0.475261844440865,"post_correct_resp",94.0476190476191
183.060282052516,0,"AM04EN20b","2022_Feb_16_1021","circle","relaxed_first","MainTask",34,"Response","Go","relaxed",1,0.475261844440865,"post_correct_resp",94.0476190476191
184.102970900663,0.5,"AM04EN20b","2022_Feb_16_1021","circle","relaxed_first","MainTask",35,"Fixation","Go","relaxed",1,0.462524995733474,"post_correct_resp",94.0476190476191
184.586711239656,0.1,"AM04EN20b","2022_Feb_16_1021","circle","relaxed_first","MainTask",35,"Target","Go","relaxed",1,0.462524995733474,"post_correct_resp",94.0476190476191
184.686797147679,1.36252499573347,"AM04EN20b","2022_Feb_16_1021","circle","relaxed_first","MainTask",35,"ITI","Go","relaxed",1,0.462524995733474,"post_correct_resp",94.0476190476191
185.04923623539,0,"AM04EN20b","2022_Feb_16_1021","circle","relaxed_first","MainTask",35,"Response","Go","relaxed",1,0.462524995733474,"post_correct_resp",94.0476190476191
186.087987608242,0.5,"AM04EN20b","2022_Feb_16_1021","circle","relaxed_first","MainTask",36,"Fixation","Go","relaxed",1,0.429481182642121,"post_correct_resp",94.0476190476191
186.571733489688,0.1,"AM04EN20b","2022_Feb_16_1021","circle","relaxed_first","MainTask",36,"Target","Go","relaxed",1,0.429481182642121,"post_correct_resp",94.0476190476191
186.67181939771,1.32948118264212,"AM04EN20b","2022_Feb_16_1021","circle","relaxed_first","MainTask",36,"ITI","Go","relaxed",1,0.429481182642121,"post_correct_resp",94.0476190476191
187.00121467233,0,"AM04EN20b","2022_Feb_16_1021","circle","relaxed_first","MainTask",36,"Response","Go","relaxed",1,0.429481182642121,"post_correct_resp",94.0476190476191
188.039653917566,0.5,"AM04EN20b","2022_Feb_16_1021","circle","relaxed_first","MainTask",37,"Fixation","NoGo","relaxed",1,NA,"post_correct_resp",94.0476190476191
188.523393381435,0.1,"AM04EN20b","2022_Feb_16_1021","circle","relaxed_first","MainTask",37,"Target","NoGo","relaxed",1,NA,"post_correct_resp",94.0476190476191
188.623480747998,1.5,"AM04EN20b","2022_Feb_16_1021","circle","relaxed_first","MainTask",37,"ITI","NoGo","relaxed",1,NA,"post_correct_resp",94.0476190476191
190.124760325371,0.5,"AM04EN20b","2022_Feb_16_1021","circle","relaxed_first","MainTask",38,"Fixation","Go","relaxed",1,0.456615574001262,"post_correct_inh",94.0476190476191
190.608501247781,0.1,"AM04EN20b","2022_Feb_16_1021","circle","relaxed_first","MainTask",38,"Target","Go","relaxed",1,0.456615574001262,"post_correct_inh",94.0476190476191
190.708585697262,1.35661557400126,"AM04EN20b","2022_Feb_16_1021","circle","relaxed_first","MainTask",38,"ITI","Go","relaxed",1,0.456615574001262,"post_correct_inh",94.0476190476191
191.065116821782,0,"AM04EN20b","2022_Feb_16_1021","circle","relaxed_first","MainTask",38,"Response","Go","relaxed",1,0.456615574001262,"post_correct_inh",94.0476190476191
192.109782575402,0.5,"AM04EN20b","2022_Feb_16_1021","circle","relaxed_first","MainTask",39,"Fixation","Go","relaxed",1,0.369546262709264,"post_correct_resp",94.0476190476191
192.593522330981,0.1,"AM04EN20b","2022_Feb_16_1021","circle","relaxed_first","MainTask",39,"Target","Go","relaxed",1,0.369546262709264,"post_correct_resp",94.0476190476191
192.693607363878,1.26954626270926,"AM04EN20b","2022_Feb_16_1021","circle","relaxed_first","MainTask",39,"ITI","Go","relaxed",1,0.369546262709264,"post_correct_resp",94.0476190476191
192.96306859369,0,"AM04EN20b","2022_Feb_16_1021","circle","relaxed_first","MainTask",39,"Response","Go","relaxed",1,0.369546262709264,"post_correct_resp",94.0476190476191
194.011396741912,0.5,"AM04EN20b","2022_Feb_16_1021","circle","relaxed_first","MainTask",40,"Fixation","NoGo","relaxed",1,NA,"post_correct_resp",94.0476190476191
194.495139997987,0.1,"AM04EN20b","2022_Feb_16_1021","circle","relaxed_first","MainTask",40,"Target","NoGo","relaxed",1,NA,"post_correct_resp",94.0476190476191
194.595226781133,1.5,"AM04EN20b","2022_Feb_16_1021","circle","relaxed_first","MainTask",40,"ITI","NoGo","relaxed",1,NA,"post_correct_resp",94.0476190476191
196.096504608257,0.5,"AM04EN20b","2022_Feb_16_1021","circle","relaxed_first","MainTask",41,"Fixation","Go","relaxed",1,0.450763035339151,"post_correct_inh",94.0476190476191
196.5802466975,0.1,"AM04EN20b","2022_Feb_16_1021","circle","relaxed_first","MainTask",41,"Target","Go","relaxed",1,0.450763035339151,"post_correct_inh",94.0476190476191
196.680332313813,1.35076303533915,"AM04EN20b","2022_Feb_16_1021","circle","relaxed_first","MainTask",41,"ITI","Go","relaxed",1,0.450763035339151,"post_correct_inh",94.0476190476191
197.031009732839,0,"AM04EN20b","2022_Feb_16_1021","circle","relaxed_first","MainTask",41,"Response","Go","relaxed",1,0.450763035339151,"post_correct_inh",94.0476190476191
198.06484290792,0.5,"AM04EN20b","2022_Feb_16_1021","circle","relaxed_first","MainTask",42,"Fixation","Go","relaxed",1,0.40637177899589,"post_correct_resp",94.0476190476191
198.548587622535,0.1,"AM04EN20b","2022_Feb_16_1021","circle","relaxed_first","MainTask",42,"Target","Go","relaxed",1,0.40637177899589,"post_correct_resp",94.0476190476191
198.648691616456,1.30637177899589,"AM04EN20b","2022_Feb_16_1021","circle","relaxed_first","MainTask",42,"ITI","Go","relaxed",1,0.40637177899589,"post_correct_resp",94.0476190476191
198.954959401531,0,"AM04EN20b","2022_Feb_16_1021","circle","relaxed_first","MainTask",42,"Response","Go","relaxed",1,0.40637177899589,"post_correct_resp",94.0476190476191
199.99982176638,0.5,"AM04EN20b","2022_Feb_16_1021","circle","relaxed_first","MainTask",43,"Fixation","Go","relaxed",1,0.377339826754906,"post_correct_resp",94.0476190476191
200.483566480994,0.1,"AM04EN20b","2022_Feb_16_1021","circle","relaxed_first","MainTask",43,"Target","Go","relaxed",1,0.377339826754906,"post_correct_resp",94.0476190476191
200.583652097308,1.27733982675491,"AM04EN20b","2022_Feb_16_1021","circle","relaxed_first","MainTask",43,"ITI","Go","relaxed",1,0.377339826754906,"post_correct_resp",94.0476190476191
200.860906307749,0,"AM04EN20b","2022_Feb_16_1021","circle","relaxed_first","MainTask",43,"Response","Go","relaxed",1,0.377339826754906,"post_correct_resp",94.0476190476191
201.901443225591,0.5,"AM04EN20b","2022_Feb_16_1021","circle","relaxed_first","MainTask",44,"Fixation","Go","relaxed",1,0.356687188327669,"post_correct_resp",94.0476190476191
202.385185606541,0.1,"AM04EN20b","2022_Feb_16_1021","circle","relaxed_first","MainTask",44,"Target","Go","relaxed",1,0.356687188327669,"post_correct_resp",94.0476190476191
202.48527034773,1.25668718832767,"AM04EN20b","2022_Feb_16_1021","circle","relaxed_first","MainTask",44,"ITI","Go","relaxed",1,0.356687188327669,"post_correct_resp",94.0476190476191
202.741872794869,0,"AM04EN20b","2022_Feb_16_1021","circle","relaxed_first","MainTask",44,"Response","Go","relaxed",1,0.356687188327669,"post_correct_resp",94.0476190476191
203.786379567601,0.5,"AM04EN20b","2022_Feb_16_1021","circle","relaxed_first","MainTask",45,"Fixation","Go","relaxed",1,0.447698350536484,"post_correct_resp",94.0476190476191
204.27012049001,0.1,"AM04EN20b","2022_Feb_16_1021","circle","relaxed_first","MainTask",45,"Target","Go","relaxed",1,0.447698350536484,"post_correct_resp",94.0476190476191
204.370203480952,1.34769835053648,"AM04EN20b","2022_Feb_16_1021","circle","relaxed_first","MainTask",45,"ITI","Go","relaxed",1,0.447698350536484,"post_correct_resp",94.0476190476191
204.717818840547,0,"AM04EN20b","2022_Feb_16_1021","circle","relaxed_first","MainTask",45,"Response","Go","relaxed",1,0.447698350536484,"post_correct_resp",94.0476190476191
205.754716700431,0.5,"AM04EN20b","2022_Feb_16_1021","circle","relaxed_first","MainTask",46,"Fixation","NoGo","relaxed",1,NA,"post_correct_resp",94.0476190476191
206.238447996476,0.1,"AM04EN20b","2022_Feb_16_1021","circle","relaxed_first","MainTask",46,"Target","NoGo","relaxed",1,NA,"post_correct_resp",94.0476190476191
206.338547906484,1.5,"AM04EN20b","2022_Feb_16_1021","circle","relaxed_first","MainTask",46,"ITI","NoGo","relaxed",1,NA,"post_correct_resp",94.0476190476191
207.839827483857,0.5,"AM04EN20b","2022_Feb_16_1021","circle","relaxed_first","MainTask",47,"Fixation","Go","relaxed",1,0.48117855887449,"post_correct_inh",94.0476190476191
208.323570156515,0.1,"AM04EN20b","2022_Feb_16_1021","circle","relaxed_first","MainTask",47,"Target","Go","relaxed",1,0.48117855887449,"post_correct_inh",94.0476190476191
208.423654314289,1.38117855887449,"AM04EN20b","2022_Feb_16_1021","circle","relaxed_first","MainTask",47,"ITI","Go","relaxed",1,0.48117855887449,"post_correct_inh",94.0476190476191
208.80474871539,0,"AM04EN20b","2022_Feb_16_1021","circle","relaxed_first","MainTask",47,"Response","Go","relaxed",1,0.48117855887449,"post_correct_inh",94.0476190476191
209.841529600345,0.5,"AM04EN20b","2022_Feb_16_1021","circle","relaxed_first","MainTask",48,"Fixation","Go","relaxed",1,0.404412376005894,"post_correct_resp",94.0476190476191
210.325270814463,0.1,"AM04EN20b","2022_Feb_16_1021","circle","relaxed_first","MainTask",48,"Target","Go","relaxed",1,0.404412376005894,"post_correct_resp",94.0476190476191
210.425356139069,1.30441237600589,"AM04EN20b","2022_Feb_16_1021","circle","relaxed_first","MainTask",48,"ITI","Go","relaxed",1,0.404412376005894,"post_correct_resp",94.0476190476191
210.729683190469,0,"AM04EN20b","2022_Feb_16_1021","circle","relaxed_first","MainTask",48,"Response","Go","relaxed",1,0.404412376005894,"post_correct_resp",94.0476190476191
211.776509333928,0.5,"AM04EN20b","2022_Feb_16_1021","circle","relaxed_first","MainTask",49,"Fixation","Go","relaxed",1,0.435419483472288,"post_correct_resp",94.0476190476191
212.260252006587,0.1,"AM04EN20b","2022_Feb_16_1021","circle","relaxed_first","MainTask",49,"Target","Go","relaxed",1,0.435419483472288,"post_correct_resp",94.0476190476191
212.360316911628,1.33541948347229,"AM04EN20b","2022_Feb_16_1021","circle","relaxed_first","MainTask",49,"ITI","Go","relaxed",1,0.435419483472288,"post_correct_resp",94.0476190476191
212.695671490059,0,"AM04EN20b","2022_Feb_16_1021","circle","relaxed_first","MainTask",49,"Response","Go","relaxed",1,0.435419483472288,"post_correct_resp",94.0476190476191
213.744850258963,0.5,"AM04EN20b","2022_Feb_16_1021","circle","relaxed_first","MainTask",50,"Fixation","NoGo","relaxed",1,NA,"post_correct_resp",94.0476190476191
214.228590597957,0.1,"AM04EN20b","2022_Feb_16_1021","circle","relaxed_first","MainTask",50,"Target","NoGo","relaxed",1,NA,"post_correct_resp",94.0476190476191
214.328675922563,1.5,"AM04EN20b","2022_Feb_16_1021","circle","relaxed_first","MainTask",50,"ITI","NoGo","relaxed",1,NA,"post_correct_resp",94.0476190476191
215.829955791644,0.5,"AM04EN20b","2022_Feb_16_1021","circle","relaxed_first","MainTask",51,"Fixation","NoGo","relaxed",1,NA,"post_correct_inh",94.0476190476191
216.313697880886,0.1,"AM04EN20b","2022_Feb_16_1021","circle","relaxed_first","MainTask",51,"Target","NoGo","relaxed",1,NA,"post_correct_inh",94.0476190476191
216.413782330368,1.5,"AM04EN20b","2022_Feb_16_1021","circle","relaxed_first","MainTask",51,"ITI","NoGo","relaxed",1,NA,"post_correct_inh",94.0476190476191
217.915060449201,0.5,"AM04EN20b","2022_Feb_16_1021","circle","relaxed_first","MainTask",52,"Fixation","Go","relaxed",1,0.361727320063437,"post_correct_inh",94.0476190476191
218.3988045804,0.1,"AM04EN20b","2022_Feb_16_1021","circle","relaxed_first","MainTask",52,"Target","Go","relaxed",1,0.361727320063437,"post_correct_inh",94.0476190476191
218.498891946962,1.26172732006344,"AM04EN20b","2022_Feb_16_1021","circle","relaxed_first","MainTask",52,"ITI","Go","relaxed",1,0.361727320063437,"post_correct_inh",94.0476190476191
218.760531900463,0,"AM04EN20b","2022_Feb_16_1021","circle","relaxed_first","MainTask",52,"Response","Go","relaxed",1,0.361727320063437,"post_correct_inh",94.0476190476191
219.800000583416,0.5,"AM04EN20b","2022_Feb_16_1021","circle","relaxed_first","MainTask",53,"Fixation","NoGo","relaxed",1,NA,"post_correct_resp",94.0476190476191
220.283742089242,0.1,"AM04EN20b","2022_Feb_16_1021","circle","relaxed_first","MainTask",53,"Target","NoGo","relaxed",1,NA,"post_correct_resp",94.0476190476191
220.383826538723,1.5,"AM04EN20b","2022_Feb_16_1021","circle","relaxed_first","MainTask",53,"ITI","NoGo","relaxed",1,NA,"post_correct_resp",94.0476190476191
221.885104365848,0.5,"AM04EN20b","2022_Feb_16_1021","circle","relaxed_first","MainTask",54,"Fixation","Go","relaxed",1,0.371591136158713,"post_correct_inh",94.0476190476191
222.368846163382,0.1,"AM04EN20b","2022_Feb_16_1021","circle","relaxed_first","MainTask",54,"Target","Go","relaxed",1,0.371591136158713,"post_correct_inh",94.0476190476191
222.468931196279,1.27159113615871,"AM04EN20b","2022_Feb_16_1021","circle","relaxed_first","MainTask",54,"ITI","Go","relaxed",1,0.371591136158713,"post_correct_inh",94.0476190476191
222.740437299541,0,"AM04EN20b","2022_Feb_16_1021","circle","relaxed_first","MainTask",54,"Response","Go","relaxed",1,0.371591136158713,"post_correct_inh",94.0476190476191
223.786724074811,0.5,"AM04EN20b","2022_Feb_16_1021","circle","relaxed_first","MainTask",55,"Fixation","Go","relaxed",1,0.464949673068986,"post_correct_resp",94.0476190476191
224.270465580637,0.1,"AM04EN20b","2022_Feb_16_1021","circle","relaxed_first","MainTask",55,"Target","Go","relaxed",1,0.464949673068986,"post_correct_resp",94.0476190476191
224.370549446702,1.36494967306899,"AM04EN20b","2022_Feb_16_1021","circle","relaxed_first","MainTask",55,"ITI","Go","relaxed",1,0.464949673068986,"post_correct_resp",94.0476190476191
224.735415253706,0,"AM04EN20b","2022_Feb_16_1021","circle","relaxed_first","MainTask",55,"Response","Go","relaxed",1,0.464949673068986,"post_correct_resp",94.0476190476191
225.771746324843,0.5,"AM04EN20b","2022_Feb_16_1021","circle","relaxed_first","MainTask",56,"Fixation","NoGo","relaxed",1,NA,"post_correct_resp",94.0476190476191
226.255487538961,0.1,"AM04EN20b","2022_Feb_16_1021","circle","relaxed_first","MainTask",56,"Target","NoGo","relaxed",1,NA,"post_correct_resp",94.0476190476191
226.355575488938,1.5,"AM04EN20b","2022_Feb_16_1021","circle","relaxed_first","MainTask",56,"ITI","NoGo","relaxed",1,NA,"post_correct_resp",94.0476190476191
227.85685389948,0.5,"AM04EN20b","2022_Feb_16_1021","circle","relaxed_first","MainTask",57,"Fixation","NoGo","relaxed",1,NA,"post_correct_inh",94.0476190476191
228.340595405306,0.1,"AM04EN20b","2022_Feb_16_1021","circle","relaxed_first","MainTask",57,"Target","NoGo","relaxed",1,NA,"post_correct_inh",94.0476190476191
228.440683063576,1.5,"AM04EN20b","2022_Feb_16_1021","circle","relaxed_first","MainTask",57,"ITI","NoGo","relaxed",1,NA,"post_correct_inh",94.0476190476191
229.94195651508,0.5,"AM04EN20b","2022_Feb_16_1021","circle","relaxed_first","MainTask",58,"Fixation","Go","relaxed",1,0.523564614062707,"post_correct_inh",94.0476190476191
230.425700937987,0.1,"AM04EN20b","2022_Feb_16_1021","circle","relaxed_first","MainTask",58,"Target","Go","relaxed",1,0.523564614062707,"post_correct_inh",94.0476190476191
230.525789179673,1.42356461406271,"AM04EN20b","2022_Feb_16_1021","circle","relaxed_first","MainTask",58,"ITI","Go","relaxed",1,0.523564614062707,"post_correct_inh",94.0476190476191
230.94926555205,0,"AM04EN20b","2022_Feb_16_1021","circle","relaxed_first","MainTask",58,"Response","Go","relaxed",1,0.523564614062707,"post_correct_inh",94.0476190476191
231.993702314849,0.5,"AM04EN20b","2022_Feb_16_1021","circle","relaxed_first","MainTask",59,"Fixation","Go","relaxed",1,0.526777194847455,"post_correct_resp",94.0476190476191
232.477446154339,0.1,"AM04EN20b","2022_Feb_16_1021","circle","relaxed_first","MainTask",59,"Target","Go","relaxed",1,0.526777194847455,"post_correct_resp",94.0476190476191
232.57753060382,1.42677719484745,"AM04EN20b","2022_Feb_16_1021","circle","relaxed_first","MainTask",59,"ITI","Go","relaxed",1,0.526777194847455,"post_correct_resp",94.0476190476191
233.004223349187,0,"AM04EN20b","2022_Feb_16_1021","circle","relaxed_first","MainTask",59,"Response","Go","relaxed",1,0.526777194847455,"post_correct_resp",94.0476190476191
234.045448989742,0.5,"AM04EN20b","2022_Feb_16_1021","circle","relaxed_first","MainTask",60,"Fixation","NoGo","relaxed",1,NA,"post_correct_resp",94.0476190476191
234.529190495567,0.1,"AM04EN20b","2022_Feb_16_1021","circle","relaxed_first","MainTask",60,"Target","NoGo","relaxed",1,NA,"post_correct_resp",94.0476190476191
234.629297989985,1.5,"AM04EN20b","2022_Feb_16_1021","circle","relaxed_first","MainTask",60,"ITI","NoGo","relaxed",1,NA,"post_correct_resp",94.0476190476191
236.130554522422,0.5,"AM04EN20b","2022_Feb_16_1021","circle","relaxed_first","MainTask",61,"Fixation","Go","relaxed",1,0.331794865062875,"post_correct_inh",94.0476190476191
236.614335992252,0.1,"AM04EN20b","2022_Feb_16_1021","circle","relaxed_first","MainTask",61,"Target","Go","relaxed",1,0.331794865062875,"post_correct_inh",94.0476190476191
236.714382811394,1.23179486506287,"AM04EN20b","2022_Feb_16_1021","circle","relaxed_first","MainTask",61,"ITI","Go","relaxed",1,0.331794865062875,"post_correct_inh",94.0476190476191
236.946130857315,0,"AM04EN20b","2022_Feb_16_1021","circle","relaxed_first","MainTask",61,"Response","Go","relaxed",1,0.331794865062875,"post_correct_inh",94.0476190476191
237.982130839812,0.5,"AM04EN20b","2022_Feb_16_1021","circle","relaxed_first","MainTask",62,"Fixation","Go","relaxed",1,0.537238720743517,"post_correct_resp",94.0476190476191
238.465873220763,0.1,"AM04EN20b","2022_Feb_16_1021","circle","relaxed_first","MainTask",62,"Target","Go","relaxed",1,0.537238720743517,"post_correct_resp",94.0476190476191
238.565960879033,1.43723872074352,"AM04EN20b","2022_Feb_16_1021","circle","relaxed_first","MainTask",62,"ITI","Go","relaxed",1,0.537238720743517,"post_correct_resp",94.0476190476191
239.003111941506,0,"AM04EN20b","2022_Feb_16_1021","circle","relaxed_first","MainTask",62,"Response","Go","relaxed",1,0.537238720743517,"post_correct_resp",94.0476190476191
240.050555339205,0.5,"AM04EN20b","2022_Feb_16_1021","circle","relaxed_first","MainTask",63,"Fixation","Go","relaxed",1,0.417804400999557,"post_correct_resp",94.0476190476191
240.534299470403,0.1,"AM04EN20b","2022_Feb_16_1021","circle","relaxed_first","MainTask",63,"Target","Go","relaxed",1,0.417804400999557,"post_correct_resp",94.0476190476191
240.634383919885,1.31780440099956,"AM04EN20b","2022_Feb_16_1021","circle","relaxed_first","MainTask",63,"ITI","Go","relaxed",1,0.417804400999557,"post_correct_resp",94.0476190476191
240.952103871403,0,"AM04EN20b","2022_Feb_16_1021","circle","relaxed_first","MainTask",63,"Response","Go","relaxed",1,0.417804400999557,"post_correct_resp",94.0476190476191
242.002217564616,0.5,"AM04EN20b","2022_Feb_16_1021","circle","relaxed_first","MainTask",64,"Fixation","Go","relaxed",1,0.480046439922262,"post_correct_resp",94.0476190476191
242.48595790361,0.1,"AM04EN20b","2022_Feb_16_1021","circle","relaxed_first","MainTask",64,"Target","Go","relaxed",1,0.480046439922262,"post_correct_resp",94.0476190476191
242.586045270173,1.38004643992226,"AM04EN20b","2022_Feb_16_1021","circle","relaxed_first","MainTask",64,"ITI","Go","relaxed",1,0.480046439922262,"post_correct_resp",94.0476190476191
242.966004343532,0,"AM04EN20b","2022_Feb_16_1021","circle","relaxed_first","MainTask",64,"Response","Go","relaxed",1,0.480046439922262,"post_correct_resp",94.0476190476191
244.003919389396,0.5,"AM04EN20b","2022_Feb_16_1021","circle","relaxed_first","MainTask",65,"Fixation","Go","relaxed",1,0.37829779599906,"post_correct_resp",94.0476190476191
244.487672855253,0.1,"AM04EN20b","2022_Feb_16_1021","circle","relaxed_first","MainTask",65,"Target","Go","relaxed",1,0.37829779599906,"post_correct_resp",94.0476190476191
244.587748845201,1.27829779599906,"AM04EN20b","2022_Feb_16_1021","circle","relaxed_first","MainTask",65,"ITI","Go","relaxed",1,0.37829779599906,"post_correct_resp",94.0476190476191
244.865970651252,0,"AM04EN20b","2022_Feb_16_1021","circle","relaxed_first","MainTask",65,"Response","Go","relaxed",1,0.37829779599906,"post_correct_resp",94.0476190476191
245.905533847615,0.5,"AM04EN20b","2022_Feb_16_1021","circle","relaxed_first","MainTask",66,"Fixation","Go","relaxed",1,0.304649680507282,"post_correct_resp",94.0476190476191
246.389279145645,0.1,"AM04EN20b","2022_Feb_16_1021","circle","relaxed_first","MainTask",66,"Target","Go","relaxed",1,0.304649680507282,"post_correct_resp",94.0476190476191
246.489364470251,1.20464968050728,"AM04EN20b","2022_Feb_16_1021","circle","relaxed_first","MainTask",66,"ITI","Go","relaxed",1,0.304649680507282,"post_correct_resp",94.0476190476191
246.693928826152,0,"AM04EN20b","2022_Feb_16_1021","circle","relaxed_first","MainTask",66,"Response","Go","relaxed",1,0.304649680507282,"post_correct_resp",94.0476190476191
247.723748390135,0.5,"AM04EN20b","2022_Feb_16_1021","circle","relaxed_first","MainTask",67,"Fixation","NoGo","relaxed",1,NA,"post_correct_resp",94.0476190476191
248.207492229626,0.1,"AM04EN20b","2022_Feb_16_1021","circle","relaxed_first","MainTask",67,"Target","NoGo","relaxed",1,NA,"post_correct_resp",94.0476190476191
248.307578721064,1.5,"AM04EN20b","2022_Feb_16_1021","circle","relaxed_first","MainTask",67,"ITI","NoGo","relaxed",1,NA,"post_correct_resp",94.0476190476191
249.808866466263,0.5,"AM04EN20b","2022_Feb_16_1021","circle","relaxed_first","MainTask",68,"Fixation","Go","relaxed",1,0.434262277626658,"post_correct_inh",94.0476190476191
250.292599220847,0.1,"AM04EN20b","2022_Feb_16_1021","circle","relaxed_first","MainTask",68,"Target","Go","relaxed",1,0.434262277626658,"post_correct_inh",94.0476190476191
250.392682211788,1.33426227762666,"AM04EN20b","2022_Feb_16_1021","circle","relaxed_first","MainTask",68,"ITI","Go","relaxed",1,0.434262277626658,"post_correct_inh",94.0476190476191
250.726861498474,0,"AM04EN20b","2022_Feb_16_1021","circle","relaxed_first","MainTask",68,"Response","Go","relaxed",1,0.434262277626658,"post_correct_inh",94.0476190476191
251.777198640057,0.5,"AM04EN20b","2022_Feb_16_1021","circle","relaxed_first","MainTask",69,"Fixation","NoGo","relaxed",1,NA,"post_correct_resp",94.0476190476191
252.260939270759,0.1,"AM04EN20b","2022_Feb_16_1021","circle","relaxed_first","MainTask",69,"Target","NoGo","relaxed",1,NA,"post_correct_resp",94.0476190476191
252.361023136824,1.5,"AM04EN20b","2022_Feb_16_1021","circle","relaxed_first","MainTask",69,"ITI","NoGo","relaxed",1,NA,"post_correct_resp",94.0476190476191
253.862304464446,0.5,"AM04EN20b","2022_Feb_16_1021","circle","relaxed_first","MainTask",70,"Fixation","Go","relaxed",1,0.477716275996499,"post_correct_inh",94.0476190476191
254.346047428812,0.1,"AM04EN20b","2022_Feb_16_1021","circle","relaxed_first","MainTask",70,"Target","Go","relaxed",1,0.477716275996499,"post_correct_inh",94.0476190476191
254.44614879736,1.3777162759965,"AM04EN20b","2022_Feb_16_1021","circle","relaxed_first","MainTask",70,"ITI","Go","relaxed",1,0.477716275996499,"post_correct_inh",94.0476190476191
254.823763704809,0,"AM04EN20b","2022_Feb_16_1021","circle","relaxed_first","MainTask",70,"Response","Go","relaxed",1,0.477716275996499,"post_correct_inh",94.0476190476191
255.864009498014,0.5,"AM04EN20b","2022_Feb_16_1021","circle","relaxed_first","MainTask",71,"Fixation","NoGo","relaxed",1,NA,"post_correct_resp",94.0476190476191
256.347749837008,0.1,"AM04EN20b","2022_Feb_16_1021","circle","relaxed_first","MainTask",71,"Target","NoGo","relaxed",1,NA,"post_correct_resp",94.0476190476191
256.447837786985,1.5,"AM04EN20b","2022_Feb_16_1021","circle","relaxed_first","MainTask",71,"ITI","NoGo","relaxed",1,NA,"post_correct_resp",94.0476190476191
257.949112988738,0.5,"AM04EN20b","2022_Feb_16_1021","circle","relaxed_first","MainTask",72,"Fixation","Go","relaxed",1,0.359819257690106,"post_correct_inh",94.0476190476191
258.432857119937,0.1,"AM04EN20b","2022_Feb_16_1021","circle","relaxed_first","MainTask",72,"Target","Go","relaxed",1,0.359819257690106,"post_correct_inh",94.0476190476191
258.532941569418,1.25981925769011,"AM04EN20b","2022_Feb_16_1021","circle","relaxed_first","MainTask",72,"ITI","Go","relaxed",1,0.359819257690106,"post_correct_inh",94.0476190476191
258.792676377627,0,"AM04EN20b","2022_Feb_16_1021","circle","relaxed_first","MainTask",72,"Response","Go","relaxed",1,0.359819257690106,"post_correct_inh",94.0476190476191
259.834048747332,0.5,"AM04EN20b","2022_Feb_16_1021","circle","relaxed_first","MainTask",73,"Fixation","Go","relaxed",1,0.463830097562095,"post_correct_resp",94.0476190476191
260.317794920487,0.1,"AM04EN20b","2022_Feb_16_1021","circle","relaxed_first","MainTask",73,"Target","Go","relaxed",1,0.463830097562095,"post_correct_resp",94.0476190476191
260.417876744596,1.36383009756209,"AM04EN20b","2022_Feb_16_1021","circle","relaxed_first","MainTask",73,"ITI","Go","relaxed",1,0.463830097562095,"post_correct_resp",94.0476190476191
260.781625018049,0,"AM04EN20b","2022_Feb_16_1021","circle","relaxed_first","MainTask",73,"Response","Go","relaxed",1,0.463830097562095,"post_correct_resp",94.0476190476191
261.819071872488,0.5,"AM04EN20b","2022_Feb_16_1021","circle","relaxed_first","MainTask",74,"Fixation","NoGo","relaxed",1,NA,"post_correct_resp",94.0476190476191
262.302815711979,0.1,"AM04EN20b","2022_Feb_16_1021","circle","relaxed_first","MainTask",74,"Target","NoGo","relaxed",1,NA,"post_correct_resp",94.0476190476191
262.402896660963,1.5,"AM04EN20b","2022_Feb_16_1021","circle","relaxed_first","MainTask",74,"ITI","NoGo","relaxed",1,NA,"post_correct_resp",94.0476190476191
263.904180613958,0.5,"AM04EN20b","2022_Feb_16_1021","circle","relaxed_first","MainTask",75,"Fixation","Go","relaxed",1,0.329630974727479,"post_correct_inh",94.0476190476191
264.387920661244,0.1,"AM04EN20b","2022_Feb_16_1021","circle","relaxed_first","MainTask",75,"Target","Go","relaxed",1,0.329630974727479,"post_correct_inh",94.0476190476191
264.488006569265,1.22963097472748,"AM04EN20b","2022_Feb_16_1021","circle","relaxed_first","MainTask",75,"ITI","Go","relaxed",1,0.329630974727479,"post_correct_inh",94.0476190476191
264.717551635971,0,"AM04EN20b","2022_Feb_16_1021","circle","relaxed_first","MainTask",75,"Response","Go","relaxed",1,0.329630974727479,"post_correct_inh",94.0476190476191
265.755752555727,0.5,"AM04EN20b","2022_Feb_16_1021","circle","relaxed_first","MainTask",76,"Fixation","NoGo","relaxed",1,NA,"post_correct_resp",94.0476190476191
266.239496686925,0.1,"AM04EN20b","2022_Feb_16_1021","circle","relaxed_first","MainTask",76,"Target","NoGo","relaxed",1,NA,"post_correct_resp",94.0476190476191
266.339594554977,1.5,"AM04EN20b","2022_Feb_16_1021","circle","relaxed_first","MainTask",76,"ITI","NoGo","relaxed",1,NA,"post_correct_resp",94.0476190476191
267.840861297196,0.5,"AM04EN20b","2022_Feb_16_1021","circle","relaxed_first","MainTask",77,"Fixation","NoGo","relaxed",1,NA,"post_correct_inh",94.0476190476191
268.324602511314,0.1,"AM04EN20b","2022_Feb_16_1021","circle","relaxed_first","MainTask",77,"Target","NoGo","relaxed",1,NA,"post_correct_inh",94.0476190476191
268.424679084678,1.5,"AM04EN20b","2022_Feb_16_1021","circle","relaxed_first","MainTask",77,"ITI","NoGo","relaxed",1,NA,"post_correct_inh",94.0476190476191
269.925965954752,0.5,"AM04EN20b","2022_Feb_16_1021","circle","relaxed_first","MainTask",78,"Fixation","Go","relaxed",1,0.342701245738681,"post_correct_inh",94.0476190476191
270.409707752287,0.1,"AM04EN20b","2022_Feb_16_1021","circle","relaxed_first","MainTask",78,"Target","Go","relaxed",1,0.342701245738681,"post_correct_inh",94.0476190476191
270.509794535433,1.24270124573868,"AM04EN20b","2022_Feb_16_1021","circle","relaxed_first","MainTask",78,"ITI","Go","relaxed",1,0.342701245738681,"post_correct_inh",94.0476190476191
270.752408998025,0,"AM04EN20b","2022_Feb_16_1021","circle","relaxed_first","MainTask",78,"Response","Go","relaxed",1,0.342701245738681,"post_correct_inh",94.0476190476191
271.794223888847,0.5,"AM04EN20b","2022_Feb_16_1021","circle","relaxed_first","MainTask",79,"Fixation","Go","relaxed",1,0.432398263170398,"post_correct_resp",94.0476190476191
272.277965394674,0.1,"AM04EN20b","2022_Feb_16_1021","circle","relaxed_first","MainTask",79,"Target","Go","relaxed",1,0.432398263170398,"post_correct_resp",94.0476190476191
272.378049552446,1.3323982631704,"AM04EN20b","2022_Feb_16_1021","circle","relaxed_first","MainTask",79,"ITI","Go","relaxed",1,0.432398263170398,"post_correct_resp",94.0476190476191
272.710363657844,0,"AM04EN20b","2022_Feb_16_1021","circle","relaxed_first","MainTask",79,"Response","Go","relaxed",1,0.432398263170398,"post_correct_resp",94.0476190476191
273.745882613762,0.5,"AM04EN20b","2022_Feb_16_1021","circle","relaxed_first","MainTask",80,"Fixation","Go","relaxed",1,0.349705447793895,"post_correct_resp",94.0476190476191
274.2296209108,0.1,"AM04EN20b","2022_Feb_16_1021","circle","relaxed_first","MainTask",80,"Target","Go","relaxed",1,0.349705447793895,"post_correct_resp",94.0476190476191
274.329709735902,1.24970544779389,"AM04EN20b","2022_Feb_16_1021","circle","relaxed_first","MainTask",80,"ITI","Go","relaxed",1,0.349705447793895,"post_correct_resp",94.0476190476191
274.579326358594,0,"AM04EN20b","2022_Feb_16_1021","circle","relaxed_first","MainTask",80,"Response","Go","relaxed",1,0.349705447793895,"post_correct_resp",94.0476190476191
275.614174677698,0.5,"AM04EN20b","2022_Feb_16_1021","circle","relaxed_first","MainTask",81,"Fixation","Go","relaxed",1,0.358403598510449,"post_correct_resp",94.0476190476191
276.097882345391,0.1,"AM04EN20b","2022_Feb_16_1021","circle","relaxed_first","MainTask",81,"Target","Go","relaxed",1,0.358403598510449,"post_correct_resp",94.0476190476191
276.19796708658,1.25840359851045,"AM04EN20b","2022_Feb_16_1021","circle","relaxed_first","MainTask",81,"ITI","Go","relaxed",1,0.358403598510449,"post_correct_resp",94.0476190476191
276.456285943901,0,"AM04EN20b","2022_Feb_16_1021","circle","relaxed_first","MainTask",81,"Response","Go","relaxed",1,0.358403598510449,"post_correct_resp",94.0476190476191
277.499088266481,0.5,"AM04EN20b","2022_Feb_16_1021","circle","relaxed_first","MainTask",82,"Fixation","Go","relaxed",1,0.364433203961198,"post_correct_resp",94.0476190476191
277.982817520568,0.1,"AM04EN20b","2022_Feb_16_1021","circle","relaxed_first","MainTask",82,"Target","Go","relaxed",1,0.364433203961198,"post_correct_resp",94.0476190476191
278.08290342859,1.2644332039612,"AM04EN20b","2022_Feb_16_1021","circle","relaxed_first","MainTask",82,"ITI","Go","relaxed",1,0.364433203961198,"post_correct_resp",94.0476190476191
278.34725072453,0,"AM04EN20b","2022_Feb_16_1021","circle","relaxed_first","MainTask",82,"Response","Go","relaxed",1,0.364433203961198,"post_correct_resp",94.0476190476191
279.384010898212,0.5,"AM04EN20b","2022_Feb_16_1021","circle","relaxed_first","MainTask",83,"Fixation","NoGo","relaxed",1,NA,"post_correct_resp",94.0476190476191
279.867753570871,0.1,"AM04EN20b","2022_Feb_16_1021","circle","relaxed_first","MainTask",83,"Target","NoGo","relaxed",1,NA,"post_correct_resp",94.0476190476191
279.967839478893,1.5,"AM04EN20b","2022_Feb_16_1021","circle","relaxed_first","MainTask",83,"ITI","NoGo","relaxed",1,NA,"post_correct_resp",94.0476190476191
281.469115555769,0.5,"AM04EN20b","2022_Feb_16_1021","circle","relaxed_first","MainTask",84,"Fixation","NoGo","relaxed",1,NA,"post_correct_inh",94.0476190476191
281.9528608538,0.1,"AM04EN20b","2022_Feb_16_1021","circle","relaxed_first","MainTask",84,"Target","NoGo","relaxed",1,NA,"post_correct_inh",94.0476190476191
282.052945594989,1.5,"AM04EN20b","2022_Feb_16_1021","circle","relaxed_first","MainTask",84,"ITI","NoGo","relaxed",1,NA,"post_correct_inh",94.0476190476191
283.554227214319,0.5,"AM04EN20b","2022_Feb_16_1021","circle","relaxed_first","MainTask",85,"Fixation","Go","relaxed",0,NA,"post_correct_inh",94.0476190476191
284.037968136729,0.1,"AM04EN20b","2022_Feb_16_1021","circle","relaxed_first","MainTask",85,"Target","Go","relaxed",0,NA,"post_correct_inh",94.0476190476191
284.138053169627,1.5,"AM04EN20b","2022_Feb_16_1021","circle","relaxed_first","MainTask",85,"ITI","Go","relaxed",0,NA,"post_correct_inh",94.0476190476191
285.639328371379,0.5,"AM04EN20b","2022_Feb_16_1021","circle","relaxed_first","MainTask",86,"Fixation","NoGo","relaxed",1,NA,"post_error_inh",94.0476190476191
286.123073961118,0.1,"AM04EN20b","2022_Feb_16_1021","circle","relaxed_first","MainTask",86,"Target","NoGo","relaxed",1,NA,"post_error_inh",94.0476190476191
286.223158118891,1.5,"AM04EN20b","2022_Feb_16_1021","circle","relaxed_first","MainTask",86,"ITI","NoGo","relaxed",1,NA,"post_error_inh",94.0476190476191
287.724437404557,0.5,"AM04EN20b","2022_Feb_16_1021","circle","relaxed_first","MainTask",87,"Fixation","Go","relaxed",1,0.33487355185207,"post_correct_inh",94.0476190476191
288.208185911376,0.1,"AM04EN20b","2022_Feb_16_1021","circle","relaxed_first","MainTask",87,"Target","Go","relaxed",1,0.33487355185207,"post_correct_inh",94.0476190476191
288.30826540182,1.23487355185207,"AM04EN20b","2022_Feb_16_1021","circle","relaxed_first","MainTask",87,"ITI","Go","relaxed",1,0.33487355185207,"post_correct_inh",94.0476190476191
288.543059463228,0,"AM04EN20b","2022_Feb_16_1021","circle","relaxed_first","MainTask",87,"Response","Go","relaxed",1,0.33487355185207,"post_correct_inh",94.0476190476191
289.59269242157,0.5,"AM04EN20b","2022_Feb_16_1021","circle","relaxed_first","MainTask",88,"Fixation","Go","relaxed",1,0.476548276953508,"post_correct_resp",94.0476190476191
290.076437427893,0.1,"AM04EN20b","2022_Feb_16_1021","circle","relaxed_first","MainTask",88,"Target","Go","relaxed",1,0.476548276953508,"post_correct_resp",94.0476190476191
290.176522460791,1.37654827695351,"AM04EN20b","2022_Feb_16_1021","circle","relaxed_first","MainTask",88,"ITI","Go","relaxed",1,0.476548276953508,"post_correct_resp",94.0476190476191
290.552985704847,0,"AM04EN20b","2022_Feb_16_1021","circle","relaxed_first","MainTask",88,"Response","Go","relaxed",1,0.476548276953508,"post_correct_resp",94.0476190476191
291.594397455138,0.5,"AM04EN20b","2022_Feb_16_1021","circle","relaxed_first","MainTask",89,"Fixation","Go","relaxed",1,0.414807975881558,"post_correct_resp",94.0476190476191
292.078139544381,0.1,"AM04EN20b","2022_Feb_16_1021","circle","relaxed_first","MainTask",89,"Target","Go","relaxed",1,0.414807975881558,"post_correct_resp",94.0476190476191
292.178227494359,1.31480797588156,"AM04EN20b","2022_Feb_16_1021","circle","relaxed_first","MainTask",89,"ITI","Go","relaxed",1,0.414807975881558,"post_correct_resp",94.0476190476191
292.492947520263,0,"AM04EN20b","2022_Feb_16_1021","circle","relaxed_first","MainTask",89,"Response","Go","relaxed",1,0.414807975881558,"post_correct_resp",94.0476190476191
293.529375730182,0.5,"AM04EN20b","2022_Feb_16_1021","circle","relaxed_first","MainTask",90,"Fixation","Go","relaxed",1,0.344792792477165,"post_correct_resp",94.0476190476191
294.013117819423,0.1,"AM04EN20b","2022_Feb_16_1021","circle","relaxed_first","MainTask",90,"Target","Go","relaxed",1,0.344792792477165,"post_correct_resp",94.0476190476191
294.113203727445,1.24479279247716,"AM04EN20b","2022_Feb_16_1021","circle","relaxed_first","MainTask",90,"ITI","Go","relaxed",1,0.344792792477165,"post_correct_resp",94.0476190476191
294.3579106119,0,"AM04EN20b","2022_Feb_16_1021","circle","relaxed_first","MainTask",90,"Response","Go","relaxed",1,0.344792792477165,"post_correct_resp",94.0476190476191
295.397630455487,0.5,"AM04EN20b","2022_Feb_16_1021","circle","relaxed_first","MainTask",91,"Fixation","NoGo","relaxed",1,NA,"post_correct_resp",94.0476190476191
295.881375753518,0.1,"AM04EN20b","2022_Feb_16_1021","circle","relaxed_first","MainTask",91,"Target","NoGo","relaxed",1,NA,"post_correct_resp",94.0476190476191
295.981459619583,1.5,"AM04EN20b","2022_Feb_16_1021","circle","relaxed_first","MainTask",91,"ITI","NoGo","relaxed",1,NA,"post_correct_resp",94.0476190476191
297.482736571584,0.5,"AM04EN20b","2022_Feb_16_1021","circle","relaxed_first","MainTask",92,"Fixation","NoGo","relaxed",1,NA,"post_correct_inh",94.0476190476191
297.966481286198,0.1,"AM04EN20b","2022_Feb_16_1021","circle","relaxed_first","MainTask",92,"Target","NoGo","relaxed",1,NA,"post_correct_inh",94.0476190476191
298.066566902512,1.5,"AM04EN20b","2022_Feb_16_1021","circle","relaxed_first","MainTask",92,"ITI","NoGo","relaxed",1,NA,"post_correct_inh",94.0476190476191
299.567845313053,0.5,"AM04EN20b","2022_Feb_16_1021","circle","relaxed_first","MainTask",93,"Fixation","NoGo","relaxed",1,NA,"post_correct_inh",94.0476190476191
300.051587402296,0.1,"AM04EN20b","2022_Feb_16_1021","circle","relaxed_first","MainTask",93,"Target","NoGo","relaxed",1,NA,"post_correct_inh",94.0476190476191
300.151673310317,1.5,"AM04EN20b","2022_Feb_16_1021","circle","relaxed_first","MainTask",93,"ITI","NoGo","relaxed",1,NA,"post_correct_inh",94.0476190476191
301.652952304275,0.5,"AM04EN20b","2022_Feb_16_1021","circle","relaxed_first","MainTask",94,"Fixation","Go","relaxed",1,0.419112419907833,"post_correct_inh",94.0476190476191
302.136695852057,0.1,"AM04EN20b","2022_Feb_16_1021","circle","relaxed_first","MainTask",94,"Target","Go","relaxed",1,0.419112419907833,"post_correct_inh",94.0476190476191
302.236779134706,1.31911241990783,"AM04EN20b","2022_Feb_16_1021","circle","relaxed_first","MainTask",94,"ITI","Go","relaxed",1,0.419112419907833,"post_correct_inh",94.0476190476191
302.555808271964,0,"AM04EN20b","2022_Feb_16_1021","circle","relaxed_first","MainTask",94,"Response","Go","relaxed",1,0.419112419907833,"post_correct_inh",94.0476190476191
303.604614821394,0.5,"AM04EN20b","2022_Feb_16_1021","circle","relaxed_first","MainTask",95,"Fixation","Go","relaxed",1,0.342356738528906,"post_correct_resp",94.0476190476191
304.088353701848,0.1,"AM04EN20b","2022_Feb_16_1021","circle","relaxed_first","MainTask",95,"Target","Go","relaxed",1,0.342356738528906,"post_correct_resp",94.0476190476191
304.188438151329,1.24235673852891,"AM04EN20b","2022_Feb_16_1021","circle","relaxed_first","MainTask",95,"ITI","Go","relaxed",1,0.342356738528906,"post_correct_resp",94.0476190476191
304.430710440377,0,"AM04EN20b","2022_Feb_16_1021","circle","relaxed_first","MainTask",95,"Response","Go","relaxed",1,0.342356738528906,"post_correct_resp",94.0476190476191
305.472862545706,0.5,"AM04EN20b","2022_Feb_16_1021","circle","relaxed_first","MainTask",96,"Fixation","NoGo","relaxed",1,NA,"post_correct_resp",94.0476190476191
305.956610177402,0.1,"AM04EN20b","2022_Feb_16_1021","circle","relaxed_first","MainTask",96,"Target","NoGo","relaxed",1,NA,"post_correct_resp",94.0476190476191
306.056693751759,1.5,"AM04EN20b","2022_Feb_16_1021","circle","relaxed_first","MainTask",96,"ITI","NoGo","relaxed",1,NA,"post_correct_resp",94.0476190476191
307.5579721623,0.5,"AM04EN20b","2022_Feb_16_1021","circle","relaxed_first","MainTask",97,"Fixation","Go","relaxed",1,0.395892458909657,"post_correct_inh",94.0476190476191
308.041717752039,0.1,"AM04EN20b","2022_Feb_16_1021","circle","relaxed_first","MainTask",97,"Target","Go","relaxed",1,0.395892458909657,"post_correct_inh",94.0476190476191
308.14180074298,1.29589245890966,"AM04EN20b","2022_Feb_16_1021","circle","relaxed_first","MainTask",97,"ITI","Go","relaxed",1,0.395892458909657,"post_correct_inh",94.0476190476191
308.437610210949,0,"AM04EN20b","2022_Feb_16_1021","circle","relaxed_first","MainTask",97,"Response","Go","relaxed",1,0.395892458909657,"post_correct_inh",94.0476190476191
309.476269695762,0.5,"AM04EN20b","2022_Feb_16_1021","circle","relaxed_first","MainTask",98,"Fixation","Go","relaxed",1,0.384566018637088,"post_correct_resp",94.0476190476191
309.960014410377,0.1,"AM04EN20b","2022_Feb_16_1021","circle","relaxed_first","MainTask",98,"Target","Go","relaxed",1,0.384566018637088,"post_correct_resp",94.0476190476191
310.060099443275,1.28456601863709,"AM04EN20b","2022_Feb_16_1021","circle","relaxed_first","MainTask",98,"ITI","Go","relaxed",1,0.384566018637088,"post_correct_resp",94.0476190476191
310.344580429014,0,"AM04EN20b","2022_Feb_16_1021","circle","relaxed_first","MainTask",98,"Response","Go","relaxed",1,0.384566018637088,"post_correct_resp",94.0476190476191
311.394608651769,0.5,"AM04EN20b","2022_Feb_16_1021","circle","relaxed_first","MainTask",99,"Fixation","NoGo","relaxed",1,NA,"post_correct_resp",94.0476190476191
311.878314569212,0.1,"AM04EN20b","2022_Feb_16_1021","circle","relaxed_first","MainTask",99,"Target","NoGo","relaxed",1,NA,"post_correct_resp",94.0476190476191
311.978398726986,1.5,"AM04EN20b","2022_Feb_16_1021","circle","relaxed_first","MainTask",99,"ITI","NoGo","relaxed",1,NA,"post_correct_resp",94.0476190476191
313.47967217849,0.5,"AM04EN20b","2022_Feb_16_1021","circle","relaxed_first","MainTask",100,"Fixation","Go","relaxed",1,0.358070176206638,"post_correct_inh",94.0476190476191
313.963419518477,0.1,"AM04EN20b","2022_Feb_16_1021","circle","relaxed_first","MainTask",100,"Target","Go","relaxed",1,0.358070176206638,"post_correct_inh",94.0476190476191
314.063504259667,1.25807017620664,"AM04EN20b","2022_Feb_16_1021","circle","relaxed_first","MainTask",100,"ITI","Go","relaxed",1,0.358070176206638,"post_correct_inh",94.0476190476191
314.321489694684,0,"AM04EN20b","2022_Feb_16_1021","circle","relaxed_first","MainTask",100,"Response","Go","relaxed",1,0.358070176206638,"post_correct_inh",94.0476190476191
315.364615229785,0.5,"AM04EN20b","2022_Feb_16_1021","circle","relaxed_first","MainTask",101,"Fixation","NoGo","relaxed",1,NA,"post_correct_resp",94.0476190476191
315.848355277071,0.1,"AM04EN20b","2022_Feb_16_1021","circle","relaxed_first","MainTask",101,"Target","NoGo","relaxed",1,NA,"post_correct_resp",94.0476190476191
315.948440601676,1.5,"AM04EN20b","2022_Feb_16_1021","circle","relaxed_first","MainTask",101,"ITI","NoGo","relaxed",1,NA,"post_correct_resp",94.0476190476191
317.449721929298,0.5,"AM04EN20b","2022_Feb_16_1021","circle","relaxed_first","MainTask",102,"Fixation","Go","relaxed",1,0.302946688894735,"post_correct_inh",94.0476190476191
317.933462851708,0.1,"AM04EN20b","2022_Feb_16_1021","circle","relaxed_first","MainTask",102,"Target","Go","relaxed",1,0.302946688894735,"post_correct_inh",94.0476190476191
318.033546717774,1.20294668889474,"AM04EN20b","2022_Feb_16_1021","circle","relaxed_first","MainTask",102,"ITI","Go","relaxed",1,0.302946688894735,"post_correct_inh",94.0476190476191
318.236409540603,0,"AM04EN20b","2022_Feb_16_1021","circle","relaxed_first","MainTask",102,"Response","Go","relaxed",1,0.302946688894735,"post_correct_inh",94.0476190476191
319.284615171444,0.5,"AM04EN20b","2022_Feb_16_1021","circle","relaxed_first","MainTask",103,"Fixation","Go","relaxed",1,0.398999149670999,"post_correct_resp",94.0476190476191
319.768357260686,0.1,"AM04EN20b","2022_Feb_16_1021","circle","relaxed_first","MainTask",103,"Target","Go","relaxed",1,0.398999149670999,"post_correct_resp",94.0476190476191
319.868447544328,1.298999149671,"AM04EN20b","2022_Feb_16_1021","circle","relaxed_first","MainTask",103,"ITI","Go","relaxed",1,0.398999149670999,"post_correct_resp",94.0476190476191
320.167356410357,0,"AM04EN20b","2022_Feb_16_1021","circle","relaxed_first","MainTask",103,"Response","Go","relaxed",1,0.398999149670999,"post_correct_resp",94.0476190476191
321.202916788819,0.5,"AM04EN20b","2022_Feb_16_1021","circle","relaxed_first","MainTask",104,"Fixation","NoGo","relaxed",1,NA,"post_correct_resp",94.0476190476191
321.686655377564,0.1,"AM04EN20b","2022_Feb_16_1021","circle","relaxed_first","MainTask",104,"Target","NoGo","relaxed",1,NA,"post_correct_resp",94.0476190476191
321.786739827045,1.5,"AM04EN20b","2022_Feb_16_1021","circle","relaxed_first","MainTask",104,"ITI","NoGo","relaxed",1,NA,"post_correct_resp",94.0476190476191
323.288029614201,0.5,"AM04EN20b","2022_Feb_16_1021","circle","relaxed_first","MainTask",105,"Fixation","Go","relaxed",1,0.382514727610214,"post_correct_inh",94.0476190476191
323.771761201953,0.1,"AM04EN20b","2022_Feb_16_1021","circle","relaxed_first","MainTask",105,"Target","Go","relaxed",1,0.382514727610214,"post_correct_inh",94.0476190476191
323.871845359727,1.28251472761021,"AM04EN20b","2022_Feb_16_1021","circle","relaxed_first","MainTask",105,"ITI","Go","relaxed",1,0.382514727610214,"post_correct_inh",94.0476190476191
324.154275929563,0,"AM04EN20b","2022_Feb_16_1021","circle","relaxed_first","MainTask",105,"Response","Go","relaxed",1,0.382514727610214,"post_correct_inh",94.0476190476191
325.189635904593,0.5,"AM04EN20b","2022_Feb_16_1021","circle","relaxed_first","MainTask",106,"Fixation","Go","relaxed",1,0.419848399325019,"post_correct_resp",94.0476190476191
325.67337886896,0.1,"AM04EN20b","2022_Feb_16_1021","circle","relaxed_first","MainTask",106,"Target","Go","relaxed",1,0.419848399325019,"post_correct_resp",94.0476190476191
325.773464485274,1.31984839932502,"AM04EN20b","2022_Feb_16_1021","circle","relaxed_first","MainTask",106,"ITI","Go","relaxed",1,0.419848399325019,"post_correct_resp",94.0476190476191
326.093227268285,0,"AM04EN20b","2022_Feb_16_1021","circle","relaxed_first","MainTask",106,"Response","Go","relaxed",1,0.419848399325019,"post_correct_resp",94.0476190476191
327.141296963173,0.5,"AM04EN20b","2022_Feb_16_1021","circle","relaxed_first","MainTask",107,"Fixation","Go","relaxed",1,0.493135088540839,"post_correct_resp",94.0476190476191
327.625039344123,0.1,"AM04EN20b","2022_Feb_16_1021","circle","relaxed_first","MainTask",107,"Target","Go","relaxed",1,0.493135088540839,"post_correct_resp",94.0476190476191
327.725124668728,1.39313508854084,"AM04EN20b","2022_Feb_16_1021","circle","relaxed_first","MainTask",107,"ITI","Go","relaxed",1,0.493135088540839,"post_correct_resp",94.0476190476191
328.118174432664,0,"AM04EN20b","2022_Feb_16_1021","circle","relaxed_first","MainTask",107,"Response","Go","relaxed",1,0.493135088540839,"post_correct_resp",94.0476190476191
329.159677195868,0.5,"AM04EN20b","2022_Feb_16_1021","circle","relaxed_first","MainTask",108,"Fixation","NoGo","relaxed",1,NA,"post_correct_resp",94.0476190476191
329.643422493899,0.1,"AM04EN20b","2022_Feb_16_1021","circle","relaxed_first","MainTask",108,"Target","NoGo","relaxed",1,NA,"post_correct_resp",94.0476190476191
329.74350694338,1.5,"AM04EN20b","2022_Feb_16_1021","circle","relaxed_first","MainTask",108,"ITI","NoGo","relaxed",1,NA,"post_correct_resp",94.0476190476191
331.244787979294,0.5,"AM04EN20b","2022_Feb_16_1021","circle","relaxed_first","MainTask",109,"Fixation","Go","relaxed",1,0.410567415918194,"post_correct_inh",94.0476190476191
331.728528609996,0.1,"AM04EN20b","2022_Feb_16_1021","circle","relaxed_first","MainTask",109,"Target","Go","relaxed",1,0.410567415918194,"post_correct_inh",94.0476190476191
331.828615101434,1.31056741591819,"AM04EN20b","2022_Feb_16_1021","circle","relaxed_first","MainTask",109,"ITI","Go","relaxed",1,0.410567415918194,"post_correct_inh",94.0476190476191
332.139096025914,0,"AM04EN20b","2022_Feb_16_1021","circle","relaxed_first","MainTask",109,"Response","Go","relaxed",1,0.410567415918194,"post_correct_inh",94.0476190476191
333.163082887384,0.5,"AM04EN20b","2022_Feb_16_1021","circle","relaxed_first","MainTask",110,"Fixation","Go","relaxed",1,0.289274915879105,"post_correct_resp",94.0476190476191
333.646828185415,0.1,"AM04EN20b","2022_Feb_16_1021","circle","relaxed_first","MainTask",110,"Target","Go","relaxed",1,0.289274915879105,"post_correct_resp",94.0476190476191
333.746916135393,1.1892749158791,"AM04EN20b","2022_Feb_16_1021","circle","relaxed_first","MainTask",110,"ITI","Go","relaxed",1,0.289274915879105,"post_correct_resp",94.0476190476191
333.936103101294,0,"AM04EN20b","2022_Feb_16_1021","circle","relaxed_first","MainTask",110,"Response","Go","relaxed",1,0.289274915879105,"post_correct_resp",94.0476190476191
334.981296554782,0.5,"AM04EN20b","2022_Feb_16_1021","circle","relaxed_first","MainTask",111,"Fixation","NoGo","relaxed",1,NA,"post_correct_resp",94.0476190476191
335.465041561104,0.1,"AM04EN20b","2022_Feb_16_1021","circle","relaxed_first","MainTask",111,"Target","NoGo","relaxed",1,NA,"post_correct_resp",94.0476190476191
335.565125135461,1.5,"AM04EN20b","2022_Feb_16_1021","circle","relaxed_first","MainTask",111,"ITI","NoGo","relaxed",1,NA,"post_correct_resp",94.0476190476191
337.066406463083,0.5,"AM04EN20b","2022_Feb_16_1021","circle","relaxed_first","MainTask",112,"Fixation","Go","relaxed",1,0.297839756015492,"post_correct_inh",94.0476190476191
337.550147968909,0.1,"AM04EN20b","2022_Feb_16_1021","circle","relaxed_first","MainTask",112,"Target","Go","relaxed",1,0.297839756015492,"post_correct_inh",94.0476190476191
337.650232710099,1.19783975601549,"AM04EN20b","2022_Feb_16_1021","circle","relaxed_first","MainTask",112,"ITI","Go","relaxed",1,0.297839756015492,"post_correct_inh",94.0476190476191
337.847987724925,0,"AM04EN20b","2022_Feb_16_1021","circle","relaxed_first","MainTask",112,"Response","Go","relaxed",1,0.297839756015492,"post_correct_inh",94.0476190476191
338.884615463152,0.5,"AM04EN20b","2022_Feb_16_1021","circle","relaxed_first","MainTask",113,"Fixation","Go","relaxed",1,0.297553006999806,"post_correct_resp",94.0476190476191
339.368361344598,0.1,"AM04EN20b","2022_Feb_16_1021","circle","relaxed_first","MainTask",113,"Target","Go","relaxed",1,0.297553006999806,"post_correct_resp",94.0476190476191
339.468444918956,1.19755300699981,"AM04EN20b","2022_Feb_16_1021","circle","relaxed_first","MainTask",113,"ITI","Go","relaxed",1,0.297553006999806,"post_correct_resp",94.0476190476191
339.665914351598,0,"AM04EN20b","2022_Feb_16_1021","circle","relaxed_first","MainTask",113,"Response","Go","relaxed",1,0.297553006999806,"post_correct_resp",94.0476190476191
340.702864427223,0.5,"AM04EN20b","2022_Feb_16_1021","circle","relaxed_first","MainTask",114,"Fixation","NoGo","relaxed",0,0.348319251126668,"post_correct_resp",94.0476190476191
341.186573845164,0.1,"AM04EN20b","2022_Feb_16_1021","circle","relaxed_first","MainTask",114,"Target","NoGo","relaxed",0,0.348319251126668,"post_correct_resp",94.0476190476191
341.286658878062,1.24831925112667,"AM04EN20b","2022_Feb_16_1021","circle","relaxed_first","MainTask",114,"ITI","NoGo","relaxed",0,0.348319251126668,"post_correct_resp",94.0476190476191
341.534893096291,0,"AM04EN20b","2022_Feb_16_1021","circle","relaxed_first","MainTask",114,"Response","NoGo","relaxed",0,0.348319251126668,"post_correct_resp",94.0476190476191
342.571087939767,0.5,"AM04EN20b","2022_Feb_16_1021","circle","relaxed_first","MainTask",115,"Fixation","Go","relaxed",1,0.368051258938976,"post_error_resp",94.0476190476191
343.054827987054,0.1,"AM04EN20b","2022_Feb_16_1021","circle","relaxed_first","MainTask",115,"Target","Go","relaxed",1,0.368051258938976,"post_error_resp",94.0476190476191
343.154913895075,1.26805125893898,"AM04EN20b","2022_Feb_16_1021","circle","relaxed_first","MainTask",115,"ITI","Go","relaxed",1,0.368051258938976,"post_error_resp",94.0476190476191
343.422879245993,0,"AM04EN20b","2022_Feb_16_1021","circle","relaxed_first","MainTask",115,"Response","Go","relaxed",1,0.368051258938976,"post_error_resp",94.0476190476191
344.472713774599,0.5,"AM04EN20b","2022_Feb_16_1021","circle","relaxed_first","MainTask",116,"Fixation","Go","relaxed",1,0.562367035822717,"post_correct_resp",94.0476190476191
344.956445362352,0.1,"AM04EN20b","2022_Feb_16_1021","circle","relaxed_first","MainTask",116,"Target","Go","relaxed",1,0.562367035822717,"post_correct_resp",94.0476190476191
345.05653039525,1.46236703582272,"AM04EN20b","2022_Feb_16_1021","circle","relaxed_first","MainTask",116,"ITI","Go","relaxed",1,0.562367035822717,"post_correct_resp",94.0476190476191
345.518812398175,0,"AM04EN20b","2022_Feb_16_1021","circle","relaxed_first","MainTask",116,"Response","Go","relaxed",1,0.562367035822717,"post_correct_resp",94.0476190476191
346.557811139455,0.5,"AM04EN20b","2022_Feb_16_1021","circle","relaxed_first","MainTask",117,"Fixation","Go","relaxed",1,0.512211044941978,"post_correct_resp",94.0476190476191
347.041553520406,0.1,"AM04EN20b","2022_Feb_16_1021","circle","relaxed_first","MainTask",117,"Target","Go","relaxed",1,0.512211044941978,"post_correct_resp",94.0476190476191
347.141641178675,1.41221104494198,"AM04EN20b","2022_Feb_16_1021","circle","relaxed_first","MainTask",117,"ITI","Go","relaxed",1,0.512211044941978,"post_correct_resp",94.0476190476191
347.553764565348,0,"AM04EN20b","2022_Feb_16_1021","circle","relaxed_first","MainTask",117,"Response","Go","relaxed",1,0.512211044941978,"post_correct_resp",94.0476190476191
348.592875322519,0.5,"AM04EN20b","2022_Feb_16_1021","circle","relaxed_first","MainTask",118,"Fixation","Go","relaxed",1,0.489125269647957,"post_correct_resp",94.0476190476191
349.076616536638,0.1,"AM04EN20b","2022_Feb_16_1021","circle","relaxed_first","MainTask",118,"Target","Go","relaxed",1,0.489125269647957,"post_correct_resp",94.0476190476191
349.176702736367,1.38912526964796,"AM04EN20b","2022_Feb_16_1021","circle","relaxed_first","MainTask",118,"ITI","Go","relaxed",1,0.489125269647957,"post_correct_resp",94.0476190476191
349.565741806286,0,"AM04EN20b","2022_Feb_16_1021","circle","relaxed_first","MainTask",118,"Response","Go","relaxed",1,0.489125269647957,"post_correct_resp",94.0476190476191
350.611290268474,0.5,"AM04EN20b","2022_Feb_16_1021","circle","relaxed_first","MainTask",119,"Fixation","NoGo","relaxed",1,NA,"post_correct_resp",94.0476190476191
351.094999978121,0.1,"AM04EN20b","2022_Feb_16_1021","circle","relaxed_first","MainTask",119,"Target","NoGo","relaxed",1,NA,"post_correct_resp",94.0476190476191
351.195087344683,1.5,"AM04EN20b","2022_Feb_16_1021","circle","relaxed_first","MainTask",119,"ITI","NoGo","relaxed",1,NA,"post_correct_resp",94.0476190476191
352.696365755224,0.5,"AM04EN20b","2022_Feb_16_1021","circle","relaxed_first","MainTask",120,"Fixation","Go","relaxed",1,0.393540125171967,"post_correct_inh",94.0476190476191
353.180107552758,0.1,"AM04EN20b","2022_Feb_16_1021","circle","relaxed_first","MainTask",120,"Target","Go","relaxed",1,0.393540125171967,"post_correct_inh",94.0476190476191
353.280191418824,1.29354012517197,"AM04EN20b","2022_Feb_16_1021","circle","relaxed_first","MainTask",120,"ITI","Go","relaxed",1,0.393540125171967,"post_correct_inh",94.0476190476191
353.57364767793,0,"AM04EN20b","2022_Feb_16_1021","circle","relaxed_first","MainTask",120,"Response","Go","relaxed",1,0.393540125171967,"post_correct_inh",94.0476190476191
354.614665038936,0.5,"AM04EN20b","2022_Feb_16_1021","circle","relaxed_first","MainTask",121,"Fixation","NoGo","relaxed",1,NA,"post_correct_resp",94.0476190476191
355.098424922368,0.1,"AM04EN20b","2022_Feb_16_1021","circle","relaxed_first","MainTask",121,"Target","NoGo","relaxed",1,NA,"post_correct_resp",94.0476190476191
355.198491577659,1.5,"AM04EN20b","2022_Feb_16_1021","circle","relaxed_first","MainTask",121,"ITI","NoGo","relaxed",1,NA,"post_correct_resp",94.0476190476191
356.699770863324,0.5,"AM04EN20b","2022_Feb_16_1021","circle","relaxed_first","MainTask",122,"Fixation","NoGo","relaxed",1,NA,"post_correct_inh",94.0476190476191
357.183535122378,0.1,"AM04EN20b","2022_Feb_16_1021","circle","relaxed_first","MainTask",122,"Target","NoGo","relaxed",1,NA,"post_correct_inh",94.0476190476191
357.28359711034,1.5,"AM04EN20b","2022_Feb_16_1021","circle","relaxed_first","MainTask",122,"ITI","NoGo","relaxed",1,NA,"post_correct_inh",94.0476190476191
358.784874354049,0.5,"AM04EN20b","2022_Feb_16_1021","circle","relaxed_first","MainTask",123,"Fixation","Go","relaxed",1,0.463870061565103,"post_correct_inh",94.0476190476191
359.268642405307,0.1,"AM04EN20b","2022_Feb_16_1021","circle","relaxed_first","MainTask",123,"Target","Go","relaxed",1,0.463870061565103,"post_correct_inh",94.0476190476191
359.368702351312,1.3638700615651,"AM04EN20b","2022_Feb_16_1021","circle","relaxed_first","MainTask",123,"ITI","Go","relaxed",1,0.463870061565103,"post_correct_inh",94.0476190476191
359.732512466872,0,"AM04EN20b","2022_Feb_16_1021","circle","relaxed_first","MainTask",123,"Response","Go","relaxed",1,0.463870061565103,"post_correct_inh",94.0476190476191
360.769898354329,0.5,"AM04EN20b","2022_Feb_16_1021","circle","relaxed_first","MainTask",124,"Fixation","Go","relaxed",1,0.354817048001678,"post_correct_resp",94.0476190476191
361.253648611397,0.1,"AM04EN20b","2022_Feb_16_1021","circle","relaxed_first","MainTask",124,"Target","Go","relaxed",1,0.354817048001678,"post_correct_resp",94.0476190476191
361.35375377215,1.25481704800168,"AM04EN20b","2022_Feb_16_1021","circle","relaxed_first","MainTask",124,"ITI","Go","relaxed",1,0.354817048001678,"post_correct_resp",94.0476190476191
361.608465659398,0,"AM04EN20b","2022_Feb_16_1021","circle","relaxed_first","MainTask",124,"Response","Go","relaxed",1,0.354817048001678,"post_correct_resp",94.0476190476191
362.654835279754,0.5,"AM04EN20b","2022_Feb_16_1021","circle","relaxed_first","MainTask",125,"Fixation","Go","relaxed",1,0.355860195998503,"post_correct_resp",94.0476190476191
363.138576202165,0.1,"AM04EN20b","2022_Feb_16_1021","circle","relaxed_first","MainTask",125,"Target","Go","relaxed",1,0.355860195998503,"post_correct_resp",94.0476190476191
363.238661235062,1.2558601959985,"AM04EN20b","2022_Feb_16_1021","circle","relaxed_first","MainTask",125,"ITI","Go","relaxed",1,0.355860195998503,"post_correct_resp",94.0476190476191
363.494436398163,0,"AM04EN20b","2022_Feb_16_1021","circle","relaxed_first","MainTask",125,"Response","Go","relaxed",1,0.355860195998503,"post_correct_resp",94.0476190476191
364.573131938093,21.0978744692738,"AM04EN20b","2022_Feb_16_1021","circle","relaxed_first","MainTask",125,"Break",NA,NA,NA,NA,NA,94.0476190476191
387.642750981961,0.5,"AM04EN20b","2022_Feb_16_1021","circle","relaxed_first","MainTask",126,"Fixation","Go","relaxed",0,NA,"post_break",94.0476190476191
388.126494238037,0.1,"AM04EN20b","2022_Feb_16_1021","circle","relaxed_first","MainTask",126,"Target","Go","relaxed",0,NA,"post_break",94.0476190476191
388.226554184042,1.5,"AM04EN20b","2022_Feb_16_1021","circle","relaxed_first","MainTask",126,"ITI","Go","relaxed",0,NA,"post_break",94.0476190476191
389.727864682468,0.5,"AM04EN20b","2022_Feb_16_1021","circle","relaxed_first","MainTask",127,"Fixation","Go","relaxed",1,0.385243364736198,"post_error_inh",94.0476190476191
390.211602687797,0.1,"AM04EN20b","2022_Feb_16_1021","circle","relaxed_first","MainTask",127,"Target","Go","relaxed",1,0.385243364736198,"post_error_inh",94.0476190476191
390.311686262155,1.2852433647362,"AM04EN20b","2022_Feb_16_1021","circle","relaxed_first","MainTask",127,"ITI","Go","relaxed",1,0.385243364736198,"post_error_inh",94.0476190476191
390.596846052534,0,"AM04EN20b","2022_Feb_16_1021","circle","relaxed_first","MainTask",127,"Response","Go","relaxed",1,0.385243364736198,"post_error_inh",94.0476190476191
391.646158423726,0.5,"AM04EN20b","2022_Feb_16_1021","circle","relaxed_first","MainTask",128,"Fixation","NoGo","relaxed",1,NA,"post_correct_resp",94.0476190476191
392.129899929552,0.1,"AM04EN20b","2022_Feb_16_1021","circle","relaxed_first","MainTask",128,"Target","NoGo","relaxed",1,NA,"post_correct_resp",94.0476190476191
392.229961917514,1.5,"AM04EN20b","2022_Feb_16_1021","circle","relaxed_first","MainTask",128,"ITI","NoGo","relaxed",1,NA,"post_correct_resp",94.0476190476191
393.731266581779,0.5,"AM04EN20b","2022_Feb_16_1021","circle","relaxed_first","MainTask",129,"Fixation","Go","relaxed",1,0.538766104107708,"post_correct_inh",94.0476190476191
394.215006337357,0.1,"AM04EN20b","2022_Feb_16_1021","circle","relaxed_first","MainTask",129,"Target","Go","relaxed",1,0.538766104107708,"post_correct_inh",94.0476190476191
394.315107705906,1.43876610410771,"AM04EN20b","2022_Feb_16_1021","circle","relaxed_first","MainTask",129,"ITI","Go","relaxed",1,0.538766104107708,"post_correct_inh",94.0476190476191
394.753772441465,0,"AM04EN20b","2022_Feb_16_1021","circle","relaxed_first","MainTask",129,"Response","Go","relaxed",1,0.538766104107708,"post_correct_inh",94.0476190476191
395.799687288967,0.5,"AM04EN20b","2022_Feb_16_1021","circle","relaxed_first","MainTask",130,"Fixation","NoGo","relaxed",1,NA,"post_correct_resp",94.0476190476191
396.283432003582,0.1,"AM04EN20b","2022_Feb_16_1021","circle","relaxed_first","MainTask",130,"Target","NoGo","relaxed",1,NA,"post_correct_resp",94.0476190476191
396.383516453063,1.5,"AM04EN20b","2022_Feb_16_1021","circle","relaxed_first","MainTask",130,"ITI","NoGo","relaxed",1,NA,"post_correct_resp",94.0476190476191
397.884798655808,0.5,"AM04EN20b","2022_Feb_16_1021","circle","relaxed_first","MainTask",131,"Fixation","Go","relaxed",1,0.426136458109795,"post_correct_inh",94.0476190476191
398.368538994803,0.1,"AM04EN20b","2022_Feb_16_1021","circle","relaxed_first","MainTask",131,"Target","Go","relaxed",1,0.426136458109795,"post_correct_inh",94.0476190476191
398.468623735992,1.32613645810979,"AM04EN20b","2022_Feb_16_1021","circle","relaxed_first","MainTask",131,"ITI","Go","relaxed",1,0.426136458109795,"post_correct_inh",94.0476190476191
398.794675452913,0,"AM04EN20b","2022_Feb_16_1021","circle","relaxed_first","MainTask",131,"Response","Go","relaxed",1,0.426136458109795,"post_correct_inh",94.0476190476191
399.836457089016,0.5,"AM04EN20b","2022_Feb_16_1021","circle","relaxed_first","MainTask",132,"Fixation","Go","relaxed",1,0.413428488499449,"post_correct_resp",94.0476190476191
400.320198594842,0.1,"AM04EN20b","2022_Feb_16_1021","circle","relaxed_first","MainTask",132,"Target","Go","relaxed",1,0.413428488499449,"post_correct_resp",94.0476190476191
400.420282169199,1.31342848849945,"AM04EN20b","2022_Feb_16_1021","circle","relaxed_first","MainTask",132,"ITI","Go","relaxed",1,0.413428488499449,"post_correct_resp",94.0476190476191
400.733627083341,0,"AM04EN20b","2022_Feb_16_1021","circle","relaxed_first","MainTask",132,"Response","Go","relaxed",1,0.413428488499449,"post_correct_resp",94.0476190476191
401.771434780642,0.5,"AM04EN20b","2022_Feb_16_1021","circle","relaxed_first","MainTask",133,"Fixation","Go","relaxed",1,0.337433581723417,"post_correct_resp",94.0476190476191
402.255176869885,0.1,"AM04EN20b","2022_Feb_16_1021","circle","relaxed_first","MainTask",133,"Target","Go","relaxed",1,0.337433581723417,"post_correct_resp",94.0476190476191
402.35526219449,1.23743358172342,"AM04EN20b","2022_Feb_16_1021","circle","relaxed_first","MainTask",133,"ITI","Go","relaxed",1,0.337433581723417,"post_correct_resp",94.0476190476191
402.592610451608,0,"AM04EN20b","2022_Feb_16_1021","circle","relaxed_first","MainTask",133,"Response","Go","relaxed",1,0.337433581723417,"post_correct_resp",94.0476190476191
403.63969067278,0.5,"AM04EN20b","2022_Feb_16_1021","circle","relaxed_first","MainTask",134,"Fixation","Go","relaxed",1,0.476113631954831,"post_correct_resp",94.0476190476191
404.123433637147,0.1,"AM04EN20b","2022_Feb_16_1021","circle","relaxed_first","MainTask",134,"Target","Go","relaxed",1,0.476113631954831,"post_correct_resp",94.0476190476191
404.223493583152,1.37611363195483,"AM04EN20b","2022_Feb_16_1021","circle","relaxed_first","MainTask",134,"ITI","Go","relaxed",1,0.476113631954831,"post_correct_resp",94.0476190476191
404.599547269102,0,"AM04EN20b","2022_Feb_16_1021","circle","relaxed_first","MainTask",134,"Response","Go","relaxed",1,0.476113631954831,"post_correct_resp",94.0476190476191
405.641390455604,0.5,"AM04EN20b","2022_Feb_16_1021","circle","relaxed_first","MainTask",135,"Fixation","Go","relaxed",1,0.440362768134946,"post_correct_resp",94.0476190476191
406.12514246292,0.1,"AM04EN20b","2022_Feb_16_1021","circle","relaxed_first","MainTask",135,"Target","Go","relaxed",1,0.440362768134946,"post_correct_resp",94.0476190476191
406.225195116223,1.34036276813495,"AM04EN20b","2022_Feb_16_1021","circle","relaxed_first","MainTask",135,"ITI","Go","relaxed",1,0.440362768134946,"post_correct_resp",94.0476190476191
406.565505231055,0,"AM04EN20b","2022_Feb_16_1021","circle","relaxed_first","MainTask",135,"Response","Go","relaxed",1,0.440362768134946,"post_correct_resp",94.0476190476191
407.609736339676,0.5,"AM04EN20b","2022_Feb_16_1021","circle","relaxed_first","MainTask",136,"Fixation","Go","relaxed",1,0.347984370282575,"post_correct_resp",94.0476190476191
408.093476095254,0.1,"AM04EN20b","2022_Feb_16_1021","circle","relaxed_first","MainTask",136,"Target","Go","relaxed",1,0.347984370282575,"post_correct_resp",94.0476190476191
408.193561419859,1.24798437028257,"AM04EN20b","2022_Feb_16_1021","circle","relaxed_first","MainTask",136,"ITI","Go","relaxed",1,0.347984370282575,"post_correct_resp",94.0476190476191
408.441460465537,0,"AM04EN20b","2022_Feb_16_1021","circle","relaxed_first","MainTask",136,"Response","Go","relaxed",1,0.347984370282575,"post_correct_resp",94.0476190476191
409.477985522529,0.5,"AM04EN20b","2022_Feb_16_1021","circle","relaxed_first","MainTask",137,"Fixation","NoGo","relaxed",1,NA,"post_correct_resp",94.0476190476191
409.961742197173,0.1,"AM04EN20b","2022_Feb_16_1021","circle","relaxed_first","MainTask",137,"Target","NoGo","relaxed",1,NA,"post_correct_resp",94.0476190476191
410.061815853457,1.5,"AM04EN20b","2022_Feb_16_1021","circle","relaxed_first","MainTask",137,"ITI","NoGo","relaxed",1,NA,"post_correct_resp",94.0476190476191
411.563097764495,0.5,"AM04EN20b","2022_Feb_16_1021","circle","relaxed_first","MainTask",138,"Fixation","NoGo","relaxed",1,NA,"post_correct_inh",94.0476190476191
412.046856481096,0.1,"AM04EN20b","2022_Feb_16_1021","circle","relaxed_first","MainTask",138,"Target","NoGo","relaxed",1,NA,"post_correct_inh",94.0476190476191
412.14692401151,1.5,"AM04EN20b","2022_Feb_16_1021","circle","relaxed_first","MainTask",138,"ITI","NoGo","relaxed",1,NA,"post_correct_inh",94.0476190476191
413.648203297175,0.5,"AM04EN20b","2022_Feb_16_1021","circle","relaxed_first","MainTask",139,"Fixation","NoGo","relaxed",1,NA,"post_correct_inh",94.0476190476191
414.131952387411,0.1,"AM04EN20b","2022_Feb_16_1021","circle","relaxed_first","MainTask",139,"Target","NoGo","relaxed",1,NA,"post_correct_inh",94.0476190476191
414.232024001738,1.5,"AM04EN20b","2022_Feb_16_1021","circle","relaxed_first","MainTask",139,"ITI","NoGo","relaxed",1,NA,"post_correct_inh",94.0476190476191
415.733311746937,0.5,"AM04EN20b","2022_Feb_16_1021","circle","relaxed_first","MainTask",140,"Fixation","Go","relaxed",1,0.515246267231305,"post_correct_inh",94.0476190476191
416.217056461552,0.1,"AM04EN20b","2022_Feb_16_1021","circle","relaxed_first","MainTask",140,"Target","Go","relaxed",1,0.515246267231305,"post_correct_inh",94.0476190476191
416.317137410537,1.4152462672313,"AM04EN20b","2022_Feb_16_1021","circle","relaxed_first","MainTask",140,"ITI","Go","relaxed",1,0.515246267231305,"post_correct_inh",94.0476190476191
416.732302728783,0,"AM04EN20b","2022_Feb_16_1021","circle","relaxed_first","MainTask",140,"Response","Go","relaxed",1,0.515246267231305,"post_correct_inh",94.0476190476191
417.768371262672,0.5,"AM04EN20b","2022_Feb_16_1021","circle","relaxed_first","MainTask",141,"Fixation","Go","relaxed",1,0.579129455658403,"post_correct_resp",94.0476190476191
418.252125311945,0.1,"AM04EN20b","2022_Feb_16_1021","circle","relaxed_first","MainTask",141,"Target","Go","relaxed",1,0.579129455658403,"post_correct_resp",94.0476190476191
418.352199259936,1.4791294556584,"AM04EN20b","2022_Feb_16_1021","circle","relaxed_first","MainTask",141,"ITI","Go","relaxed",1,0.579129455658403,"post_correct_resp",94.0476190476191
418.831254767603,0,"AM04EN20b","2022_Feb_16_1021","circle","relaxed_first","MainTask",141,"Response","Go","relaxed",1,0.579129455658403,"post_correct_resp",94.0476190476191
419.870167455008,0.5,"AM04EN20b","2022_Feb_16_1021","circle","relaxed_first","MainTask",142,"Fixation","Go","relaxed",1,0.337325649743434,"post_correct_resp",94.0476190476191
420.35390341838,0.1,"AM04EN20b","2022_Feb_16_1021","circle","relaxed_first","MainTask",142,"Target","Go","relaxed",1,0.337325649743434,"post_correct_resp",94.0476190476191
420.453987576154,1.23732564974343,"AM04EN20b","2022_Feb_16_1021","circle","relaxed_first","MainTask",142,"ITI","Go","relaxed",1,0.337325649743434,"post_correct_resp",94.0476190476191
420.691229068124,0,"AM04EN20b","2022_Feb_16_1021","circle","relaxed_first","MainTask",142,"Response","Go","relaxed",1,0.337325649743434,"post_correct_resp",94.0476190476191
421.738415471028,0.5,"AM04EN20b","2022_Feb_16_1021","circle","relaxed_first","MainTask",143,"Fixation","Go","relaxed",1,0.374031274020126,"post_correct_resp",94.0476190476191
422.222134223626,0.1,"AM04EN20b","2022_Feb_16_1021","circle","relaxed_first","MainTask",143,"Target","Go","relaxed",1,0.374031274020126,"post_correct_resp",94.0476190476191
422.322243468292,1.27403127402013,"AM04EN20b","2022_Feb_16_1021","circle","relaxed_first","MainTask",143,"ITI","Go","relaxed",1,0.374031274020126,"post_correct_resp",94.0476190476191
422.596165497646,0,"AM04EN20b","2022_Feb_16_1021","circle","relaxed_first","MainTask",143,"Response","Go","relaxed",1,0.374031274020126,"post_correct_resp",94.0476190476191
423.640033429742,0.5,"AM04EN20b","2022_Feb_16_1021","circle","relaxed_first","MainTask",144,"Fixation","Go","relaxed",1,0.281354167123027,"post_correct_resp",94.0476190476191
424.123776394109,0.1,"AM04EN20b","2022_Feb_16_1021","circle","relaxed_first","MainTask",144,"Target","Go","relaxed",1,0.281354167123027,"post_correct_resp",94.0476190476191
424.223857926509,1.18135416712303,"AM04EN20b","2022_Feb_16_1021","circle","relaxed_first","MainTask",144,"ITI","Go","relaxed",1,0.281354167123027,"post_correct_resp",94.0476190476191
424.405130561232,0,"AM04EN20b","2022_Feb_16_1021","circle","relaxed_first","MainTask",144,"Response","Go","relaxed",1,0.281354167123027,"post_correct_resp",94.0476190476191
425.441563730187,0.5,"AM04EN20b","2022_Feb_16_1021","circle","relaxed_first","MainTask",145,"Fixation","NoGo","relaxed",1,NA,"post_correct_resp",94.0476190476191
425.925307569678,0.1,"AM04EN20b","2022_Feb_16_1021","circle","relaxed_first","MainTask",145,"Target","NoGo","relaxed",1,NA,"post_correct_resp",94.0476190476191
426.025392602575,1.5,"AM04EN20b","2022_Feb_16_1021","circle","relaxed_first","MainTask",145,"ITI","NoGo","relaxed",1,NA,"post_correct_resp",94.0476190476191
427.5266704297,0.5,"AM04EN20b","2022_Feb_16_1021","circle","relaxed_first","MainTask",146,"Fixation","NoGo","relaxed",1,NA,"post_correct_inh",94.0476190476191
428.010416602855,0.1,"AM04EN20b","2022_Feb_16_1021","circle","relaxed_first","MainTask",146,"Target","NoGo","relaxed",1,NA,"post_correct_inh",94.0476190476191
428.110500468921,1.5,"AM04EN20b","2022_Feb_16_1021","circle","relaxed_first","MainTask",146,"ITI","NoGo","relaxed",1,NA,"post_correct_inh",94.0476190476191
429.611784421914,0.5,"AM04EN20b","2022_Feb_16_1021","circle","relaxed_first","MainTask",147,"Fixation","Go","relaxed",1,0.416484422060421,"post_correct_inh",94.0476190476191
430.095522718952,0.1,"AM04EN20b","2022_Feb_16_1021","circle","relaxed_first","MainTask",147,"Target","Go","relaxed",1,0.416484422060421,"post_correct_inh",94.0476190476191
430.19561971188,1.31648442206042,"AM04EN20b","2022_Feb_16_1021","circle","relaxed_first","MainTask",147,"ITI","Go","relaxed",1,0.416484422060421,"post_correct_inh",94.0476190476191
