Instruction_Condition,MarkCondition,Type,Letter,CorrectResponse,Condition,RandomizeBlocks.thisRepN,RandomizeBlocks.thisTrialN,RandomizeBlocks.thisN,RandomizeBlocks.thisIndex,Practice.thisRepN,Practice.thisTrialN,Practice.thisN,Practice.thisIndex,Trials.thisRepN,Trials.thisTrialN,Trials.thisN,Trials.thisIndex,Target_Mapping,Fixation_practice.started,Fixation_practice.stopped,Target_practice.started,Target_practice.stopped,Target_resp_practice.keys,Target_resp_practice.corr,Target_resp_practice.started,Target_resp_practice.stopped,ITI_resp_practice.started,ITI_resp_practice.stopped,ITI_Duration,ITI.started,ITI.stopped,square2.started,square2.stopped,Target_resp_practice.rt,Instr_Repe.started,Instr_Repe.stopped,Trigger_Target,TriggerResp,Fixation.started,Fixation.stopped,Target.started,Target.stopped,Target_resp.keys,Target_resp.corr,Target_resp.started,Target_resp.stopped,ITI_resp.started,ITI_resp.stopped,square1.started,square1.stopped,showReminder,ReminderErrors.started,ReminderErrors.stopped,ReminderErrorsResp.keys,ReminderErrorsResp.started,ReminderErrorsResp.stopped,break_block.started,break_block.stopped,break_block_resp.keys,Target_resp.rt,break_block_resp.rt,SelfReport.started,SelfReport.stopped,anxious.response,anxious.rt,peppy.response,peppy.rt,peeved.response,peeved.rt,happy.response,happy.rt,tired.response,tired.rt,relaxed.response,relaxed.rt,sad.response,sad.rt,calm.response,calm.rt,exhausted.response,exhausted.rt,irritated.response,irritated.rt,break_cond.started,break_cond.stopped,break_cond_resp.keys,break_cond_resp.rt,participant,session,EEGPort,LogFilesFolder,date,expName,psychopyVersion,frameRate,
IN DIESEM BLOCK KÖNNEN SIE EINFACH ENTSPANNT AN DIE AUFGABE HERANGEHEN. SIE SOLLEN SICH NICHT VERAUSGABEN.,100,Go,go,4,0,0,0,0,0,0,0,0,0,,,,,circle,63.70018596388309,64.20062921426961,64.20062921426961,64.30067778365992,None,0,64.20062921426961,None,64.30067778365992,None,0.9,64.85114633971989,None,64.85114633971989,None,,,,,,,,,,,,,,,,,,,,,,,,,,,,,,,,,,,,,,,,,,,,,,,,,,,,,,,AM04EN20b,1,0xC010,G:\Experimente\CoScience\Tasks\Logfiles\,2022_Feb_16_1021,GoNoGo,2020.1.3,59.977272886450706,
IN DIESEM BLOCK KÖNNEN SIE EINFACH ENTSPANNT AN DIE AUFGABE HERANGEHEN. SIE SOLLEN SICH NICHT VERAUSGABEN.,100,Go,go,4,0,0,0,0,0,0,1,1,0,,,,,,65.75191396946047,66.25233709199165,66.23567093581369,66.33575480187847,None,0,66.23567093581369,None,66.33575480187847,None,0.9,66.936254497773,None,66.936254497773,None,,,,,,,,,,,,,,,,,,,,,,,,,,,,,,,,,,,,,,,,,,,,,,,,,,,,,,,AM04EN20b,1,0xC010,G:\Experimente\CoScience\Tasks\Logfiles\,2022_Feb_16_1021,GoNoGo,2020.1.3,59.977272886450706,
IN DIESEM BLOCK KÖNNEN SIE EINFACH ENTSPANNT AN DIE AUFGABE HERANGEHEN. SIE SOLLEN SICH NICHT VERAUSGABEN.,100,NoGo,nogo,None,0,0,0,0,0,0,2,2,2,,,,,,67.83702416947017,68.33744408321218,68.32078813681619,68.42084924965366,None,1,68.32078813681619,None,68.42084924965366,None,0.9,69.02136148899444,None,69.02136148899444,None,,,,,,,,,,,,,,,,,,,,,,,,,,,,,,,,,,,,,,,,,,,,,,,,,,,,,,,AM04EN20b,1,0xC010,G:\Experimente\CoScience\Tasks\Logfiles\,2022_Feb_16_1021,GoNoGo,2020.1.3,59.977272886450706,
IN DIESEM BLOCK KÖNNEN SIE EINFACH ENTSPANNT AN DIE AUFGABE HERANGEHEN. SIE SOLLEN SICH NICHT VERAUSGABEN.,100,NoGo,nogo,None,0,0,0,0,0,1,0,3,2,,,,,,69.92212970215132,70.42255457492956,70.40586887431255,70.50595711599908,None,1,70.40586887431255,None,70.50595711599908,None,0.9,71.10646906363127,None,71.10646906363127,None,,,,,,,,,,,,,,,,,,,,,,,,,,,,,,,,,,,,,,,,,,,,,,,,,,,,,,,AM04EN20b,1,0xC010,G:\Experimente\CoScience\Tasks\Logfiles\,2022_Feb_16_1021,GoNoGo,2020.1.3,59.977272886450706,
IN DIESEM BLOCK KÖNNEN SIE EINFACH ENTSPANNT AN DIE AUFGABE HERANGEHEN. SIE SOLLEN SICH NICHT VERAUSGABEN.,100,Go,go,4,0,0,0,0,0,1,1,4,1,,,,,,72.00761591384071,72.50803757783069,72.4913577113748,72.59144245256448,None,0,72.4913577113748,None,72.59144245256448,None,0.9,73.19195352507268,None,73.19195352507268,None,,,,,,,,,,,,,,,,,,,,,,,,,,,,,,,,,,,,,,,,,,,,,,,,,,,,,,,AM04EN20b,1,0xC010,G:\Experimente\CoScience\Tasks\Logfiles\,2022_Feb_16_1021,GoNoGo,2020.1.3,59.977272886450706,
IN DIESEM BLOCK KÖNNEN SIE EINFACH ENTSPANNT AN DIE AUFGABE HERANGEHEN. SIE SOLLEN SICH NICHT VERAUSGABEN.,100,Go,go,4,0,0,0,0,0,1,2,5,1,,,,,,74.09272027968927,74.59314486075982,74.57646441088764,74.67654856866102,None,0,74.57646441088764,None,74.67654856866102,None,0.9,75.27706051629411,None,75.27706051629411,None,,,,,,,,,,,,,,,,,,,,,,,,,,,,,,,,,,,,,,,,,,,,,,,,,,,,,,,AM04EN20b,1,0xC010,G:\Experimente\CoScience\Tasks\Logfiles\,2022_Feb_16_1021,GoNoGo,2020.1.3,59.977272886450706,
IN DIESEM BLOCK KÖNNEN SIE EINFACH ENTSPANNT AN DIE AUFGABE HERANGEHEN. SIE SOLLEN SICH NICHT VERAUSGABEN.,100,Go,go,4,0,0,0,0,0,2,0,6,0,,,,,,76.17782931286638,76.6782559358935,76.66157140210908,76.76165468475756,None,0,76.66157140210908,None,76.76165468475756,None,0.9,77.36216488214268,None,77.36216488214268,None,,,,,,,,,,,,,,,,,,,,,,,,,,,,,,,,,,,,,,,,,,,,,,,,,,,,,,,AM04EN20b,1,0xC010,G:\Experimente\CoScience\Tasks\Logfiles\,2022_Feb_16_1021,GoNoGo,2020.1.3,59.977272886450706,
IN DIESEM BLOCK KÖNNEN SIE EINFACH ENTSPANNT AN DIE AUFGABE HERANGEHEN. SIE SOLLEN SICH NICHT VERAUSGABEN.,100,Go,go,4,0,0,0,0,0,2,1,7,1,,,,,,78.26293572067152,78.76336059345067,78.74667693478932,78.84676313451928,None,0,78.74667693478932,None,78.84676313451928,None,0.9,79.44727508215146,None,79.44727508215146,None,,,,,,,,,,,,,,,,,,,,,,,,,,,,,,,,,,,,,,,,,,,,,,,,,,,,,,,AM04EN20b,1,0xC010,G:\Experimente\CoScience\Tasks\Logfiles\,2022_Feb_16_1021,GoNoGo,2020.1.3,59.977272886450706,
IN DIESEM BLOCK KÖNNEN SIE EINFACH ENTSPANNT AN DIE AUFGABE HERANGEHEN. SIE SOLLEN SICH NICHT VERAUSGABEN.,100,NoGo,nogo,None,0,0,0,0,0,2,2,8,2,,,,,,80.34804008652009,80.84846466759063,80.83178567625873,80.9318712925724,4,0,80.83178567625873,None,80.9318712925724,None,1,81.34889333257433,None,81.34889333257433,None,0.48469422432572173,,,,,,,,,,,,,,,,,,,,,,,,,,,,,,,,,,,,,,,,,,,,,,,,,,,,,,AM04EN20b,1,0xC010,G:\Experimente\CoScience\Tasks\Logfiles\,2022_Feb_16_1021,GoNoGo,2020.1.3,59.977272886450706,
IN DIESEM BLOCK KÖNNEN SIE EINFACH ENTSPANNT AN DIE AUFGABE HERANGEHEN. SIE SOLLEN SICH NICHT VERAUSGABEN.,100,Go,go,4,0,0,0,0,0,3,0,9,0,,,,,,82.34976816502513,82.85016853432717,82.83348837616268,82.93357340906005,None,0,82.83348837616268,None,82.93357340906005,None,0.9,83.5340879820651,None,83.5340879820651,None,,,,,,,,,,,,,,,,,,,,,,,,,,,,,,,,,,,,,,,,,,,,,,,,,,,,,,,AM04EN20b,1,0xC010,G:\Experimente\CoScience\Tasks\Logfiles\,2022_Feb_16_1021,GoNoGo,2020.1.3,59.977272886450706,
IN DIESEM BLOCK KÖNNEN SIE EINFACH ENTSPANNT AN DIE AUFGABE HERANGEHEN. SIE SOLLEN SICH NICHT VERAUSGABEN.,100,NoGo,nogo,None,0,0,0,0,0,3,1,10,2,,,,,,84.43486903037683,84.93527873433686,84.9185962425081,85.01868098369778,4,0,84.9185962425081,None,85.01868098369778,None,1,85.35229727384194,None,85.35229727384194,None,0.4168020921297284,,,,,,,,,,,,,,,,,,,,,,,,,,,,,,,,,,,,,,,,,,,,,,,,,,,,,,AM04EN20b,1,0xC010,G:\Experimente\CoScience\Tasks\Logfiles\,2022_Feb_16_1021,GoNoGo,2020.1.3,59.977272886450706,
IN DIESEM BLOCK KÖNNEN SIE EINFACH ENTSPANNT AN DIE AUFGABE HERANGEHEN. SIE SOLLEN SICH NICHT VERAUSGABEN.,100,NoGo,nogo,None,0,0,0,0,0,3,2,11,2,,,,,,86.35314906135591,86.85357685121562,86.83692090481964,86.93697851716024,4,0,86.83692090481964,None,86.93697851716024,None,0.9606054108922762,87.50412839821638,None,87.50412839821638,None,0.6393945891077237,,,,,,,,,,,,,,,,,,,,,,,,,,,,,,,,,,,,,,,,,,,,,,,,,,,,,,AM04EN20b,1,0xC010,G:\Experimente\CoScience\Tasks\Logfiles\,2022_Feb_16_1021,GoNoGo,2020.1.3,59.977272886450706,
IN DIESEM BLOCK KÖNNEN SIE EINFACH ENTSPANNT AN DIE AUFGABE HERANGEHEN. SIE SOLLEN SICH NICHT VERAUSGABEN.,100,Go,go,4,0,0,0,0,0,4,0,12,1,,,,,,88.4716175357371,88.9720704124893,88.95536254206036,89.05544903349801,None,0,88.95536254206036,None,89.05544903349801,None,0.9,89.65595923088222,None,89.65595923088222,None,,,,,,,,,,,,,,,,,,,,,,,,,,,,,,,,,,,,,,,,,,,,,,,,,,,,,,,AM04EN20b,1,0xC010,G:\Experimente\CoScience\Tasks\Logfiles\,2022_Feb_16_1021,GoNoGo,2020.1.3,59.977272886450706,
IN DIESEM BLOCK KÖNNEN SIE EINFACH ENTSPANNT AN DIE AUFGABE HERANGEHEN. SIE SOLLEN SICH NICHT VERAUSGABEN.,100,Go,go,4,0,0,0,0,0,4,1,13,0,,,,,,90.55672423525084,91.05715494219021,91.04046953328088,91.14055456617825,None,0,91.04046953328088,None,91.14055456617825,None,0.9,91.74106534697876,None,91.74106534697876,None,,,,,,,,,,,,,,,,,,,,,,,,,,,,,,,,,,,,,,,,,,,,,,,,,,,,,,,AM04EN20b,1,0xC010,G:\Experimente\CoScience\Tasks\Logfiles\,2022_Feb_16_1021,GoNoGo,2020.1.3,59.977272886450706,
IN DIESEM BLOCK KÖNNEN SIE EINFACH ENTSPANNT AN DIE AUFGABE HERANGEHEN. SIE SOLLEN SICH NICHT VERAUSGABEN.,100,Go,go,4,0,0,0,0,0,4,2,14,1,,,,,,92.64183560209221,93.14225843291479,93.1255785664589,93.2256606822757,None,0,93.1255785664589,None,93.2256606822757,None,0.9,93.82618196456588,None,93.82618196456588,None,,,,,,,,,,,,,,,,,,,,,,,,,,,,,,,,,,,,,,,,,,,,,,,,,,,,,,,AM04EN20b,1,0xC010,G:\Experimente\CoScience\Tasks\Logfiles\,2022_Feb_16_1021,GoNoGo,2020.1.3,59.977272886450706,
IN DIESEM BLOCK KÖNNEN SIE EINFACH ENTSPANNT AN DIE AUFGABE HERANGEHEN. SIE SOLLEN SICH NICHT VERAUSGABEN.,100,Go,go,4,1,0,0,0,0,,,,,0,0,0,0,,,,,,,,,,,,0.9,114.8774420704267,None,114.8774420704267,None,,94.76030349305802,None,101,0,113.7431519346801,114.24354121907709,114.22686485311715,114.32694521868598,None,0,114.22686485311715,None,114.32694521868598,None,114.22686485311715,None,False,None,None,None,None,None,None,None,None,,,,,,,,,,,,,,,,,,,,,,,,,,,,,AM04EN20b,1,0xC010,G:\Experimente\CoScience\Tasks\Logfiles\,2022_Feb_16_1021,GoNoGo,2020.1.3,59.977272886450706,
IN DIESEM BLOCK KÖNNEN SIE EINFACH ENTSPANNT AN DIE AUFGABE HERANGEHEN. SIE SOLLEN SICH NICHT VERAUSGABEN.,100,Go,go,4,1,0,0,0,0,,,,,0,1,1,1,,,,,,,,,,,,0.9,116.97924322179824,None,116.97924322179824,None,,,,101,0,115.79486243777501,116.29534565216363,116.27860569384939,116.378694810659,None,0,116.27860569384939,None,116.378694810659,None,116.27860569384939,None,False,None,None,None,None,None,None,None,None,,,,,,,,,,,,,,,,,,,,,,,,,,,,,AM04EN20b,1,0xC010,G:\Experimente\CoScience\Tasks\Logfiles\,2022_Feb_16_1021,GoNoGo,2020.1.3,59.977272886450706,
IN DIESEM BLOCK KÖNNEN SIE EINFACH ENTSPANNT AN DIE AUFGABE HERANGEHEN. SIE SOLLEN SICH NICHT VERAUSGABEN.,100,NoGo,nogo,None,2,0,0,0,0,,,,,0,2,2,2,,,,,,,,,,,,0.9,119.06434904618709,None,119.06434904618709,None,,,,102,0,117.87997205436841,118.38039459348238,118.36371064311334,118.463796259427,None,1,118.36371064311334,None,118.463796259427,None,118.36371064311334,None,False,None,None,None,None,None,None,None,None,,,,,,,,,,,,,,,,,,,,,,,,,,,,,AM04EN20b,1,0xC010,G:\Experimente\CoScience\Tasks\Logfiles\,2022_Feb_16_1021,GoNoGo,2020.1.3,59.977272886450706,
IN DIESEM BLOCK KÖNNEN SIE EINFACH ENTSPANNT AN DIE AUFGABE HERANGEHEN. SIE SOLLEN SICH NICHT VERAUSGABEN.,100,NoGo,nogo,None,2,0,0,0,0,,,,,1,0,3,2,,,,,,,,,,,,0.9,121.14942336610602,None,121.14942336610602,None,,,,102,0,119.96507904558894,120.46550012616353,120.44882434361989,120.54890529260501,None,1,120.44882434361989,None,120.54890529260501,None,120.44882434361989,None,False,None,None,None,None,None,None,None,None,,,,,,,,,,,,,,,,,,,,,,,,,,,,,AM04EN20b,1,0xC010,G:\Experimente\CoScience\Tasks\Logfiles\,2022_Feb_16_1021,GoNoGo,2020.1.3,59.977272886450706,
IN DIESEM BLOCK KÖNNEN SIE EINFACH ENTSPANNT AN DIE AUFGABE HERANGEHEN. SIE SOLLEN SICH NICHT VERAUSGABEN.,100,Go,go,4,1,0,0,0,0,,,,,1,1,4,1,,,,,,,,,,,,1,123.00146408271667,None,123.00146408271667,None,,,,101,111,122.05018778705835,122.55060770080036,122.53392783434447,122.63401228382554,4,1,122.53392783434447,None,122.63401228382554,None,122.53392783434447,None,False,None,None,None,None,None,None,None,None,0.43364969071626547,,,,,,,,,,,,,,,,,,,,,,,,,,,,AM04EN20b,1,0xC010,G:\Experimente\CoScience\Tasks\Logfiles\,2022_Feb_16_1021,GoNoGo,2020.1.3,59.977272886450706,
IN DIESEM BLOCK KÖNNEN SIE EINFACH ENTSPANNT AN DIE AUFGABE HERANGEHEN. SIE SOLLEN SICH NICHT VERAUSGABEN.,100,Go,go,4,1,0,0,0,0,,,,,1,2,5,1,,,,,,,,,,,,1,124.96980617458394,None,124.96980617458394,None,,,,101,111,124.00184680368147,124.50226759254747,124.48558714267529,124.58567188386496,4,1,124.48558714267529,None,124.58567188386496,None,124.48558714267529,None,False,None,None,None,None,None,None,None,None,0.44194645115203457,,,,,,,,,,,,,,,,,,,,,,,,,,,,AM04EN20b,1,0xC010,G:\Experimente\CoScience\Tasks\Logfiles\,2022_Feb_16_1021,GoNoGo,2020.1.3,59.977272886450706,
IN DIESEM BLOCK KÖNNEN SIE EINFACH ENTSPANNT AN DIE AUFGABE HERANGEHEN. SIE SOLLEN SICH NICHT VERAUSGABEN.,100,Go,go,4,1,0,0,0,0,,,,,2,0,6,1,,,,,,,,,,,,1,126.98818961606776,None,126.98818961606776,None,,,,101,111,125.97018714530077,126.47061435174419,126.45393010966745,126.55401368402454,4,1,126.45393010966745,None,126.55401368402454,None,126.45393010966745,None,False,None,None,None,None,None,None,None,None,0.4915595733482405,,,,,,,,,,,,,,,,,,,,,,,,,,,,AM04EN20b,1,0xC010,G:\Experimente\CoScience\Tasks\Logfiles\,2022_Feb_16_1021,GoNoGo,2020.1.3,59.977272886450706,
IN DIESEM BLOCK KÖNNEN SIE EINFACH ENTSPANNT AN DIE AUFGABE HERANGEHEN. SIE SOLLEN SICH NICHT VERAUSGABEN.,100,Go,go,4,1,0,0,0,0,,,,,2,1,7,1,,,,,,,,,,,,1,129.02325467425635,None,129.02325467425635,None,,,,101,111,127.98856766970403,128.48899312589947,128.4723109257793,128.57239712550836,4,1,128.4723109257793,None,128.57239712550836,None,128.4723109257793,None,False,None,None,None,None,None,None,None,None,0.5021421580850074,,,,,,,,,,,,,,,,,,,,,,,,,,,,AM04EN20b,1,0xC010,G:\Experimente\CoScience\Tasks\Logfiles\,2022_Feb_16_1021,GoNoGo,2020.1.3,59.977272886450706,
IN DIESEM BLOCK KÖNNEN SIE EINFACH ENTSPANNT AN DIE AUFGABE HERANGEHEN. SIE SOLLEN SICH NICHT VERAUSGABEN.,100,Go,go,4,1,0,0,0,0,,,,,2,2,8,0,,,,,,,,,,,,1,130.94155104088713,None,130.94155104088713,None,,,,101,111,130.0236344781415,130.52405643383918,130.50737744250728,130.60746305882094,4,1,130.50737744250728,None,130.60746305882094,None,130.50737744250728,None,False,None,None,None,None,None,None,None,None,0.38509896924915665,,,,,,,,,,,,,,,,,,,,,,,,,,,,AM04EN20b,1,0xC010,G:\Experimente\CoScience\Tasks\Logfiles\,2022_Feb_16_1021,GoNoGo,2020.1.3,59.977272886450706,
IN DIESEM BLOCK KÖNNEN SIE EINFACH ENTSPANNT AN DIE AUFGABE HERANGEHEN. SIE SOLLEN SICH NICHT VERAUSGABEN.,100,Go,go,4,1,0,0,0,0,,,,,3,0,9,0,,,,,,,,,,,,1,132.8431698747254,None,132.8431698747254,None,,,,101,111,131.9419296779397,132.44235542584192,132.42567555938604,132.52575942545172,4,1,132.42567555938604,None,132.52575942545172,None,132.42567555938604,None,False,None,None,None,None,None,None,None,None,0.38068717666010343,,,,,,,,,,,,,,,,,,,,,,,,,,,,AM04EN20b,1,0xC010,G:\Experimente\CoScience\Tasks\Logfiles\,2022_Feb_16_1021,GoNoGo,2020.1.3,59.977272886450706,
IN DIESEM BLOCK KÖNNEN SIE EINFACH ENTSPANNT AN DIE AUFGABE HERANGEHEN. SIE SOLLEN SICH NICHT VERAUSGABEN.,100,Go,go,4,1,0,0,0,0,,,,,3,1,10,0,,,,,,,,,,,,1,134.74478929198085,None,134.74478929198085,None,,,,101,111,133.84355142885852,134.3439987631573,134.3272932263926,134.42737825928998,4,1,134.3272932263926,None,134.42737825928998,None,134.3272932263926,None,False,None,None,None,None,None,None,None,None,0.37602976589005266,,,,,,,,,,,,,,,,,,,,,,,,,,,,AM04EN20b,1,0xC010,G:\Experimente\CoScience\Tasks\Logfiles\,2022_Feb_16_1021,GoNoGo,2020.1.3,59.977272886450706,
IN DIESEM BLOCK KÖNNEN SIE EINFACH ENTSPANNT AN DIE AUFGABE HERANGEHEN. SIE SOLLEN SICH NICHT VERAUSGABEN.,100,Go,go,4,1,0,0,0,0,,,,,3,2,11,1,,,,,,,,,,,,1,136.72981037518002,None,136.72981037518002,None,,,,101,111,135.7451688041574,136.24559192668767,136.22888697333929,136.32901517902792,4,1,136.22888697333929,None,136.32901517902792,None,136.22888697333929,None,False,None,None,None,None,None,None,None,None,0.45738539155263425,,,,,,,,,,,,,,,,,,,,,,,,,,,,AM04EN20b,1,0xC010,G:\Experimente\CoScience\Tasks\Logfiles\,2022_Feb_16_1021,GoNoGo,2020.1.3,59.977272886450706,
IN DIESEM BLOCK KÖNNEN SIE EINFACH ENTSPANNT AN DIE AUFGABE HERANGEHEN. SIE SOLLEN SICH NICHT VERAUSGABEN.,100,NoGo,nogo,None,2,0,0,0,0,,,,,4,0,12,2,,,,,,,,,,,,0.9,138.9145400420348,None,138.9145400420348,None,,,,102,0,137.73018872052398,138.23061213476285,138.21393197659836,138.31401730120433,None,1,138.21393197659836,None,138.31401730120433,None,138.21393197659836,None,False,None,None,None,None,None,None,None,None,,,,,,,,,,,,,,,,,,,,,,,,,,,,,AM04EN20b,1,0xC010,G:\Experimente\CoScience\Tasks\Logfiles\,2022_Feb_16_1021,GoNoGo,2020.1.3,59.977272886450706,
IN DIESEM BLOCK KÖNNEN SIE EINFACH ENTSPANNT AN DIE AUFGABE HERANGEHEN. SIE SOLLEN SICH NICHT VERAUSGABEN.,100,Go,go,4,1,0,0,0,0,,,,,4,1,13,0,,,,,,,,,,,,0.9,140.9996560762056,None,140.9996560762056,None,,,,101,0,139.81529862882599,140.31572145964856,140.29903984294378,140.3991222504692,None,0,140.29903984294378,None,140.3991222504692,None,140.29903984294378,None,False,None,None,None,None,None,None,None,None,,,,,,,,,,,,,,,,,,,,,,,,,,,,,AM04EN20b,1,0xC010,G:\Experimente\CoScience\Tasks\Logfiles\,2022_Feb_16_1021,GoNoGo,2020.1.3,59.977272886450706,
IN DIESEM BLOCK KÖNNEN SIE EINFACH ENTSPANNT AN DIE AUFGABE HERANGEHEN. SIE SOLLEN SICH NICHT VERAUSGABEN.,100,Go,go,4,1,0,0,0,0,,,,,4,2,14,0,,,,,,,,,,,,1,142.8516833742451,None,142.8516833742451,None,,,,101,111,141.90040270296686,142.40083399332252,142.38414712587291,142.484231575354,4,1,142.38414712587291,None,142.484231575354,None,142.38414712587291,None,False,None,None,None,None,None,None,None,None,0.4219956623010148,,,,,,,,,,,,,,,,,,,,,,,,,,,,AM04EN20b,1,0xC010,G:\Experimente\CoScience\Tasks\Logfiles\,2022_Feb_16_1021,GoNoGo,2020.1.3,59.977272886450706,
IN DIESEM BLOCK KÖNNEN SIE EINFACH ENTSPANNT AN DIE AUFGABE HERANGEHEN. SIE SOLLEN SICH NICHT VERAUSGABEN.,100,Go,go,4,1,0,0,0,0,,,,,5,0,15,0,,,,,,,,,,,,1,144.8867487241414,None,144.8867487241414,None,,,,101,111,143.85206580350223,144.3524880509085,144.33580643420373,144.4358920505174,4,1,144.33580643420373,None,144.4358920505174,None,144.33580643420373,None,False,None,None,None,None,None,None,None,None,0.5162902903521172,,,,,,,,,,,,,,,,,,,,,,,,,,,,AM04EN20b,1,0xC010,G:\Experimente\CoScience\Tasks\Logfiles\,2022_Feb_16_1021,GoNoGo,2020.1.3,59.977272886450706,
IN DIESEM BLOCK KÖNNEN SIE EINFACH ENTSPANNT AN DIE AUFGABE HERANGEHEN. SIE SOLLEN SICH NICHT VERAUSGABEN.,100,Go,go,4,1,0,0,0,0,,,,,5,1,16,0,,,,,,,,,,,,1,146.97185571536284,None,146.97185571536284,None,,,,101,111,145.88713144510712,146.3875513588482,146.37086915872806,146.4709556501657,4,1,146.37086915872806,None,146.4709556501657,None,146.37086915872806,None,False,None,None,None,None,None,None,None,None,0.5592206727669691,,,,,,,,,,,,,,,,,,,,,,,,,,,,AM04EN20b,1,0xC010,G:\Experimente\CoScience\Tasks\Logfiles\,2022_Feb_16_1021,GoNoGo,2020.1.3,59.977272886450706,
IN DIESEM BLOCK KÖNNEN SIE EINFACH ENTSPANNT AN DIE AUFGABE HERANGEHEN. SIE SOLLEN SICH NICHT VERAUSGABEN.,100,Go,go,4,1,0,0,0,0,,,,,5,2,17,1,,,,,,,,,,,,1,149.0402810898795,None,149.0402810898795,None,,,,101,111,147.9722343524154,148.47265718323706,148.45597790019747,148.55606351651113,4,1,148.45597790019747,None,148.55606351651113,None,148.45597790019747,None,False,None,None,None,None,None,None,None,None,0.5380371256833314,,,,,,,,,,,,,,,,,,,,,,,,,,,,AM04EN20b,1,0xC010,G:\Experimente\CoScience\Tasks\Logfiles\,2022_Feb_16_1021,GoNoGo,2020.1.3,59.977272886450706,
IN DIESEM BLOCK KÖNNEN SIE EINFACH ENTSPANNT AN DIE AUFGABE HERANGEHEN. SIE SOLLEN SICH NICHT VERAUSGABEN.,100,NoGo,nogo,None,2,0,0,0,0,,,,,6,0,18,2,,,,,,,,,,,,0.9,151.22501863285106,None,151.22501863285106,None,,,,102,0,150.0406880226128,150.5410854748343,150.52440444154672,150.62449034956808,None,1,150.52440444154672,None,150.62449034956808,None,150.52440444154672,None,False,None,None,None,None,None,None,None,None,,,,,,,,,,,,,,,,,,,,,,,,,,,,,AM04EN20b,1,0xC010,G:\Experimente\CoScience\Tasks\Logfiles\,2022_Feb_16_1021,GoNoGo,2020.1.3,59.977272886450706,
IN DIESEM BLOCK KÖNNEN SIE EINFACH ENTSPANNT AN DIE AUFGABE HERANGEHEN. SIE SOLLEN SICH NICHT VERAUSGABEN.,100,NoGo,nogo,None,2,0,0,0,0,,,,,6,1,19,2,,,,,,,,,,,,0.9,153.3101262074888,None,153.3101262074888,None,,,,102,0,152.12576934352546,152.62619159093174,152.60951026593557,152.70959617395692,None,1,152.60951026593557,None,152.70959617395692,None,152.60951026593557,None,False,None,None,None,None,None,None,None,None,,,,,,,,,,,,,,,,,,,,,,,,,,,,,AM04EN20b,1,0xC010,G:\Experimente\CoScience\Tasks\Logfiles\,2022_Feb_16_1021,GoNoGo,2020.1.3,59.977272886450706,
IN DIESEM BLOCK KÖNNEN SIE EINFACH ENTSPANNT AN DIE AUFGABE HERANGEHEN. SIE SOLLEN SICH NICHT VERAUSGABEN.,100,Go,go,4,1,0,0,0,0,,,,,6,2,20,0,,,,,,,,,,,,1,155.22887092939618,None,155.22887092939618,None,,,,101,111,154.21088216890712,154.71130033240115,154.69461871569638,154.79470374859375,4,1,154.69461871569638,None,154.79470374859375,None,154.69461871569638,None,False,None,None,None,None,None,None,None,None,0.4942829597275704,,,,,,,,,,,,,,,,,,,,,,,,,,,,AM04EN20b,1,0xC010,G:\Experimente\CoScience\Tasks\Logfiles\,2022_Feb_16_1021,GoNoGo,2020.1.3,59.977272886450706,
IN DIESEM BLOCK KÖNNEN SIE EINFACH ENTSPANNT AN DIE AUFGABE HERANGEHEN. SIE SOLLEN SICH NICHT VERAUSGABEN.,100,Go,go,4,1,0,0,0,0,,,,,7,0,21,1,,,,,,,,,,,,1,157.1471795477646,None,157.1471795477646,None,,,,101,111,156.2292606513547,156.729682023637,156.7130012820562,156.81308689836987,4,1,156.7130012820562,None,156.81308689836987,None,156.7130012820562,None,False,None,None,None,None,None,None,None,None,0.3978337759999704,,,,,,,,,,,,,,,,,,,,,,,,,,,,AM04EN20b,1,0xC010,G:\Experimente\CoScience\Tasks\Logfiles\,2022_Feb_16_1021,GoNoGo,2020.1.3,59.977272886450706,
IN DIESEM BLOCK KÖNNEN SIE EINFACH ENTSPANNT AN DIE AUFGABE HERANGEHEN. SIE SOLLEN SICH NICHT VERAUSGABEN.,100,Go,go,4,1,0,0,0,0,,,,,7,1,22,1,,,,,,,,,,,,1,159.03211413952613,None,159.03211413952613,None,,,,101,111,158.14755818481717,158.64798189076373,158.63130085747525,158.7313870572052,4,1,158.63130085747525,None,158.7313870572052,None,158.63130085747525,None,False,None,None,None,None,None,None,None,None,0.3575095133292052,,,,,,,,,,,,,,,,,,,,,,,,,,,,AM04EN20b,1,0xC010,G:\Experimente\CoScience\Tasks\Logfiles\,2022_Feb_16_1021,GoNoGo,2020.1.3,59.977272886450706,
IN DIESEM BLOCK KÖNNEN SIE EINFACH ENTSPANNT AN DIE AUFGABE HERANGEHEN. SIE SOLLEN SICH NICHT VERAUSGABEN.,100,Go,go,4,1,0,0,0,0,,,,,7,2,23,0,,,,,,,,,,,,1,160.9337320982413,None,160.9337320982413,None,,,,101,111,160.032492484871,160.53291852448183,160.51623632436167,160.61632252409072,4,1,160.51623632436167,None,160.61632252409072,None,160.51623632436167,None,False,None,None,None,None,None,None,None,None,0.37852241120071994,,,,,,,,,,,,,,,,,,,,,,,,,,,,AM04EN20b,1,0xC010,G:\Experimente\CoScience\Tasks\Logfiles\,2022_Feb_16_1021,GoNoGo,2020.1.3,59.977272886450706,
IN DIESEM BLOCK KÖNNEN SIE EINFACH ENTSPANNT AN DIE AUFGABE HERANGEHEN. SIE SOLLEN SICH NICHT VERAUSGABEN.,100,Go,go,4,1,0,0,0,0,,,,,8,0,24,1,,,,,,,,,,,,1,162.95211495630883,None,162.95211495630883,None,,,,101,111,161.93412182019983,162.4345361914884,162.41785574161622,162.5179404828059,4,1,162.41785574161622,None,162.5179404828059,None,162.41785574161622,None,False,None,None,None,None,None,None,None,None,0.49689112142823433,,,,,,,,,,,,,,,,,,,,,,,,,,,,AM04EN20b,1,0xC010,G:\Experimente\CoScience\Tasks\Logfiles\,2022_Feb_16_1021,GoNoGo,2020.1.3,59.977272886450706,
IN DIESEM BLOCK KÖNNEN SIE EINFACH ENTSPANNT AN DIE AUFGABE HERANGEHEN. SIE SOLLEN SICH NICHT VERAUSGABEN.,100,NoGo,nogo,None,2,0,0,0,0,,,,,8,1,25,2,,,,,,,,,,,,0.9,165.1368539578216,None,165.1368539578216,None,,,,102,0,163.9524935933614,164.45291904955684,164.436218763537,164.53632275745713,None,1,164.436218763537,None,164.53632275745713,None,164.436218763537,None,False,None,None,None,None,None,None,None,None,,,,,,,,,,,,,,,,,,,,,,,,,,,,,AM04EN20b,1,0xC010,G:\Experimente\CoScience\Tasks\Logfiles\,2022_Feb_16_1021,GoNoGo,2020.1.3,59.977272886450706,
IN DIESEM BLOCK KÖNNEN SIE EINFACH ENTSPANNT AN DIE AUFGABE HERANGEHEN. SIE SOLLEN SICH NICHT VERAUSGABEN.,100,Go,go,4,1,0,0,0,0,,,,,8,2,26,1,,,,,,,,,,,,1,167.08896774729874,None,167.08896774729874,None,,,,101,111,166.03760116799822,166.53802633248597,166.52136309338857,166.62143091551116,4,1,166.52136309338857,None,166.62143091551116,None,166.52136309338857,None,False,None,None,None,None,None,None,None,None,0.5342851767100001,,,,,,,,,,,,,,,,,,,,,,,,,,,,AM04EN20b,1,0xC010,G:\Experimente\CoScience\Tasks\Logfiles\,2022_Feb_16_1021,GoNoGo,2020.1.3,59.977272886450706,
IN DIESEM BLOCK KÖNNEN SIE EINFACH ENTSPANNT AN DIE AUFGABE HERANGEHEN. SIE SOLLEN SICH NICHT VERAUSGABEN.,100,Go,go,4,1,0,0,0,0,,,,,9,0,27,0,,,,,,,,,,,,1,168.97392509228848,None,168.97392509228848,None,,,,101,111,168.0893452175187,168.58977154883814,168.57309051554967,168.67317584015564,4,1,168.57309051554967,None,168.67317584015564,None,168.57309051554967,None,False,None,None,None,None,None,None,None,None,0.3554999365542244,,,,,,,,,,,,,,,,,,,,,,,,,,,,AM04EN20b,1,0xC010,G:\Experimente\CoScience\Tasks\Logfiles\,2022_Feb_16_1021,GoNoGo,2020.1.3,59.977272886450706,
IN DIESEM BLOCK KÖNNEN SIE EINFACH ENTSPANNT AN DIE AUFGABE HERANGEHEN. SIE SOLLEN SICH NICHT VERAUSGABEN.,100,NoGo,nogo,None,2,0,0,0,0,,,,,9,1,28,2,,,,,,,,,,,,0.9,171.158641340573,None,171.158641340573,None,,,,102,0,169.9742836014857,170.47470614059966,170.45802656585238,170.55811247387373,None,1,170.45802656585238,None,170.55811247387373,None,170.45802656585238,None,False,None,None,None,None,None,None,None,None,,,,,,,,,,,,,,,,,,,,,,,,,,,,,AM04EN20b,1,0xC010,G:\Experimente\CoScience\Tasks\Logfiles\,2022_Feb_16_1021,GoNoGo,2020.1.3,59.977272886450706,
IN DIESEM BLOCK KÖNNEN SIE EINFACH ENTSPANNT AN DIE AUFGABE HERANGEHEN. SIE SOLLEN SICH NICHT VERAUSGABEN.,100,Go,go,4,1,0,0,0,0,,,,,9,2,29,1,,,,,,,,,,,,1,173.06071290530963,None,173.06071290530963,None,,,,101,111,172.05939088441482,172.55981488206908,172.5431347239055,172.64321858997027,4,1,172.5431347239055,None,172.64321858997027,None,172.5431347239055,None,False,None,None,None,None,None,None,None,None,0.47537473545799,,,,,,,,,,,,,,,,,,,,,,,,,,,,AM04EN20b,1,0xC010,G:\Experimente\CoScience\Tasks\Logfiles\,2022_Feb_16_1021,GoNoGo,2020.1.3,59.977272886450706,
IN DIESEM BLOCK KÖNNEN SIE EINFACH ENTSPANNT AN DIE AUFGABE HERANGEHEN. SIE SOLLEN SICH NICHT VERAUSGABEN.,100,Go,go,4,1,0,0,0,0,,,,,10,0,30,0,,,,,,,,,,,,1,175.01237483901332,None,175.01237483901332,None,,,,101,111,174.0610997101876,174.56151758197302,174.54483684039315,174.64492070645792,4,1,174.54483684039315,None,174.64492070645792,None,174.54483684039315,None,False,None,None,None,None,None,None,None,None,0.42862151901135803,,,,,,,,,,,,,,,,,,,,,,,,,,,,AM04EN20b,1,0xC010,G:\Experimente\CoScience\Tasks\Logfiles\,2022_Feb_16_1021,GoNoGo,2020.1.3,59.977272886450706,
IN DIESEM BLOCK KÖNNEN SIE EINFACH ENTSPANNT AN DIE AUFGABE HERANGEHEN. SIE SOLLEN SICH NICHT VERAUSGABEN.,100,Go,go,4,1,0,0,0,0,,,,,10,1,31,1,,,,,,,,,,,,1,176.93067353930837,None,176.93067353930837,None,,,,101,111,176.01275347606588,176.51317630688845,176.49649731555655,176.59658234845392,4,1,176.49649731555655,None,176.59658234845392,None,176.49649731555655,None,False,None,None,None,None,None,None,None,None,0.38994103121694934,,,,,,,,,,,,,,,,,,,,,,,,,,,,AM04EN20b,1,0xC010,G:\Experimente\CoScience\Tasks\Logfiles\,2022_Feb_16_1021,GoNoGo,2020.1.3,59.977272886450706,
IN DIESEM BLOCK KÖNNEN SIE EINFACH ENTSPANNT AN DIE AUFGABE HERANGEHEN. SIE SOLLEN SICH NICHT VERAUSGABEN.,100,NoGo,nogo,None,2,0,0,0,0,,,,,10,2,32,2,,,,,,,,,,,,0.9,179.11541195740483,None,179.11541195740483,None,,,,102,0,177.9310542183166,178.4314752988912,178.4148041836761,178.5149105112614,None,1,178.4148041836761,None,178.5149105112614,None,178.4148041836761,None,False,None,None,None,None,None,None,None,None,,,,,,,,,,,,,,,,,,,,,,,,,,,,,AM04EN20b,1,0xC010,G:\Experimente\CoScience\Tasks\Logfiles\,2022_Feb_16_1021,GoNoGo,2020.1.3,59.977272886450706,
IN DIESEM BLOCK KÖNNEN SIE EINFACH ENTSPANNT AN DIE AUFGABE HERANGEHEN. SIE SOLLEN SICH NICHT VERAUSGABEN.,100,Go,go,4,1,0,0,0,0,,,,,11,0,33,0,,,,,,,,,,,,1,181.10088723004174,None,181.10088723004174,None,,,,101,111,180.01616120953804,180.51658345694432,180.49991175831383,180.59998658142922,4,1,180.49991175831383,None,180.59998658142922,None,180.49991175831383,None,False,None,None,None,None,None,None,None,None,0.5634183516458506,,,,,,,,,,,,,,,,,,,,,,,,,,,,AM04EN20b,1,0xC010,G:\Experimente\CoScience\Tasks\Logfiles\,2022_Feb_16_1021,GoNoGo,2020.1.3,59.977272886450706,
IN DIESEM BLOCK KÖNNEN SIE EINFACH ENTSPANNT AN DIE AUFGABE HERANGEHEN. SIE SOLLEN SICH NICHT VERAUSGABEN.,100,Go,go,4,1,0,0,0,0,,,,,11,1,34,0,,,,,,,,,,,,1,183.1025890548217,None,183.1025890548217,None,,,,101,111,182.10126761734318,182.60168986474946,182.58502020807464,182.68509619802262,4,1,182.58502020807464,None,182.68509619802262,None,182.58502020807464,None,False,None,None,None,None,None,None,None,None,0.4752618444408654,,,,,,,,,,,,,,,,,,,,,,,,,,,,AM04EN20b,1,0xC010,G:\Experimente\CoScience\Tasks\Logfiles\,2022_Feb_16_1021,GoNoGo,2020.1.3,59.977272886450706,
IN DIESEM BLOCK KÖNNEN SIE EINFACH ENTSPANNT AN DIE AUFGABE HERANGEHEN. SIE SOLLEN SICH NICHT VERAUSGABEN.,100,Go,go,4,1,0,0,0,0,,,,,11,2,35,1,,,,,,,,,,,,1,185.08760867948058,None,185.08760867948058,None,,,,101,111,184.1029709006625,184.6033922729448,184.58671123965632,184.6867971476786,4,1,184.58671123965632,None,184.6867971476786,None,184.58671123965632,None,False,None,None,None,None,None,None,None,None,0.4625249957334745,,,,,,,,,,,,,,,,,,,,,,,,,,,,AM04EN20b,1,0xC010,G:\Experimente\CoScience\Tasks\Logfiles\,2022_Feb_16_1021,GoNoGo,2020.1.3,59.977272886450706,
IN DIESEM BLOCK KÖNNEN SIE EINFACH ENTSPANNT AN DIE AUFGABE HERANGEHEN. SIE SOLLEN SICH NICHT VERAUSGABEN.,100,Go,go,4,1,0,0,0,0,,,,,12,0,36,1,,,,,,,,,,,,1,187.03927148830826,None,187.03927148830826,None,,,,101,111,186.08798760824175,186.58841539810055,186.57173348968809,186.67181939771035,4,1,186.57173348968809,None,186.67181939771035,None,186.57173348968809,None,False,None,None,None,None,None,None,None,None,0.429481182642121,,,,,,,,,,,,,,,,,,,,,,,,,,,,AM04EN20b,1,0xC010,G:\Experimente\CoScience\Tasks\Logfiles\,2022_Feb_16_1021,GoNoGo,2020.1.3,59.977272886450706,
IN DIESEM BLOCK KÖNNEN SIE EINFACH ENTSPANNT AN DIE AUFGABE HERANGEHEN. SIE SOLLEN SICH NICHT VERAUSGABEN.,100,NoGo,nogo,None,2,0,0,0,0,,,,,12,1,37,2,,,,,,,,,,,,0.9,189.2239784019357,None,189.2239784019357,None,,,,102,0,188.03965391756628,188.54007470643228,188.5233933814352,188.62348074799775,None,1,188.5233933814352,None,188.62348074799775,None,188.5233933814352,None,False,None,None,None,None,None,None,None,None,,,,,,,,,,,,,,,,,,,,,,,,,,,,,AM04EN20b,1,0xC010,G:\Experimente\CoScience\Tasks\Logfiles\,2022_Feb_16_1021,GoNoGo,2020.1.3,59.977272886450706,
IN DIESEM BLOCK KÖNNEN SIE EINFACH ENTSPANNT AN DIE AUFGABE HERANGEHEN. SIE SOLLEN SICH NICHT VERAUSGABEN.,100,Go,go,4,1,0,0,0,0,,,,,12,2,38,0,,,,,,,,,,,,1,191.10939985443747,None,191.10939985443747,None,,,,101,111,190.12476032537052,190.62518053082113,190.60850124778062,190.7085856972617,4,1,190.60850124778062,None,190.7085856972617,None,190.60850124778062,None,False,None,None,None,None,None,None,None,None,0.45661557400126185,,,,,,,,,,,,,,,,,,,,,,,,,,,,AM04EN20b,1,0xC010,G:\Experimente\CoScience\Tasks\Logfiles\,2022_Feb_16_1021,GoNoGo,2020.1.3,59.977272886450706,
IN DIESEM BLOCK KÖNNEN SIE EINFACH ENTSPANNT AN DIE AUFGABE HERANGEHEN. SIE SOLLEN SICH NICHT VERAUSGABEN.,100,Go,go,4,1,0,0,0,0,,,,,13,0,39,0,,,,,,,,,,,,1,193.01101868827573,None,193.01101868827573,None,,,,101,111,192.10978257540228,192.61020423939317,192.5935223309807,192.69360736387807,4,1,192.5935223309807,None,192.69360736387807,None,192.5935223309807,None,False,None,None,None,None,None,None,None,None,0.36954626270926383,,,,,,,,,,,,,,,,,,,,,,,,,,,,AM04EN20b,1,0xC010,G:\Experimente\CoScience\Tasks\Logfiles\,2022_Feb_16_1021,GoNoGo,2020.1.3,59.977272886450706,
IN DIESEM BLOCK KÖNNEN SIE EINFACH ENTSPANNT AN DIE AUFGABE HERANGEHEN. SIE SOLLEN SICH NICHT VERAUSGABEN.,100,NoGo,nogo,None,2,0,0,0,0,,,,,13,1,40,2,,,,,,,,,,,,0.9,195.19575710637218,None,195.19575710637218,None,,,,102,0,194.011396741912,194.51182015615086,194.49513999798728,194.59522678113262,None,1,194.49513999798728,None,194.59522678113262,None,194.49513999798728,None,False,None,None,None,None,None,None,None,None,,,,,,,,,,,,,,,,,,,,,,,,,,,,,AM04EN20b,1,0xC010,G:\Experimente\CoScience\Tasks\Logfiles\,2022_Feb_16_1021,GoNoGo,2020.1.3,59.977272886450706,
IN DIESEM BLOCK KÖNNEN SIE EINFACH ENTSPANNT AN DIE AUFGABE HERANGEHEN. SIE SOLLEN SICH NICHT VERAUSGABEN.,100,Go,go,4,1,0,0,0,0,,,,,13,2,41,1,,,,,,,,,,,,1,197.0644633957436,None,197.0644633957436,None,,,,101,111,196.09650460825742,196.59692889762027,196.58024669750012,196.68033231381287,4,1,196.58024669750012,None,196.68033231381287,None,196.58024669750012,None,False,None,None,None,None,None,None,None,None,0.4507630353391505,,,,,,,,,,,,,,,,,,,,,,,,,,,,AM04EN20b,1,0xC010,G:\Experimente\CoScience\Tasks\Logfiles\,2022_Feb_16_1021,GoNoGo,2020.1.3,59.977272886450706,
IN DIESEM BLOCK KÖNNEN SIE EINFACH ENTSPANNT AN DIE AUFGABE HERANGEHEN. SIE SOLLEN SICH NICHT VERAUSGABEN.,100,Go,go,4,1,0,0,0,0,,,,,14,0,42,0,,,,,,,,,,,,1,198.9994437127434,None,198.9994437127434,None,,,,101,111,198.06484290792014,198.56526894753188,198.5485876225348,198.64869161645584,4,1,198.5485876225348,None,198.64869161645584,None,198.5485876225348,None,False,None,None,None,None,None,None,None,None,0.40637177899589005,,,,,,,,,,,,,,,,,,,,,,,,,,,,AM04EN20b,1,0xC010,G:\Experimente\CoScience\Tasks\Logfiles\,2022_Feb_16_1021,GoNoGo,2020.1.3,59.977272886450706,
IN DIESEM BLOCK KÖNNEN SIE EINFACH ENTSPANNT AN DIE AUFGABE HERANGEHEN. SIE SOLLEN SICH NICHT VERAUSGABEN.,100,Go,go,4,1,0,0,0,0,,,,,14,1,43,0,,,,,,,,,,,,1,200.90106167145768,None,200.90106167145768,None,,,,101,111,199.99982176637968,200.50024663915792,200.48356648099434,200.583652097308,4,1,200.48356648099434,None,200.583652097308,None,200.48356648099434,None,False,None,None,None,None,None,None,None,None,0.3773398267549055,,,,,,,,,,,,,,,,,,,,,,,,,,,,AM04EN20b,1,0xC010,G:\Experimente\CoScience\Tasks\Logfiles\,2022_Feb_16_1021,GoNoGo,2020.1.3,59.977272886450706,
IN DIESEM BLOCK KÖNNEN SIE EINFACH ENTSPANNT AN DIE AUFGABE HERANGEHEN. SIE SOLLEN SICH NICHT VERAUSGABEN.,100,Go,go,4,1,0,0,0,0,,,,,14,2,44,0,,,,,,,,,,,,1,202.78599888859208,None,202.78599888859208,None,,,,101,111,201.9014432255908,202.4018797666913,202.3851856065412,202.48527034772997,4,1,202.3851856065412,None,202.48527034772997,None,202.3851856065412,None,False,None,None,None,None,None,None,None,None,0.356687188327669,,,,,,,,,,,,,,,,,,,,,,,,,,,,AM04EN20b,1,0xC010,G:\Experimente\CoScience\Tasks\Logfiles\,2022_Feb_16_1021,GoNoGo,2020.1.3,59.977272886450706,
IN DIESEM BLOCK KÖNNEN SIE EINFACH ENTSPANNT AN DIE AUFGABE HERANGEHEN. SIE SOLLEN SICH NICHT VERAUSGABEN.,100,Go,go,4,1,0,0,0,0,,,,,15,0,45,0,,,,,,,,,,,,1,204.75434098045935,None,204.75434098045935,None,,,,101,111,203.78637956760122,204.2868021067152,204.2701204900104,204.3702034809521,4,1,204.2701204900104,None,204.3702034809521,None,204.2701204900104,None,False,None,None,None,None,None,None,None,None,0.4476983505364842,,,,,,,,,,,,,,,,,,,,,,,,,,,,AM04EN20b,1,0xC010,G:\Experimente\CoScience\Tasks\Logfiles\,2022_Feb_16_1021,GoNoGo,2020.1.3,59.977272886450706,
IN DIESEM BLOCK KÖNNEN SIE EINFACH ENTSPANNT AN DIE AUFGABE HERANGEHEN. SIE SOLLEN SICH NICHT VERAUSGABEN.,100,NoGo,nogo,None,2,0,0,0,0,,,,,15,1,46,2,,,,,,,,,,,,0.9,206.93907531464356,None,206.93907531464356,None,,,,102,0,205.75471670043135,206.2551415732105,206.23844799647577,206.33854790648365,None,1,206.23844799647577,None,206.33854790648365,None,206.23844799647577,None,False,None,None,None,None,None,None,None,None,,,,,,,,,,,,,,,,,,,,,,,,,,,,,AM04EN20b,1,0xC010,G:\Experimente\CoScience\Tasks\Logfiles\,2022_Feb_16_1021,GoNoGo,2020.1.3,59.977272886450706,
IN DIESEM BLOCK KÖNNEN SIE EINFACH ENTSPANNT AN DIE AUFGABE HERANGEHEN. SIE SOLLEN SICH NICHT VERAUSGABEN.,100,Go,go,4,1,0,0,0,0,,,,,15,2,47,1,,,,,,,,,,,,1,208.84114862962815,None,208.84114862962815,None,,,,101,111,207.83982748385733,208.3402497312636,208.32357015651542,208.4236543142888,4,1,208.32357015651542,None,208.4236543142888,None,208.32357015651542,None,False,None,None,None,None,None,None,None,None,0.4811785588744897,,,,,,,,,,,,,,,,,,,,,,,,,,,,AM04EN20b,1,0xC010,G:\Experimente\CoScience\Tasks\Logfiles\,2022_Feb_16_1021,GoNoGo,2020.1.3,59.977272886450706,
IN DIESEM BLOCK KÖNNEN SIE EINFACH ENTSPANNT AN DIE AUFGABE HERANGEHEN. SIE SOLLEN SICH NICHT VERAUSGABEN.,100,Go,go,4,1,0,0,0,0,,,,,16,0,48,1,,,,,,,,,,,,1,210.7761274880868,None,210.7761274880868,None,,,,101,111,209.84152960034498,210.34195213945895,210.32527081446278,210.42535613906875,4,1,210.32527081446278,None,210.42535613906875,None,210.32527081446278,None,False,None,None,None,None,None,None,None,None,0.40441237600589375,,,,,,,,,,,,,,,,,,,,,,,,,,,,AM04EN20b,1,0xC010,G:\Experimente\CoScience\Tasks\Logfiles\,2022_Feb_16_1021,GoNoGo,2020.1.3,59.977272886450706,
IN DIESEM BLOCK KÖNNEN SIE EINFACH ENTSPANNT AN DIE AUFGABE HERANGEHEN. SIE SOLLEN SICH NICHT VERAUSGABEN.,100,Go,go,4,1,0,0,0,0,,,,,16,1,49,1,,,,,,,,,,,,1,212.74446812141468,None,212.74446812141468,None,,,,101,111,211.7765093339276,212.27693187304249,212.2602520065866,212.3603169116277,4,1,212.2602520065866,None,212.3603169116277,None,212.2602520065866,None,False,None,None,None,None,None,None,None,None,0.43541948347228754,,,,,,,,,,,,,,,,,,,,,,,,,,,,AM04EN20b,1,0xC010,G:\Experimente\CoScience\Tasks\Logfiles\,2022_Feb_16_1021,GoNoGo,2020.1.3,59.977272886450706,
IN DIESEM BLOCK KÖNNEN SIE EINFACH ENTSPANNT AN DIE AUFGABE HERANGEHEN. SIE SOLLEN SICH NICHT VERAUSGABEN.,100,NoGo,nogo,None,2,0,0,0,0,,,,,16,2,50,2,,,,,,,,,,,,0.9,214.92920595609485,None,214.92920595609485,None,,,,102,0,213.7448502589632,214.2452716312455,214.228590597957,214.32867592256298,None,1,214.228590597957,None,214.32867592256298,None,214.228590597957,None,False,None,None,None,None,None,None,None,None,,,,,,,,,,,,,,,,,,,,,,,,,,,,,AM04EN20b,1,0xC010,G:\Experimente\CoScience\Tasks\Logfiles\,2022_Feb_16_1021,GoNoGo,2020.1.3,59.977272886450706,
IN DIESEM BLOCK KÖNNEN SIE EINFACH ENTSPANNT AN DIE AUFGABE HERANGEHEN. SIE SOLLEN SICH NICHT VERAUSGABEN.,100,NoGo,nogo,None,2,0,0,0,0,,,,,17,0,51,2,,,,,,,,,,,,0.9,217.0143199483091,None,217.0143199483091,None,,,,102,0,215.82995579164435,216.33037774734294,216.31369788088614,216.41378233036812,None,1,216.31369788088614,None,216.41378233036812,None,216.31369788088614,None,False,None,None,None,None,None,None,None,None,,,,,,,,,,,,,,,,,,,,,,,,,,,,,AM04EN20b,1,0xC010,G:\Experimente\CoScience\Tasks\Logfiles\,2022_Feb_16_1021,GoNoGo,2020.1.3,59.977272886450706,
IN DIESEM BLOCK KÖNNEN SIE EINFACH ENTSPANNT AN DIE AUFGABE HERANGEHEN. SIE SOLLEN SICH NICHT VERAUSGABEN.,100,Go,go,4,1,0,0,0,0,,,,,17,1,52,1,,,,,,,,,,,,1,218.79961902928244,None,218.79961902928244,None,,,,101,111,217.9150604492006,218.41548648881144,218.39880458039988,218.49889194696152,4,1,218.39880458039988,None,218.49889194696152,None,218.39880458039988,None,False,None,None,None,None,None,None,None,None,0.3617273200634372,,,,,,,,,,,,,,,,,,,,,,,,,,,,AM04EN20b,1,0xC010,G:\Experimente\CoScience\Tasks\Logfiles\,2022_Feb_16_1021,GoNoGo,2020.1.3,59.977272886450706,
IN DIESEM BLOCK KÖNNEN SIE EINFACH ENTSPANNT AN DIE AUFGABE HERANGEHEN. SIE SOLLEN SICH NICHT VERAUSGABEN.,100,NoGo,nogo,None,2,0,0,0,0,,,,,17,2,53,2,,,,,,,,,,,,0.9,220.98436386495632,None,220.98436386495632,None,,,,102,0,219.80000058341557,220.30042195569786,220.28374208924197,220.38382653872304,None,1,220.28374208924197,None,220.38382653872304,None,220.28374208924197,None,False,None,None,None,None,None,None,None,None,,,,,,,,,,,,,,,,,,,,,,,,,,,,,AM04EN20b,1,0xC010,G:\Experimente\CoScience\Tasks\Logfiles\,2022_Feb_16_1021,GoNoGo,2020.1.3,59.977272886450706,
IN DIESEM BLOCK KÖNNEN SIE EINFACH ENTSPANNT AN DIE AUFGABE HERANGEHEN. SIE SOLLEN SICH NICHT VERAUSGABEN.,100,Go,go,4,1,0,0,0,0,,,,,18,0,54,1,,,,,,,,,,,,1,222.78637956760122,None,222.78637956760122,None,,,,101,111,221.88510436584784,222.38552982204328,222.36884616338193,222.4689311962793,4,1,222.36884616338193,None,222.4689311962793,None,222.36884616338193,None,False,None,None,None,None,None,None,None,None,0.3715911361587132,,,,,,,,,,,,,,,,,,,,,,,,,,,,AM04EN20b,1,0xC010,G:\Experimente\CoScience\Tasks\Logfiles\,2022_Feb_16_1021,GoNoGo,2020.1.3,59.977272886450706,
IN DIESEM BLOCK KÖNNEN SIE EINFACH ENTSPANNT AN DIE AUFGABE HERANGEHEN. SIE SOLLEN SICH NICHT VERAUSGABEN.,100,Go,go,4,1,0,0,0,0,,,,,18,1,55,0,,,,,,,,,,,,1,224.7713673960825,None,224.7713673960825,None,,,,101,111,223.786724074811,224.28714690563356,224.2704655806374,224.37054944670217,4,1,224.2704655806374,None,224.37054944670217,None,224.2704655806374,None,False,None,None,None,None,None,None,None,None,0.46494967306898616,,,,,,,,,,,,,,,,,,,,,,,,,,,,AM04EN20b,1,0xC010,G:\Experimente\CoScience\Tasks\Logfiles\,2022_Feb_16_1021,GoNoGo,2020.1.3,59.977272886450706,
IN DIESEM BLOCK KÖNNEN SIE EINFACH ENTSPANNT AN DIE AUFGABE HERANGEHEN. SIE SOLLEN SICH NICHT VERAUSGABEN.,100,NoGo,nogo,None,2,0,0,0,0,,,,,18,2,56,2,,,,,,,,,,,,0.9,226.9560941458567,None,226.9560941458567,None,,,,102,0,225.77174632484275,226.27216944737302,226.25548753896055,226.35557548893848,None,1,226.25548753896055,None,226.35557548893848,None,226.25548753896055,None,False,None,None,None,None,None,None,None,None,,,,,,,,,,,,,,,,,,,,,,,,,,,,,AM04EN20b,1,0xC010,G:\Experimente\CoScience\Tasks\Logfiles\,2022_Feb_16_1021,GoNoGo,2020.1.3,59.977272886450706,
IN DIESEM BLOCK KÖNNEN SIE EINFACH ENTSPANNT AN DIE AUFGABE HERANGEHEN. SIE SOLLEN SICH NICHT VERAUSGABEN.,100,NoGo,nogo,None,2,0,0,0,0,,,,,19,0,57,2,,,,,,,,,,,,0.9,229.04121018002752,None,229.04121018002752,None,,,,102,0,227.85685389947957,228.35727527176186,228.34059540530598,228.44068306357622,None,1,228.34059540530598,None,228.44068306357622,None,228.34059540530598,None,False,None,None,None,None,None,None,None,None,,,,,,,,,,,,,,,,,,,,,,,,,,,,,AM04EN20b,1,0xC010,G:\Experimente\CoScience\Tasks\Logfiles\,2022_Feb_16_1021,GoNoGo,2020.1.3,59.977272886450706,
IN DIESEM BLOCK KÖNNEN SIE EINFACH ENTSPANNT AN DIE AUFGABE HERANGEHEN. SIE SOLLEN SICH NICHT VERAUSGABEN.,100,Go,go,4,1,0,0,0,0,,,,,19,1,58,1,,,,,,,,,,,,1,230.99332455292097,None,230.99332455292097,None,,,,101,111,229.94195651508016,230.442381679567,230.42570093798713,230.52578917967276,4,1,230.42570093798713,None,230.52578917967276,None,230.42570093798713,None,False,None,None,None,None,None,None,None,None,0.5235646140627068,,,,,,,,,,,,,,,,,,,,,,,,,,,,AM04EN20b,1,0xC010,G:\Experimente\CoScience\Tasks\Logfiles\,2022_Feb_16_1021,GoNoGo,2020.1.3,59.977272886450706,
IN DIESEM BLOCK KÖNNEN SIE EINFACH ENTSPANNT AN DIE AUFGABE HERANGEHEN. SIE SOLLEN SICH NICHT VERAUSGABEN.,100,Go,go,4,1,0,0,0,0,,,,,19,2,59,1,,,,,,,,,,,,1,233.04507181122972,None,233.04507181122972,None,,,,101,111,231.99370231484863,232.49413564716087,232.4774461543393,232.57753060382038,4,1,232.4774461543393,None,232.57753060382038,None,232.4774461543393,None,False,None,None,None,None,None,None,None,None,0.5267771948474547,,,,,,,,,,,,,,,,,,,,,,,,,,,,AM04EN20b,1,0xC010,G:\Experimente\CoScience\Tasks\Logfiles\,2022_Feb_16_1021,GoNoGo,2020.1.3,59.977272886450706,
IN DIESEM BLOCK KÖNNEN SIE EINFACH ENTSPANNT AN DIE AUFGABE HERANGEHEN. SIE SOLLEN SICH NICHT VERAUSGABEN.,100,NoGo,nogo,None,2,0,0,0,0,,,,,20,0,60,2,,,,,,,,,,,,0.9,235.22981781373528,None,235.22981781373528,None,,,,102,0,234.045448989742,234.54587240397996,234.5291904955675,234.6292979899854,None,1,234.5291904955675,None,234.6292979899854,None,234.5291904955675,None,False,None,None,None,None,None,None,None,None,,,,,,,,,,,,,,,,,,,,,,,,,,,,,AM04EN20b,1,0xC010,G:\Experimente\CoScience\Tasks\Logfiles\,2022_Feb_16_1021,GoNoGo,2020.1.3,59.977272886450706,
IN DIESEM BLOCK KÖNNEN SIE EINFACH ENTSPANNT AN DIE AUFGABE HERANGEHEN. SIE SOLLEN SICH NICHT VERAUSGABEN.,100,Go,go,4,1,0,0,0,0,,,,,20,1,61,0,,,,,,,,,,,,1,236.98175132763572,None,236.98175132763572,None,,,,101,111,236.13055452242224,236.6309788117851,236.61433599225165,236.714382811394,4,1,236.61433599225165,None,236.714382811394,None,236.61433599225165,None,False,None,None,None,None,None,None,None,None,0.33179486506287503,,,,,,,,,,,,,,,,,,,,,,,,,,,,AM04EN20b,1,0xC010,G:\Experimente\CoScience\Tasks\Logfiles\,2022_Feb_16_1021,GoNoGo,2020.1.3,59.977272886450706,
IN DIESEM BLOCK KÖNNEN SIE EINFACH ENTSPANNT AN DIE AUFGABE HERANGEHEN. SIE SOLLEN SICH NICHT VERAUSGABEN.,100,Go,go,4,1,0,0,0,0,,,,,20,2,62,0,,,,,,,,,,,,1,239.05017874410896,None,239.05017874410896,None,,,,101,111,237.98213083981227,238.48255454575883,238.46587322076266,238.5659608790329,4,1,238.46587322076266,None,238.5659608790329,None,238.46587322076266,None,False,None,None,None,None,None,None,None,None,0.5372387207435168,,,,,,,,,,,,,,,,,,,,,,,,,,,,AM04EN20b,1,0xC010,G:\Experimente\CoScience\Tasks\Logfiles\,2022_Feb_16_1021,GoNoGo,2020.1.3,59.977272886450706,
IN DIESEM BLOCK KÖNNEN SIE EINFACH ENTSPANNT AN DIE AUFGABE HERANGEHEN. SIE SOLLEN SICH NICHT VERAUSGABEN.,100,Go,go,4,1,0,0,0,0,,,,,21,0,63,0,,,,,,,,,,,,1,241.00183805243978,None,241.00183805243978,None,,,,101,111,240.05055533920495,240.5509805036918,240.5342994704033,240.6343839198853,4,1,240.5342994704033,None,240.6343839198853,None,240.5342994704033,None,False,None,None,None,None,None,None,None,None,0.4178044009995574,,,,,,,,,,,,,,,,,,,,,,,,,,,,AM04EN20b,1,0xC010,G:\Experimente\CoScience\Tasks\Logfiles\,2022_Feb_16_1021,GoNoGo,2020.1.3,59.977272886450706,
IN DIESEM BLOCK KÖNNEN SIE EINFACH ENTSPANNT AN DIE AUFGABE HERANGEHEN. SIE SOLLEN SICH NICHT VERAUSGABEN.,100,Go,go,4,1,0,0,0,0,,,,,21,1,64,1,,,,,,,,,,,,1,243.00353900209575,None,243.00353900209575,None,,,,101,111,242.00221756461633,242.50263952031491,242.48595790361014,242.5860452701727,4,1,242.48595790361014,None,242.5860452701727,None,242.48595790361014,None,False,None,None,None,None,None,None,None,None,0.4800464399222619,,,,,,,,,,,,,,,,,,,,,,,,,,,,AM04EN20b,1,0xC010,G:\Experimente\CoScience\Tasks\Logfiles\,2022_Feb_16_1021,GoNoGo,2020.1.3,59.977272886450706,
IN DIESEM BLOCK KÖNNEN SIE EINFACH ENTSPANNT AN DIE AUFGABE HERANGEHEN. SIE SOLLEN SICH NICHT VERAUSGABEN.,100,Go,go,4,1,0,0,0,0,,,,,21,2,65,1,,,,,,,,,,,,1,244.9051832145351,None,244.9051832145351,None,,,,101,111,244.0039193893963,244.50434222021886,244.48767285525264,244.58774884520062,4,1,244.48767285525264,None,244.58774884520062,None,244.48767285525264,None,False,None,None,None,None,None,None,None,None,0.3782977959990603,,,,,,,,,,,,,,,,,,,,,,,,,,,,AM04EN20b,1,0xC010,G:\Experimente\CoScience\Tasks\Logfiles\,2022_Feb_16_1021,GoNoGo,2020.1.3,59.977272886450706,
IN DIESEM BLOCK KÖNNEN SIE EINFACH ENTSPANNT AN DIE AUFGABE HERANGEHEN. SIE SOLLEN SICH NICHT VERAUSGABEN.,100,Go,go,4,1,0,0,0,0,,,,,22,0,66,0,,,,,,,,,,,,1,246.72290389532282,None,246.72290389532282,None,,,,101,111,245.9055338476146,246.40595901210145,246.38927914564465,246.48936447025062,4,1,246.38927914564465,None,246.48936447025062,None,246.38927914564465,None,False,None,None,None,None,None,None,None,None,0.30464968050728203,,,,,,,,,,,,,,,,,,,,,,,,,,,,AM04EN20b,1,0xC010,G:\Experimente\CoScience\Tasks\Logfiles\,2022_Feb_16_1021,GoNoGo,2020.1.3,59.977272886450706,
IN DIESEM BLOCK KÖNNEN SIE EINFACH ENTSPANNT AN DIE AUFGABE HERANGEHEN. SIE SOLLEN SICH NICHT VERAUSGABEN.,100,NoGo,nogo,None,2,0,0,0,0,,,,,22,1,67,2,,,,,,,,,,,,0.9,248.90810758776388,None,248.90810758776388,None,,,,102,0,247.72374839013537,248.22417267949822,248.20749222962604,248.3075787210637,None,1,248.20749222962604,None,248.3075787210637,None,248.20749222962604,None,False,None,None,None,None,None,None,None,None,,,,,,,,,,,,,,,,,,,,,,,,,,,,,AM04EN20b,1,0xC010,G:\Experimente\CoScience\Tasks\Logfiles\,2022_Feb_16_1021,GoNoGo,2020.1.3,59.977272886450706,
IN DIESEM BLOCK KÖNNEN SIE EINFACH ENTSPANNT AN DIE AUFGABE HERANGEHEN. SIE SOLLEN SICH NICHT VERAUSGABEN.,100,Go,go,4,1,0,0,0,0,,,,,22,2,68,1,,,,,,,,,,,,1,250.77681766933983,None,250.77681766933983,None,,,,101,111,249.80886646626277,250.30927937901106,250.29259922084748,250.39268221178827,4,1,250.29259922084748,None,250.39268221178827,None,250.29259922084748,None,False,None,None,None,None,None,None,None,None,0.43426227762665803,,,,,,,,,,,,,,,,,,,,,,,,,,,,AM04EN20b,1,0xC010,G:\Experimente\CoScience\Tasks\Logfiles\,2022_Feb_16_1021,GoNoGo,2020.1.3,59.977272886450706,
IN DIESEM BLOCK KÖNNEN SIE EINFACH ENTSPANNT AN DIE AUFGABE HERANGEHEN. SIE SOLLEN SICH NICHT VERAUSGABEN.,100,NoGo,nogo,None,2,0,0,0,0,,,,,23,0,69,2,,,,,,,,,,,,0.9,252.96155754597658,None,252.96155754597658,None,,,,102,0,251.77719864005667,252.27762030404665,252.26093927075908,252.36102313682386,None,1,252.26093927075908,None,252.36102313682386,None,252.26093927075908,None,False,None,None,None,None,None,None,None,None,,,,,,,,,,,,,,,,,,,,,,,,,,,,,AM04EN20b,1,0xC010,G:\Experimente\CoScience\Tasks\Logfiles\,2022_Feb_16_1021,GoNoGo,2020.1.3,59.977272886450706,
IN DIESEM BLOCK KÖNNEN SIE EINFACH ENTSPANNT AN DIE AUFGABE HERANGEHEN. SIE SOLLEN SICH NICHT VERAUSGABEN.,100,Go,go,4,1,0,0,0,0,,,,,23,1,70,0,,,,,,,,,,,,1,254.86362240142807,None,254.86362240142807,None,,,,101,111,253.86230446444551,254.36272758697578,254.3460474288122,254.44614879736037,4,1,254.3460474288122,None,254.44614879736037,None,254.3460474288122,None,False,None,None,None,None,None,None,None,None,0.47771627599649946,,,,,,,,,,,,,,,,,,,,,,,,,,,,AM04EN20b,1,0xC010,G:\Experimente\CoScience\Tasks\Logfiles\,2022_Feb_16_1021,GoNoGo,2020.1.3,59.977272886450706,
IN DIESEM BLOCK KÖNNEN SIE EINFACH ENTSPANNT AN DIE AUFGABE HERANGEHEN. SIE SOLLEN SICH NICHT VERAUSGABEN.,100,NoGo,nogo,None,2,0,0,0,0,,,,,23,2,71,2,,,,,,,,,,,,0.9,257.04836577856076,None,257.04836577856076,None,,,,102,0,255.86400949801373,256.36442970346343,256.34774983700754,256.4478377869855,None,1,256.34774983700754,None,256.4478377869855,None,256.34774983700754,None,False,None,None,None,None,None,None,None,None,,,,,,,,,,,,,,,,,,,,,,,,,,,,,AM04EN20b,1,0xC010,G:\Experimente\CoScience\Tasks\Logfiles\,2022_Feb_16_1021,GoNoGo,2020.1.3,59.977272886450706,
IN DIESEM BLOCK KÖNNEN SIE EINFACH ENTSPANNT AN DIE AUFGABE HERANGEHEN. SIE SOLLEN SICH NICHT VERAUSGABEN.,100,Go,go,4,1,0,0,0,0,,,,,24,0,72,1,,,,,,,,,,,,1,258.8336432731394,None,258.8336432731394,None,,,,101,111,257.9491129887383,258.44953611126857,258.43285711993667,258.53294156941774,4,1,258.43285711993667,None,258.53294156941774,None,258.43285711993667,None,False,None,None,None,None,None,None,None,None,0.3598192576901056,,,,,,,,,,,,,,,,,,,,,,,,,,,,AM04EN20b,1,0xC010,G:\Experimente\CoScience\Tasks\Logfiles\,2022_Feb_16_1021,GoNoGo,2020.1.3,59.977272886450706,
IN DIESEM BLOCK KÖNNEN SIE EINFACH ENTSPANNT AN DIE AUFGABE HERANGEHEN. SIE SOLLEN SICH NICHT VERAUSGABEN.,100,Go,go,4,1,0,0,0,0,,,,,24,1,73,1,,,,,,,,,,,,1,260.818691193479,None,260.818691193479,None,,,,101,111,259.8340487473324,260.33447391181926,260.31779492048736,260.41787674459647,4,1,260.31779492048736,None,260.41787674459647,None,260.31779492048736,None,False,None,None,None,None,None,None,None,None,0.46383009756209503,,,,,,,,,,,,,,,,,,,,,,,,,,,,AM04EN20b,1,0xC010,G:\Experimente\CoScience\Tasks\Logfiles\,2022_Feb_16_1021,GoNoGo,2020.1.3,59.977272886450706,
IN DIESEM BLOCK KÖNNEN SIE EINFACH ENTSPANNT AN DIE AUFGABE HERANGEHEN. SIE SOLLEN SICH NICHT VERAUSGABEN.,100,NoGo,nogo,None,2,0,0,0,0,,,,,24,2,74,2,,,,,,,,,,,,0.9,263.0034196935021,None,263.0034196935021,None,,,,102,0,261.81907187248817,262.3194967452673,262.30281571197884,262.40289666096305,None,1,262.30281571197884,None,262.40289666096305,None,262.30281571197884,None,False,None,None,None,None,None,None,None,None,,,,,,,,,,,,,,,,,,,,,,,,,,,,,AM04EN20b,1,0xC010,G:\Experimente\CoScience\Tasks\Logfiles\,2022_Feb_16_1021,GoNoGo,2020.1.3,59.977272886450706,
IN DIESEM BLOCK KÖNNEN SIE EINFACH ENTSPANNT AN DIE AUFGABE HERANGEHEN. SIE SOLLEN SICH NICHT VERAUSGABEN.,100,Go,go,4,1,0,0,0,0,,,,,25,0,75,0,,,,,,,,,,,,1,264.7553730435502,None,264.7553730435502,None,,,,101,111,263.9041806139576,264.4045999442833,264.3879206612437,264.48800656926505,4,1,264.3879206612437,None,264.48800656926505,None,264.3879206612437,None,False,None,None,None,None,None,None,None,None,0.32963097472747904,,,,,,,,,,,,,,,,,,,,,,,,,,,,AM04EN20b,1,0xC010,G:\Experimente\CoScience\Tasks\Logfiles\,2022_Feb_16_1021,GoNoGo,2020.1.3,59.977272886450706,
IN DIESEM BLOCK KÖNNEN SIE EINFACH ENTSPANNT AN DIE AUFGABE HERANGEHEN. SIE SOLLEN SICH NICHT VERAUSGABEN.,100,NoGo,nogo,None,2,0,0,0,0,,,,,25,1,76,2,,,,,,,,,,,,0.9,266.9401170040992,None,266.9401170040992,None,,,,102,0,265.75575255572676,266.2561771367973,266.2394966869251,266.33959455497734,None,1,266.2394966869251,None,266.33959455497734,None,266.2394966869251,None,False,None,None,None,None,None,None,None,None,,,,,,,,,,,,,,,,,,,,,,,,,,,,,AM04EN20b,1,0xC010,G:\Experimente\CoScience\Tasks\Logfiles\,2022_Feb_16_1021,GoNoGo,2020.1.3,59.977272886450706,
IN DIESEM BLOCK KÖNNEN SIE EINFACH ENTSPANNT AN DIE AUFGABE HERANGEHEN. SIE SOLLEN SICH NICHT VERAUSGABEN.,100,NoGo,nogo,None,2,0,0,0,0,,,,,25,2,77,2,,,,,,,,,,,,0.9,269.0252167026192,None,269.0252167026192,None,,,,102,0,267.84086129719617,268.34128412801874,268.32460251131397,268.42467908467825,None,1,268.32460251131397,None,268.42467908467825,None,268.32460251131397,None,False,None,None,None,None,None,None,None,None,,,,,,,,,,,,,,,,,,,,,,,,,,,,,AM04EN20b,1,0xC010,G:\Experimente\CoScience\Tasks\Logfiles\,2022_Feb_16_1021,GoNoGo,2020.1.3,59.977272886450706,
IN DIESEM BLOCK KÖNNEN SIE EINFACH ENTSPANNT AN DIE AUFGABE HERANGEHEN. SIE SOLLEN SICH NICHT VERAUSGABEN.,100,Go,go,4,1,0,0,0,0,,,,,26,0,78,0,,,,,,,,,,,,1,270.7938426264218,None,270.7938426264218,None,,,,101,111,269.9259659547524,270.4263905358239,270.4097077522865,270.5097945354328,4,1,270.4097077522865,None,270.5097945354328,None,270.4097077522865,None,False,None,None,None,None,None,None,None,None,0.3427012457386809,,,,,,,,,,,,,,,,,,,,,,,,,,,,AM04EN20b,1,0xC010,G:\Experimente\CoScience\Tasks\Logfiles\,2022_Feb_16_1021,GoNoGo,2020.1.3,59.977272886450706,
IN DIESEM BLOCK KÖNNEN SIE EINFACH ENTSPANNT AN DIE AUFGABE HERANGEHEN. SIE SOLLEN SICH NICHT VERAUSGABEN.,100,Go,go,4,1,0,0,0,0,,,,,26,1,79,1,,,,,,,,,,,,1,272.7455208957763,None,272.7455208957763,None,,,,101,111,271.7942238888472,272.2946473030861,272.27796539467363,272.3780495524461,4,1,272.27796539467363,None,272.3780495524461,None,272.27796539467363,None,False,None,None,None,None,None,None,None,None,0.4323982631703984,,,,,,,,,,,,,,,,,,,,,,,,,,,,AM04EN20b,1,0xC010,G:\Experimente\CoScience\Tasks\Logfiles\,2022_Feb_16_1021,GoNoGo,2020.1.3,59.977272886450706,
IN DIESEM BLOCK KÖNNEN SIE EINFACH ENTSPANNT AN DIE AUFGABE HERANGEHEN. SIE SOLLEN SICH NICHT VERAUSGABEN.,100,Go,go,4,1,0,0,0,0,,,,,26,2,80,1,,,,,,,,,,,,1,274.61375811859943,None,274.61375811859943,None,,,,101,111,273.74588261376175,274.2463057362929,274.2296209107999,274.3297097359018,4,1,274.2296209107999,None,274.3297097359018,None,274.2296209107999,None,False,None,None,None,None,None,None,None,None,0.34970544779389456,,,,,,,,,,,,,,,,,,,,,,,,,,,,AM04EN20b,1,0xC010,G:\Experimente\CoScience\Tasks\Logfiles\,2022_Feb_16_1021,GoNoGo,2020.1.3,59.977272886450706,
IN DIESEM BLOCK KÖNNEN SIE EINFACH ENTSPANNT AN DIE AUFGABE HERANGEHEN. SIE SOLLEN SICH NICHT VERAUSGABEN.,100,Go,go,4,1,0,0,0,0,,,,,27,0,81,1,,,,,,,,,,,,1,276.49869475231753,None,276.49869475231753,None,,,,101,111,275.61417467769843,276.11456833771626,276.09788234539064,276.1979670865803,4,1,276.09788234539064,None,276.1979670865803,None,276.09788234539064,None,False,None,None,None,None,None,None,None,None,0.35840359851044923,,,,,,,,,,,,,,,,,,,,,,,,,,,,AM04EN20b,1,0xC010,G:\Experimente\CoScience\Tasks\Logfiles\,2022_Feb_16_1021,GoNoGo,2020.1.3,59.977272886450706,
IN DIESEM BLOCK KÖNNEN SIE EINFACH ENTSPANNT AN DIE AUFGABE HERANGEHEN. SIE SOLLEN SICH NICHT VERAUSGABEN.,100,Go,go,4,1,0,0,0,0,,,,,27,1,82,0,,,,,,,,,,,,1,278.38366434904583,None,278.38366434904583,None,,,,101,111,277.4990882664806,277.99949826214925,277.98281752056846,278.0829034285898,4,1,277.98281752056846,None,278.0829034285898,None,277.98281752056846,None,False,None,None,None,None,None,None,None,None,0.36443320396119816,,,,,,,,,,,,,,,,,,,,,,,,,,,,AM04EN20b,1,0xC010,G:\Experimente\CoScience\Tasks\Logfiles\,2022_Feb_16_1021,GoNoGo,2020.1.3,59.977272886450706,
IN DIESEM BLOCK KÖNNEN SIE EINFACH ENTSPANNT AN DIE AUFGABE HERANGEHEN. SIE SOLLEN SICH NICHT VERAUSGABEN.,100,NoGo,nogo,None,2,0,0,0,0,,,,,27,2,83,2,,,,,,,,,,,,0.9,280.5683598860587,None,280.5683598860587,None,,,,102,0,279.3840108982122,279.88443431245105,279.8677535708712,279.96783947889253,None,1,279.8677535708712,None,279.96783947889253,None,279.8677535708712,None,False,None,None,None,None,None,None,None,None,,,,,,,,,,,,,,,,,,,,,,,,,,,,,AM04EN20b,1,0xC010,G:\Experimente\CoScience\Tasks\Logfiles\,2022_Feb_16_1021,GoNoGo,2020.1.3,59.977272886450706,
IN DIESEM BLOCK KÖNNEN SIE EINFACH ENTSPANNT AN DIE AUFGABE HERANGEHEN. SIE SOLLEN SICH NICHT VERAUSGABEN.,100,NoGo,nogo,None,2,0,0,0,0,,,,,28,0,84,2,,,,,,,,,,,,0.9,282.65346629386295,None,282.65346629386295,None,,,,102,0,281.46911555576935,281.9695415953802,281.9528608538003,282.05294559498907,None,1,281.9528608538003,None,282.05294559498907,None,281.9528608538003,None,False,None,None,None,None,None,None,None,None,,,,,,,,,,,,,,,,,,,,,,,,,,,,,AM04EN20b,1,0xC010,G:\Experimente\CoScience\Tasks\Logfiles\,2022_Feb_16_1021,GoNoGo,2020.1.3,59.977272886450706,
IN DIESEM BLOCK KÖNNEN SIE EINFACH ENTSPANNT AN DIE AUFGABE HERANGEHEN. SIE SOLLEN SICH NICHT VERAUSGABEN.,100,Go,go,4,1,0,0,0,0,,,,,28,1,85,1,,,,,,,,,,,,0.9,284.73859428806463,None,284.73859428806463,None,,,,101,0,283.5542272143193,284.054647419769,284.03796813672943,284.1380531696268,None,0,284.03796813672943,None,284.1380531696268,None,284.03796813672943,None,False,None,None,None,None,None,None,None,None,,,,,,,,,,,,,,,,,,,,,,,,,,,,,AM04EN20b,1,0xC010,G:\Experimente\CoScience\Tasks\Logfiles\,2022_Feb_16_1021,GoNoGo,2020.1.3,59.977272886450706,
IN DIESEM BLOCK KÖNNEN SIE EINFACH ENTSPANNT AN DIE AUFGABE HERANGEHEN. SIE SOLLEN SICH NICHT VERAUSGABEN.,100,NoGo,nogo,None,2,0,0,0,0,,,,,28,2,86,2,,,,,,,,,,,,0.9,286.8236794011809,None,286.8236794011809,None,,,,102,0,285.6393283713787,286.13975441098955,286.1230739611183,286.22315811889075,None,1,286.1230739611183,None,286.22315811889075,None,286.1230739611183,None,False,None,None,None,None,None,None,None,None,,,,,,,,,,,,,,,,,,,,,,,,,,,,,AM04EN20b,1,0xC010,G:\Experimente\CoScience\Tasks\Logfiles\,2022_Feb_16_1021,GoNoGo,2020.1.3,59.977272886450706,
IN DIESEM BLOCK KÖNNEN SIE EINFACH ENTSPANNT AN DIE AUFGABE HERANGEHEN. SIE SOLLEN SICH NICHT VERAUSGABEN.,100,Go,go,4,1,0,0,0,0,,,,,29,0,87,0,,,,,,,,,,,,1,288.5923132011021,None,288.5923132011021,None,,,,101,111,287.72443740455674,288.22486490270785,288.20818591137595,288.3082654018199,4,1,288.20818591137595,None,288.3082654018199,None,288.20818591137595,None,False,None,None,None,None,None,None,None,None,0.3348735518520698,,,,,,,,,,,,,,,,,,,,,,,,,,,,AM04EN20b,1,0xC010,G:\Experimente\CoScience\Tasks\Logfiles\,2022_Feb_16_1021,GoNoGo,2020.1.3,59.977272886450706,
IN DIESEM BLOCK KÖNNEN SIE EINFACH ENTSPANNT AN DIE AUFGABE HERANGEHEN. SIE SOLLEN SICH NICHT VERAUSGABEN.,100,Go,go,4,1,0,0,0,0,,,,,29,1,88,0,,,,,,,,,,,,1,290.59401706783774,None,290.59401706783774,None,,,,101,111,289.59269242157006,290.0931184611809,290.0764374278933,290.1765224607907,4,1,290.0764374278933,None,290.1765224607907,None,290.0764374278933,None,False,None,None,None,None,None,None,None,None,0.4765482769535083,,,,,,,,,,,,,,,,,,,,,,,,,,,,AM04EN20b,1,0xC010,G:\Experimente\CoScience\Tasks\Logfiles\,2022_Feb_16_1021,GoNoGo,2020.1.3,59.977272886450706,
IN DIESEM BLOCK KÖNNEN SIE EINFACH ENTSPANNT AN DIE AUFGABE HERANGEHEN. SIE SOLLEN SICH NICHT VERAUSGABEN.,100,Go,go,4,1,0,0,0,0,,,,,29,2,89,0,,,,,,,,,,,,1,292.5289950511724,None,292.5289950511724,None,,,,101,111,291.5943974551383,292.09482845378625,292.078139544381,292.1782274943589,4,1,292.078139544381,None,292.1782274943589,None,292.078139544381,None,False,None,None,None,None,None,None,None,None,0.4148079758815584,,,,,,,,,,,,,,,,,,,,,,,,,,,,AM04EN20b,1,0xC010,G:\Experimente\CoScience\Tasks\Logfiles\,2022_Feb_16_1021,GoNoGo,2020.1.3,59.977272886450706,
IN DIESEM BLOCK KÖNNEN SIE EINFACH ENTSPANNT AN DIE AUFGABE HERANGEHEN. SIE SOLLEN SICH NICHT VERAUSGABEN.,100,Go,go,4,1,0,0,0,0,,,,,30,0,90,0,,,,,,,,,,,,1,294.39726261163287,None,294.39726261163287,None,,,,101,111,293.5293757301815,294.0298081873698,294.0131178194233,294.11320372744467,4,1,294.0131178194233,None,294.11320372744467,None,294.0131178194233,None,False,None,None,None,None,None,None,None,None,0.34479279247716477,,,,,,,,,,,,,,,,,,,,,,,,,,,,AM04EN20b,1,0xC010,G:\Experimente\CoScience\Tasks\Logfiles\,2022_Feb_16_1021,GoNoGo,2020.1.3,59.977272886450706,
IN DIESEM BLOCK KÖNNEN SIE EINFACH ENTSPANNT AN DIE AUFGABE HERANGEHEN. SIE SOLLEN SICH NICHT VERAUSGABEN.,100,NoGo,nogo,None,2,0,0,0,0,,,,,30,1,91,2,,,,,,,,,,,,0.9,296.5819951955682,None,296.5819951955682,None,,,,102,0,295.39763045548716,295.898055619974,295.8813757535181,295.9814596195829,None,1,295.8813757535181,None,295.9814596195829,None,295.8813757535181,None,False,None,None,None,None,None,None,None,None,,,,,,,,,,,,,,,,,,,,,,,,,,,,,AM04EN20b,1,0xC010,G:\Experimente\CoScience\Tasks\Logfiles\,2022_Feb_16_1021,GoNoGo,2020.1.3,59.977272886450706,
IN DIESEM BLOCK KÖNNEN SIE EINFACH ENTSPANNT AN DIE AUFGABE HERANGEHEN. SIE SOLLEN SICH NICHT VERAUSGABEN.,100,NoGo,nogo,None,2,0,0,0,0,,,,,30,2,92,2,,,,,,,,,,,,0.9,298.6671056872856,None,298.6671056872856,None,,,,102,0,297.4827365715837,297.98316056923886,297.96648128619836,298.066566902512,None,1,297.96648128619836,None,298.066566902512,None,297.96648128619836,None,False,None,None,None,None,None,None,None,None,,,,,,,,,,,,,,,,,,,,,,,,,,,,,AM04EN20b,1,0xC010,G:\Experimente\CoScience\Tasks\Logfiles\,2022_Feb_16_1021,GoNoGo,2020.1.3,59.977272886450706,
IN DIESEM BLOCK KÖNNEN SIE EINFACH ENTSPANNT AN DIE AUFGABE HERANGEHEN. SIE SOLLEN SICH NICHT VERAUSGABEN.,100,NoGo,nogo,None,2,0,0,0,0,,,,,31,0,93,2,,,,,,,,,,,,0.9,300.75219371748335,None,300.75219371748335,None,,,,102,0,299.5678453130531,300.06826960241597,300.0515874022958,300.15167331031716,None,1,300.0515874022958,None,300.15167331031716,None,300.0515874022958,None,False,None,None,None,None,None,None,None,None,,,,,,,,,,,,,,,,,,,,,,,,,,,,,AM04EN20b,1,0xC010,G:\Experimente\CoScience\Tasks\Logfiles\,2022_Feb_16_1021,GoNoGo,2020.1.3,59.977272886450706,
IN DIESEM BLOCK KÖNNEN SIE EINFACH ENTSPANNT AN DIE AUFGABE HERANGEHEN. SIE SOLLEN SICH NICHT VERAUSGABEN.,100,Go,go,4,1,0,0,0,0,,,,,31,1,94,1,,,,,,,,,,,,1,302.60423122530483,None,302.60423122530483,None,,,,101,111,301.65295230427455,302.1533751350971,302.1366958520566,302.236779134706,4,1,302.1366958520566,None,302.236779134706,None,302.1366958520566,None,False,None,None,None,None,None,None,None,None,0.4191124199078331,,,,,,,,,,,,,,,,,,,,,,,,,,,,AM04EN20b,1,0xC010,G:\Experimente\CoScience\Tasks\Logfiles\,2022_Feb_16_1021,GoNoGo,2020.1.3,59.977272886450706,
IN DIESEM BLOCK KÖNNEN SIE EINFACH ENTSPANNT AN DIE AUFGABE HERANGEHEN. SIE SOLLEN SICH NICHT VERAUSGABEN.,100,Go,go,4,1,0,0,0,0,,,,,31,2,95,0,,,,,,,,,,,,1,304.47248828427473,None,304.47248828427473,None,,,,101,111,303.6046148213936,304.1050367770922,304.08835370184806,304.18843815132914,4,1,304.08835370184806,None,304.18843815132914,None,304.08835370184806,None,False,None,None,None,None,None,None,None,None,0.34235673852890613,,,,,,,,,,,,,,,,,,,,,,,,,,,,AM04EN20b,1,0xC010,G:\Experimente\CoScience\Tasks\Logfiles\,2022_Feb_16_1021,GoNoGo,2020.1.3,59.977272886450706,
IN DIESEM BLOCK KÖNNEN SIE EINFACH ENTSPANNT AN DIE AUFGABE HERANGEHEN. SIE SOLLEN SICH NICHT VERAUSGABEN.,100,NoGo,nogo,None,2,0,0,0,0,,,,,32,0,96,2,,,,,,,,,,,,0.9,306.6572252438309,None,306.6572252438309,None,,,,102,0,305.47286254570645,305.97330754634095,305.95661017740167,306.05669375175876,None,1,305.95661017740167,None,306.05669375175876,None,305.95661017740167,None,False,None,None,None,None,None,None,None,None,,,,,,,,,,,,,,,,,,,,,,,,,,,,,AM04EN20b,1,0xC010,G:\Experimente\CoScience\Tasks\Logfiles\,2022_Feb_16_1021,GoNoGo,2020.1.3,59.977272886450706,
IN DIESEM BLOCK KÖNNEN SIE EINFACH ENTSPANNT AN DIE AUFGABE HERANGEHEN. SIE SOLLEN SICH NICHT VERAUSGABEN.,100,Go,go,4,1,0,0,0,0,,,,,32,1,97,0,,,,,,,,,,,,1,308.4759056441126,None,308.4759056441126,None,,,,101,111,307.55797216229985,308.0584052029044,308.0417177520394,308.1418007429802,4,1,308.0417177520394,None,308.1418007429802,None,308.0417177520394,None,False,None,None,None,None,None,None,None,None,0.39589245890965685,,,,,,,,,,,,,,,,,,,,,,,,,,,,AM04EN20b,1,0xC010,G:\Experimente\CoScience\Tasks\Logfiles\,2022_Feb_16_1021,GoNoGo,2020.1.3,59.977272886450706,
IN DIESEM BLOCK KÖNNEN SIE EINFACH ENTSPANNT AN DIE AUFGABE HERANGEHEN. SIE SOLLEN SICH NICHT VERAUSGABEN.,100,Go,go,4,1,0,0,0,0,,,,,32,2,98,0,,,,,,,,,,,,1,310.3941897590048,None,310.3941897590048,None,,,,101,111,309.4762696957623,309.97669631878944,309.96001441037697,310.06009944327525,4,1,309.96001441037697,None,310.06009944327525,None,309.96001441037697,None,False,None,None,None,None,None,None,None,None,0.38456601863708784,,,,,,,,,,,,,,,,,,,,,,,,,,,,AM04EN20b,1,0xC010,G:\Experimente\CoScience\Tasks\Logfiles\,2022_Feb_16_1021,GoNoGo,2020.1.3,59.977272886450706,
IN DIESEM BLOCK KÖNNEN SIE EINFACH ENTSPANNT AN DIE AUFGABE HERANGEHEN. SIE SOLLEN SICH NICHT VERAUSGABEN.,100,NoGo,nogo,None,2,0,0,0,0,,,,,33,0,99,2,,,,,,,,,,,,0.9,312.57892788539357,None,312.57892788539357,None,,,,102,0,311.394608651769,311.8949923937125,311.8783145692123,311.9783987269857,None,1,311.8783145692123,None,311.9783987269857,None,311.8783145692123,None,False,None,None,None,None,None,None,None,None,,,,,,,,,,,,,,,,,,,,,,,,,,,,,AM04EN20b,1,0xC010,G:\Experimente\CoScience\Tasks\Logfiles\,2022_Feb_16_1021,GoNoGo,2020.1.3,59.977272886450706,
IN DIESEM BLOCK KÖNNEN SIE EINFACH ENTSPANNT AN DIE AUFGABE HERANGEHEN. SIE SOLLEN SICH NICHT VERAUSGABEN.,100,Go,go,4,1,0,0,0,0,,,,,33,1,100,1,,,,,,,,,,,,1,314.36423309223665,None,314.36423309223665,None,,,,101,111,313.47967217848964,313.98010142688963,313.96341951847717,314.06350425966684,4,1,313.96341951847717,None,314.06350425966684,None,313.96341951847717,None,False,None,None,None,None,None,None,None,None,0.3580701762066383,,,,,,,,,,,,,,,,,,,,,,,,,,,,AM04EN20b,1,0xC010,G:\Experimente\CoScience\Tasks\Logfiles\,2022_Feb_16_1021,GoNoGo,2020.1.3,59.977272886450706,
IN DIESEM BLOCK KÖNNEN SIE EINFACH ENTSPANNT AN DIE AUFGABE HERANGEHEN. SIE SOLLEN SICH NICHT VERAUSGABEN.,100,NoGo,nogo,None,2,0,0,0,0,,,,,33,2,101,2,,,,,,,,,,,,0.9,316.54896071713483,None,316.54896071713483,None,,,,102,0,315.36461522978516,315.86503660206745,315.8483552770713,315.94844060167634,None,1,315.8483552770713,None,315.94844060167634,None,315.8483552770713,None,False,None,None,None,None,None,None,None,None,,,,,,,,,,,,,,,,,,,,,,,,,,,,,AM04EN20b,1,0xC010,G:\Experimente\CoScience\Tasks\Logfiles\,2022_Feb_16_1021,GoNoGo,2020.1.3,59.977272886450706,
IN DIESEM BLOCK KÖNNEN SIE EINFACH ENTSPANNT AN DIE AUFGABE HERANGEHEN. SIE SOLLEN SICH NICHT VERAUSGABEN.,100,Go,go,4,1,0,0,0,0,,,,,34,0,102,0,,,,,,,,,,,,1,318.28423303389445,None,318.28423303389445,None,,,,101,111,317.449721929298,317.950142718164,317.9334628517081,318.0335467177738,4,1,317.9334628517081,None,318.0335467177738,None,317.9334628517081,None,False,None,None,None,None,None,None,None,None,0.3029466888947354,,,,,,,,,,,,,,,,,,,,,,,,,,,,AM04EN20b,1,0xC010,G:\Experimente\CoScience\Tasks\Logfiles\,2022_Feb_16_1021,GoNoGo,2020.1.3,59.977272886450706,
IN DIESEM BLOCK KÖNNEN SIE EINFACH ENTSPANNT AN DIE AUFGABE HERANGEHEN. SIE SOLLEN SICH NICHT VERAUSGABEN.,100,Go,go,4,1,0,0,0,0,,,,,34,1,103,1,,,,,,,,,,,,1,320.2025334844375,None,320.2025334844375,None,,,,101,111,319.2846151714439,319.78503858568274,319.76835726068566,319.86844754432786,4,1,319.76835726068566,None,319.86844754432786,None,319.76835726068566,None,False,None,None,None,None,None,None,None,None,0.39899914967099903,,,,,,,,,,,,,,,,,,,,,,,,,,,,AM04EN20b,1,0xC010,G:\Experimente\CoScience\Tasks\Logfiles\,2022_Feb_16_1021,GoNoGo,2020.1.3,59.977272886450706,
IN DIESEM BLOCK KÖNNEN SIE EINFACH ENTSPANNT AN DIE AUFGABE HERANGEHEN. SIE SOLLEN SICH NICHT VERAUSGABEN.,100,NoGo,nogo,None,2,0,0,0,0,,,,,34,2,104,2,,,,,,,,,,,,0.9,322.38727948694304,None,322.38727948694304,None,,,,102,0,321.2029167888186,321.7033352440203,321.6866553775644,321.7867398270455,None,1,321.6866553775644,None,321.7867398270455,None,321.6866553775644,None,False,None,None,None,None,None,None,None,None,,,,,,,,,,,,,,,,,,,,,,,,,,,,,AM04EN20b,1,0xC010,G:\Experimente\CoScience\Tasks\Logfiles\,2022_Feb_16_1021,GoNoGo,2020.1.3,59.977272886450706,
IN DIESEM BLOCK KÖNNEN SIE EINFACH ENTSPANNT AN DIE AUFGABE HERANGEHEN. SIE SOLLEN SICH NICHT VERAUSGABEN.,100,Go,go,4,1,0,0,0,0,,,,,35,0,105,0,,,,,,,,,,,,1,324.1892563924166,None,324.1892563924166,None,,,,101,111,323.28802961420115,323.78844136011776,323.77176120195327,323.87184535972665,4,1,323.77176120195327,None,323.87184535972665,None,323.77176120195327,None,False,None,None,None,None,None,None,None,None,0.3825147276102143,,,,,,,,,,,,,,,,,,,,,,,,,,,,AM04EN20b,1,0xC010,G:\Experimente\CoScience\Tasks\Logfiles\,2022_Feb_16_1021,GoNoGo,2020.1.3,59.977272886450706,
IN DIESEM BLOCK KÖNNEN SIE EINFACH ENTSPANNT AN DIE AUFGABE HERANGEHEN. SIE SOLLEN SICH NICHT VERAUSGABEN.,100,Go,go,4,1,0,0,0,0,,,,,35,1,106,0,,,,,,,,,,,,1,326.14091599245603,None,326.14091599245603,None,,,,101,111,325.18963590459316,325.69006106908,325.67337886895984,325.7734644852735,4,1,325.67337886895984,None,325.7734644852735,None,325.67337886895984,None,False,None,None,None,None,None,None,None,None,0.4198483993250193,,,,,,,,,,,,,,,,,,,,,,,,,,,,AM04EN20b,1,0xC010,G:\Experimente\CoScience\Tasks\Logfiles\,2022_Feb_16_1021,GoNoGo,2020.1.3,59.977272886450706,
IN DIESEM BLOCK KÖNNEN SIE EINFACH ENTSPANNT AN DIE AUFGABE HERANGEHEN. SIE SOLLEN SICH NICHT VERAUSGABEN.,100,Go,go,4,1,0,0,0,0,,,,,35,2,107,0,,,,,,,,,,,,1,328.15929855881586,None,328.15929855881586,None,,,,101,111,327.14129696317286,327.64171921057914,327.62503934412325,327.7251246687283,4,1,327.62503934412325,None,327.7251246687283,None,327.62503934412325,None,False,None,None,None,None,None,None,None,None,0.4931350885408392,,,,,,,,,,,,,,,,,,,,,,,,,,,,AM04EN20b,1,0xC010,G:\Experimente\CoScience\Tasks\Logfiles\,2022_Feb_16_1021,GoNoGo,2020.1.3,59.977272886450706,
IN DIESEM BLOCK KÖNNEN SIE EINFACH ENTSPANNT AN DIE AUFGABE HERANGEHEN. SIE SOLLEN SICH NICHT VERAUSGABEN.,100,NoGo,nogo,None,2,0,0,0,0,,,,,36,0,108,2,,,,,,,,,,,,0.9,330.344036393496,None,330.344036393496,None,,,,102,0,329.1596771958684,329.660100901815,329.6434224938994,329.74350694338045,None,1,329.6434224938994,None,329.74350694338045,None,329.6434224938994,None,False,None,None,None,None,None,None,None,None,,,,,,,,,,,,,,,,,,,,,,,,,,,,,AM04EN20b,1,0xC010,G:\Experimente\CoScience\Tasks\Logfiles\,2022_Feb_16_1021,GoNoGo,2020.1.3,59.977272886450706,
IN DIESEM BLOCK KÖNNEN SIE EINFACH ENTSPANNT AN DIE AUFGABE HERANGEHEN. SIE SOLLEN SICH NICHT VERAUSGABEN.,100,Go,go,4,1,0,0,0,0,,,,,36,1,109,0,,,,,,,,,,,,1,332.16225472822225,None,332.16225472822225,None,,,,101,111,331.2447879792944,331.7452081847441,331.7285286099959,331.82861510143357,4,1,331.7285286099959,None,331.82861510143357,None,331.7285286099959,None,False,None,None,None,None,None,None,None,None,0.41056741591819446,,,,,,,,,,,,,,,,,,,,,,,,,,,,AM04EN20b,1,0xC010,G:\Experimente\CoScience\Tasks\Logfiles\,2022_Feb_16_1021,GoNoGo,2020.1.3,59.977272886450706,
IN DIESEM BLOCK KÖNNEN SIE EINFACH ENTSPANNT AN DIE AUFGABE HERANGEHEN. SIE SOLLEN SICH NICHT VERAUSGABEN.,100,Go,go,4,1,0,0,0,0,,,,,36,2,110,0,,,,,,,,,,,,1,333.98091645918885,None,333.98091645918885,None,,,,101,111,333.163082887384,333.6635054264989,333.64682818541496,333.7469161353929,4,1,333.64682818541496,None,333.7469161353929,None,333.64682818541496,None,False,None,None,None,None,None,None,None,None,0.2892749158791048,,,,,,,,,,,,,,,,,,,,,,,,,,,,AM04EN20b,1,0xC010,G:\Experimente\CoScience\Tasks\Logfiles\,2022_Feb_16_1021,GoNoGo,2020.1.3,59.977272886450706,
IN DIESEM BLOCK KÖNNEN SIE EINFACH ENTSPANNT AN DIE AUFGABE HERANGEHEN. SIE SOLLEN SICH NICHT VERAUSGABEN.,100,NoGo,nogo,None,2,0,0,0,0,,,,,37,0,111,2,,,,,,,,,,,,0.9,336.16564437579564,None,336.16564437579564,None,,,,102,0,334.9812965547817,335.48171909389566,335.46504156110404,335.56512513546113,None,1,335.46504156110404,None,335.56512513546113,None,335.46504156110404,None,False,None,None,None,None,None,None,None,None,,,,,,,,,,,,,,,,,,,,,,,,,,,,,AM04EN20b,1,0xC010,G:\Experimente\CoScience\Tasks\Logfiles\,2022_Feb_16_1021,GoNoGo,2020.1.3,59.977272886450706,
IN DIESEM BLOCK KÖNNEN SIE EINFACH ENTSPANNT AN DIE AUFGABE HERANGEHEN. SIE SOLLEN SICH NICHT VERAUSGABEN.,100,Go,go,4,1,0,0,0,0,,,,,37,1,112,1,,,,,,,,,,,,1,337.8842365343917,None,337.8842365343917,None,,,,101,111,337.0664064630828,337.5668269602411,337.5501479689092,337.65023271009886,4,1,337.5501479689092,None,337.65023271009886,None,337.5501479689092,None,False,None,None,None,None,None,None,None,None,0.29783975601549173,,,,,,,,,,,,,,,,,,,,,,,,,,,,AM04EN20b,1,0xC010,G:\Experimente\CoScience\Tasks\Logfiles\,2022_Feb_16_1021,GoNoGo,2020.1.3,59.977272886450706,
IN DIESEM BLOCK KÖNNEN SIE EINFACH ENTSPANNT AN DIE AUFGABE HERANGEHEN. SIE SOLLEN SICH NICHT VERAUSGABEN.,100,Go,go,4,1,0,0,0,0,,,,,37,2,113,1,,,,,,,,,,,,1,339.70245078520475,None,339.70245078520475,None,,,,101,111,338.88461546315193,339.3850397525148,339.36836134459827,339.46844491895627,4,1,339.36836134459827,None,339.46844491895627,None,339.36836134459827,None,False,None,None,None,None,None,None,None,None,0.2975530069998058,,,,,,,,,,,,,,,,,,,,,,,,,,,,AM04EN20b,1,0xC010,G:\Experimente\CoScience\Tasks\Logfiles\,2022_Feb_16_1021,GoNoGo,2020.1.3,59.977272886450706,
IN DIESEM BLOCK KÖNNEN SIE EINFACH ENTSPANNT AN DIE AUFGABE HERANGEHEN. SIE SOLLEN SICH NICHT VERAUSGABEN.,100,NoGo,nogo,None,2,0,0,0,0,,,,,38,0,114,2,,,,,,,,,,,,1,341.5707046353864,None,341.5707046353864,None,,,,102,120,340.7028644272232,341.20325487845184,341.1865738451643,341.28665887806164,4,0,341.1865738451643,None,341.28665887806164,None,341.1865738451643,None,False,None,None,None,None,None,None,None,None,0.34831925112666795,,,,,,,,,,,,,,,,,,,,,,,,,,,,AM04EN20b,1,0xC010,G:\Experimente\CoScience\Tasks\Logfiles\,2022_Feb_16_1021,GoNoGo,2020.1.3,59.977272886450706,
IN DIESEM BLOCK KÖNNEN SIE EINFACH ENTSPANNT AN DIE AUFGABE HERANGEHEN. SIE SOLLEN SICH NICHT VERAUSGABEN.,100,Go,go,4,1,0,0,0,0,,,,,38,1,115,0,,,,,,,,,,,,1,343.47232434434954,None,343.47232434434954,None,,,,101,111,342.5710879397675,343.0715093120498,343.0548279870536,343.15491389507497,4,1,343.0548279870536,None,343.15491389507497,None,343.0548279870536,None,False,None,None,None,None,None,None,None,None,0.3680512589389764,,,,,,,,,,,,,,,,,,,,,,,,,,,,AM04EN20b,1,0xC010,G:\Experimente\CoScience\Tasks\Logfiles\,2022_Feb_16_1021,GoNoGo,2020.1.3,59.977272886450706,
IN DIESEM BLOCK KÖNNEN SIE EINFACH ENTSPANNT AN DIE AUFGABE HERANGEHEN. SIE SOLLEN SICH NICHT VERAUSGABEN.,100,Go,go,4,1,0,0,0,0,,,,,38,2,116,0,,,,,,,,,,,,1,345.5574383365638,None,345.5574383365638,None,,,,101,111,344.47271377459947,344.9731261039324,344.9564453623525,345.05653039524987,4,1,344.9564453623525,None,345.05653039524987,None,344.9564453623525,None,False,None,None,None,None,None,None,None,None,0.5623670358227173,,,,,,,,,,,,,,,,,,,,,,,,,,,,AM04EN20b,1,0xC010,G:\Experimente\CoScience\Tasks\Logfiles\,2022_Feb_16_1021,GoNoGo,2020.1.3,59.977272886450706,
IN DIESEM BLOCK KÖNNEN SIE EINFACH ENTSPANNT AN DIE AUFGABE HERANGEHEN. SIE SOLLEN SICH NICHT VERAUSGABEN.,100,Go,go,4,1,0,0,0,0,,,,,39,0,117,1,,,,,,,,,,,,1,347.5924955186347,None,347.5924955186347,None,,,,101,111,346.5578111394552,347.0582336785692,347.0415535204056,347.14164117867494,4,1,347.0415535204056,None,347.14164117867494,None,347.0415535204056,None,False,None,None,None,None,None,None,None,None,0.5122110449419779,,,,,,,,,,,,,,,,,,,,,,,,,,,,AM04EN20b,1,0xC010,G:\Experimente\CoScience\Tasks\Logfiles\,2022_Feb_16_1021,GoNoGo,2020.1.3,59.977272886450706,
IN DIESEM BLOCK KÖNNEN SIE EINFACH ENTSPANNT AN DIE AUFGABE HERANGEHEN. SIE SOLLEN SICH NICHT VERAUSGABEN.,100,Go,go,4,1,0,0,0,0,,,,,39,1,118,0,,,,,,,,,,,,1,349.6108772098705,None,349.6108772098705,None,,,,101,111,348.5928753225189,349.0932975699261,349.07661653663763,349.1767027363667,4,1,349.07661653663763,None,349.1767027363667,None,349.07661653663763,None,False,None,None,None,None,None,None,None,None,0.4891252696479569,,,,,,,,,,,,,,,,,,,,,,,,,,,,AM04EN20b,1,0xC010,G:\Experimente\CoScience\Tasks\Logfiles\,2022_Feb_16_1021,GoNoGo,2020.1.3,59.977272886450706,
IN DIESEM BLOCK KÖNNEN SIE EINFACH ENTSPANNT AN DIE AUFGABE HERANGEHEN. SIE SOLLEN SICH NICHT VERAUSGABEN.,100,NoGo,nogo,None,2,0,0,0,0,,,,,39,2,119,2,,,,,,,,,,,,0.9,351.7956240875001,None,351.7956240875001,None,,,,102,0,350.61129026847357,351.1116807197013,351.09499997812145,351.1950873446831,None,1,351.09499997812145,None,351.1950873446831,None,351.09499997812145,None,False,None,None,None,None,None,None,None,None,,,,,,,,,,,,,,,,,,,,,,,,,,,,,AM04EN20b,1,0xC010,G:\Experimente\CoScience\Tasks\Logfiles\,2022_Feb_16_1021,GoNoGo,2020.1.3,59.977272886450706,
IN DIESEM BLOCK KÖNNEN SIE EINFACH ENTSPANNT AN DIE AUFGABE HERANGEHEN. SIE SOLLEN SICH NICHT VERAUSGABEN.,100,Go,go,4,1,0,0,0,0,,,,,40,0,120,0,,,,,,,,,,,,1,353.6142823179698,None,353.6142823179698,None,,,,101,111,352.6963657552242,353.19678887775535,353.1801075527583,353.28019141882396,4,1,353.1801075527583,None,353.28019141882396,None,353.1801075527583,None,False,None,None,None,None,None,None,None,None,0.3935401251719668,,,,,,,,,,,,,,,,,,,,,,,,,,,,AM04EN20b,1,0xC010,G:\Experimente\CoScience\Tasks\Logfiles\,2022_Feb_16_1021,GoNoGo,2020.1.3,59.977272886450706,
IN DIESEM BLOCK KÖNNEN SIE EINFACH ENTSPANNT AN DIE AUFGABE HERANGEHEN. SIE SOLLEN SICH NICHT VERAUSGABEN.,100,NoGo,nogo,None,2,0,0,0,0,,,,,40,1,121,2,,,,,,,,,,,,0.9,355.7990195692346,None,355.7990195692346,None,,,,102,0,354.6146650389355,355.1150861195092,355.0984249223684,355.1984915776593,None,1,355.0984249223684,None,355.1984915776593,None,355.0984249223684,None,False,None,None,None,None,None,None,None,None,,,,,,,,,,,,,,,,,,,,,,,,,,,,,AM04EN20b,1,0xC010,G:\Experimente\CoScience\Tasks\Logfiles\,2022_Feb_16_1021,GoNoGo,2020.1.3,59.977272886450706,
IN DIESEM BLOCK KÖNNEN SIE EINFACH ENTSPANNT AN DIE AUFGABE HERANGEHEN. SIE SOLLEN SICH NICHT VERAUSGABEN.,100,NoGo,nogo,None,2,0,0,0,0,,,,,40,2,122,2,,,,,,,,,,,,0.9,357.8841271438714,None,357.8841271438714,None,,,,102,0,356.6997708633244,357.20019223560666,357.1835351223781,357.28359711033954,None,1,357.1835351223781,None,357.28359711033954,None,357.1835351223781,None,False,None,None,None,None,None,None,None,None,,,,,,,,,,,,,,,,,,,,,,,,,,,,,AM04EN20b,1,0xC010,G:\Experimente\CoScience\Tasks\Logfiles\,2022_Feb_16_1021,GoNoGo,2020.1.3,59.977272886450706,
IN DIESEM BLOCK KÖNNEN SIE EINFACH ENTSPANNT AN DIE AUFGABE HERANGEHEN. SIE SOLLEN SICH NICHT VERAUSGABEN.,100,Go,go,4,1,0,0,0,0,,,,,41,0,123,0,,,,,,,,,,,,1,359.76951738361186,None,359.76951738361186,None,,,,101,111,358.78487435404895,359.2852992268272,359.2686424053072,359.3687023513121,4,1,359.2686424053072,None,359.3687023513121,None,359.2686424053072,None,False,None,None,None,None,None,None,None,None,0.46387006156510324,,,,,,,,,,,,,,,,,,,,,,,,,,,,AM04EN20b,1,0xC010,G:\Experimente\CoScience\Tasks\Logfiles\,2022_Feb_16_1021,GoNoGo,2020.1.3,59.977272886450706,
IN DIESEM BLOCK KÖNNEN SIE EINFACH ENTSPANNT AN DIE AUFGABE HERANGEHEN. SIE SOLLEN SICH NICHT VERAUSGABEN.,100,Go,go,4,1,0,0,0,0,,,,,41,1,124,0,,,,,,,,,,,,1,361.65445314220597,None,361.65445314220597,None,,,,101,111,360.7698983543287,361.270319726611,361.2536486113968,361.3537537721495,4,1,361.2536486113968,None,361.3537537721495,None,361.2536486113968,None,False,None,None,None,None,None,None,None,None,0.3548170480016779,,,,,,,,,,,,,,,,,,,,,,,,,,,,AM04EN20b,1,0xC010,G:\Experimente\CoScience\Tasks\Logfiles\,2022_Feb_16_1021,GoNoGo,2020.1.3,59.977272886450706,
IN DIESEM BLOCK KÖNNEN SIE EINFACH ENTSPANNT AN DIE AUFGABE HERANGEHEN. SIE SOLLEN SICH NICHT VERAUSGABEN.,100,Go,go,4,1,0,0,0,0,,,,,41,2,125,0,,,,,,,,,,,,1,363.5393889008001,None,363.5393889008001,None,,,,101,111,362.6548352797545,363.15525840228565,363.1385762021646,363.23866123506195,4,1,363.1385762021646,None,363.23866123506195,None,363.1385762021646,None,False,None,None,None,None,None,364.57313193809296,None,space,0.3558601959985026,21.097874469273847,,,,,,,,,,,,,,,,,,,,,,,,,,,AM04EN20b,1,0xC010,G:\Experimente\CoScience\Tasks\Logfiles\,2022_Feb_16_1021,GoNoGo,2020.1.3,59.977272886450706,
IN DIESEM BLOCK KÖNNEN SIE EINFACH ENTSPANNT AN DIE AUFGABE HERANGEHEN. SIE SOLLEN SICH NICHT VERAUSGABEN.,100,Go,go,4,1,0,0,0,0,,,,,42,0,126,1,,,,,,,,,,,,0.9,388.8271008449319,None,388.8271008449319,None,,,,101,0,387.6427509819614,388.14317643815684,388.1264942380367,388.22655418404156,None,0,388.1264942380367,None,388.22655418404156,None,388.1264942380367,None,False,None,None,None,None,None,None,None,None,,,,,,,,,,,,,,,,,,,,,,,,,,,,,AM04EN20b,1,0xC010,G:\Experimente\CoScience\Tasks\Logfiles\,2022_Feb_16_1021,GoNoGo,2020.1.3,59.977272886450706,
IN DIESEM BLOCK KÖNNEN SIE EINFACH ENTSPANNT AN DIE AUFGABE HERANGEHEN. SIE SOLLEN SICH NICHT VERAUSGABEN.,100,Go,go,4,1,0,0,0,0,,,,,42,1,127,0,,,,,,,,,,,,1,390.64577686959274,None,390.64577686959274,None,,,,101,111,389.72786468246795,390.2282586341935,390.2116026877975,390.3116862621546,4,1,390.2116026877975,None,390.3116862621546,None,390.2116026877975,None,False,None,None,None,None,None,None,None,None,0.3852433647361977,,,,,,,,,,,,,,,,,,,,,,,,,,,,AM04EN20b,1,0xC010,G:\Experimente\CoScience\Tasks\Logfiles\,2022_Feb_16_1021,GoNoGo,2020.1.3,59.977272886450706,
IN DIESEM BLOCK KÖNNEN SIE EINFACH ENTSPANNT AN DIE AUFGABE HERANGEHEN. SIE SOLLEN SICH NICHT VERAUSGABEN.,100,NoGo,nogo,None,2,0,0,0,0,,,,,42,2,128,2,,,,,,,,,,,,0.9,392.8305155793978,None,392.8305155793978,None,,,,102,0,391.64615842372586,392.14658067113214,392.12989992955227,392.2299619175137,None,1,392.12989992955227,None,392.2299619175137,None,392.12989992955227,None,False,None,None,None,None,None,None,None,None,,,,,,,,,,,,,,,,,,,,,,,,,,,,,AM04EN20b,1,0xC010,G:\Experimente\CoScience\Tasks\Logfiles\,2022_Feb_16_1021,GoNoGo,2020.1.3,59.977272886450706,
IN DIESEM BLOCK KÖNNEN SIE EINFACH ENTSPANNT AN DIE AUFGABE HERANGEHEN. SIE SOLLEN SICH NICHT VERAUSGABEN.,100,Go,go,4,1,0,0,0,0,,,,,43,0,129,1,,,,,,,,,,,,1,394.79931652803225,None,394.79931652803225,None,,,,101,111,393.731266581779,394.2316879540613,394.2150063373574,394.3151077059056,4,1,394.2150063373574,None,394.3151077059056,None,394.2150063373574,None,False,None,None,None,None,None,None,None,None,0.5387661041077081,,,,,,,,,,,,,,,,,,,,,,,,,,,,AM04EN20b,1,0xC010,G:\Experimente\CoScience\Tasks\Logfiles\,2022_Feb_16_1021,GoNoGo,2020.1.3,59.977272886450706,
IN DIESEM BLOCK KÖNNEN SIE EINFACH ENTSPANNT AN DIE AUFGABE HERANGEHEN. SIE SOLLEN SICH NICHT VERAUSGABEN.,100,NoGo,nogo,None,2,0,0,0,0,,,,,43,1,130,2,,,,,,,,,,,,0.9,396.9840397773096,None,396.9840397773096,None,,,,102,0,395.7996872889671,396.30011216174626,396.28343200358177,396.38351645306284,None,1,396.28343200358177,None,396.38351645306284,None,396.28343200358177,None,False,None,None,None,None,None,None,None,None,,,,,,,,,,,,,,,,,,,,,,,,,,,,,AM04EN20b,1,0xC010,G:\Experimente\CoScience\Tasks\Logfiles\,2022_Feb_16_1021,GoNoGo,2020.1.3,59.977272886450706,
IN DIESEM BLOCK KÖNNEN SIE EINFACH ENTSPANNT AN DIE AUFGABE HERANGEHEN. SIE SOLLEN SICH NICHT VERAUSGABEN.,100,Go,go,4,1,0,0,0,0,,,,,43,2,131,1,,,,,,,,,,,,1,398.8360767017148,None,398.8360767017148,None,,,,101,111,397.8847986558085,398.3852185695505,398.3685389948032,398.46862373599197,4,1,398.3685389948032,None,398.46862373599197,None,398.3685389948032,None,False,None,None,None,None,None,None,None,None,0.42613645810979506,,,,,,,,,,,,,,,,,,,,,,,,,,,,AM04EN20b,1,0xC010,G:\Experimente\CoScience\Tasks\Logfiles\,2022_Feb_16_1021,GoNoGo,2020.1.3,59.977272886450706,
IN DIESEM BLOCK KÖNNEN SIE EINFACH ENTSPANNT AN DIE AUFGABE HERANGEHEN. SIE SOLLEN SICH NICHT VERAUSGABEN.,100,Go,go,4,1,0,0,0,0,,,,,44,0,132,0,,,,,,,,,,,,1,400.77105439334173,None,400.77105439334173,None,,,,101,111,399.8364570890162,400.3368787530062,400.3201985948417,400.4202821691988,4,1,400.3201985948417,None,400.4202821691988,None,400.3201985948417,None,False,None,None,None,None,None,None,None,None,0.4134284884994486,,,,,,,,,,,,,,,,,,,,,,,,,,,,AM04EN20b,1,0xC010,G:\Experimente\CoScience\Tasks\Logfiles\,2022_Feb_16_1021,GoNoGo,2020.1.3,59.977272886450706,
IN DIESEM BLOCK KÖNNEN SIE EINFACH ENTSPANNT AN DIE AUFGABE HERANGEHEN. SIE SOLLEN SICH NICHT VERAUSGABEN.,100,Go,go,4,1,0,0,0,0,,,,,44,1,133,0,,,,,,,,,,,,1,402.63930941035596,None,402.63930941035596,None,,,,101,111,401.77143478064227,402.27185790317253,402.25517686988496,402.35526219449,4,1,402.25517686988496,None,402.35526219449,None,402.25517686988496,None,False,None,None,None,None,None,None,None,None,0.33743358172341686,,,,,,,,,,,,,,,,,,,,,,,,,,,,AM04EN20b,1,0xC010,G:\Experimente\CoScience\Tasks\Logfiles\,2022_Feb_16_1021,GoNoGo,2020.1.3,59.977272886450706,
IN DIESEM BLOCK KÖNNEN SIE EINFACH ENTSPANNT AN DIE AUFGABE HERANGEHEN. SIE SOLLEN SICH NICHT VERAUSGABEN.,100,Go,go,4,1,0,0,0,0,,,,,44,2,134,0,,,,,,,,,,,,1,404.6410261122455,None,404.6410261122455,None,,,,101,111,403.6396906727805,404.14011350360306,404.1234336371472,404.22349358315205,4,1,404.1234336371472,None,404.22349358315205,None,404.1234336371472,None,False,None,None,None,None,None,None,None,None,0.47611363195483136,,,,,,,,,,,,,,,,,,,,,,,,,,,,AM04EN20b,1,0xC010,G:\Experimente\CoScience\Tasks\Logfiles\,2022_Feb_16_1021,GoNoGo,2020.1.3,59.977272886450706,
IN DIESEM BLOCK KÖNNEN SIE EINFACH ENTSPANNT AN DIE AUFGABE HERANGEHEN. SIE SOLLEN SICH NICHT VERAUSGABEN.,100,Go,go,4,1,0,0,0,0,,,,,45,0,135,0,,,,,,,,,,,,1,406.6093521601706,None,406.6093521601706,None,,,,101,111,405.64139045560387,406.1418144532581,406.12514246291994,406.2251951162234,4,1,406.12514246291994,None,406.2251951162234,None,406.12514246291994,None,False,None,None,None,None,None,None,None,None,0.44036276813494624,,,,,,,,,,,,,,,,,,,,,,,,,,,,AM04EN20b,1,0xC010,G:\Experimente\CoScience\Tasks\Logfiles\,2022_Feb_16_1021,GoNoGo,2020.1.3,59.977272886450706,
IN DIESEM BLOCK KÖNNEN SIE EINFACH ENTSPANNT AN DIE AUFGABE HERANGEHEN. SIE SOLLEN SICH NICHT VERAUSGABEN.,100,Go,go,4,1,0,0,0,0,,,,,45,1,136,1,,,,,,,,,,,,1,408.4776089274328,None,408.4776089274328,None,,,,101,111,407.6097363396757,408.1101565451263,408.0934760952541,408.1935614198592,4,1,408.0934760952541,None,408.1935614198592,None,408.0934760952541,None,False,None,None,None,None,None,None,None,None,0.3479843702825747,,,,,,,,,,,,,,,,,,,,,,,,,,,,AM04EN20b,1,0xC010,G:\Experimente\CoScience\Tasks\Logfiles\,2022_Feb_16_1021,GoNoGo,2020.1.3,59.977272886450706,
IN DIESEM BLOCK KÖNNEN SIE EINFACH ENTSPANNT AN DIE AUFGABE HERANGEHEN. SIE SOLLEN SICH NICHT VERAUSGABEN.,100,NoGo,nogo,None,2,0,0,0,0,,,,,45,2,137,2,,,,,,,,,,,,0.9,410.66234734552927,None,410.66234734552927,None,,,,102,0,409.4779855225288,409.9784115621396,409.9617421971734,410.0618158534571,None,1,409.9617421971734,None,410.0618158534571,None,409.9617421971734,None,False,None,None,None,None,None,None,None,None,,,,,,,,,,,,,,,,,,,,,,,,,,,,,AM04EN20b,1,0xC010,G:\Experimente\CoScience\Tasks\Logfiles\,2022_Feb_16_1021,GoNoGo,2020.1.3,59.977272886450706,
IN DIESEM BLOCK KÖNNEN SIE EINFACH ENTSPANNT AN DIE AUFGABE HERANGEHEN. SIE SOLLEN SICH NICHT VERAUSGABEN.,100,NoGo,nogo,None,2,0,0,0,0,,,,,46,0,138,2,,,,,,,,,,,,0.9,412.7474549201661,None,412.7474549201661,None,,,,102,0,411.56309776449507,412.0635176782371,412.04685648109626,412.14692401151024,None,1,412.04685648109626,None,412.14692401151024,None,412.04685648109626,None,False,None,None,None,None,None,None,None,None,,,,,,,,,,,,,,,,,,,,,,,,,,,,,AM04EN20b,1,0xC010,G:\Experimente\CoScience\Tasks\Logfiles\,2022_Feb_16_1021,GoNoGo,2020.1.3,59.977272886450706,
IN DIESEM BLOCK KÖNNEN SIE EINFACH ENTSPANNT AN DIE AUFGABE HERANGEHEN. SIE SOLLEN SICH NICHT VERAUSGABEN.,100,NoGo,nogo,None,2,0,0,0,0,,,,,46,1,139,2,,,,,,,,,,,,0.9,414.83256074455494,None,414.83256074455494,None,,,,102,0,413.6482032971753,414.1486264197065,414.1319523874108,414.23202400173795,None,1,414.1319523874108,None,414.23202400173795,None,414.1319523874108,None,False,None,None,None,None,None,None,None,None,,,,,,,,,,,,,,,,,,,,,,,,,,,,,AM04EN20b,1,0xC010,G:\Experimente\CoScience\Tasks\Logfiles\,2022_Feb_16_1021,GoNoGo,2020.1.3,59.977272886450706,
IN DIESEM BLOCK KÖNNEN SIE EINFACH ENTSPANNT AN DIE AUFGABE HERANGEHEN. SIE SOLLEN SICH NICHT VERAUSGABEN.,100,Go,go,4,1,0,0,0,0,,,,,46,2,140,0,,,,,,,,,,,,1,416.7679932090359,None,416.7679932090359,None,,,,101,111,415.73331174693703,416.23369986450143,416.2170564615517,416.3171374105368,4,1,416.2170564615517,None,416.3171374105368,None,416.2170564615517,None,False,None,None,None,None,None,None,None,None,0.515246267231305,,,,,,,,,,,,,,,,,,,,,,,,,,,,AM04EN20b,1,0xC010,G:\Experimente\CoScience\Tasks\Logfiles\,2022_Feb_16_1021,GoNoGo,2020.1.3,59.977272886450706,
IN DIESEM BLOCK KÖNNEN SIE EINFACH ENTSPANNT AN DIE AUFGABE HERANGEHEN. SIE SOLLEN SICH NICHT VERAUSGABEN.,100,Go,go,4,1,0,0,0,0,,,,,47,0,141,0,,,,,,,,,,,,1,418.86977889988066,None,418.86977889988066,None,,,,101,111,417.7683712626722,418.26879613545134,418.25212531194484,418.35219925993624,4,1,418.25212531194484,None,418.35219925993624,None,418.25212531194484,None,False,None,None,None,None,None,None,None,None,0.5791294556584035,,,,,,,,,,,,,,,,,,,,,,,,,,,,AM04EN20b,1,0xC010,G:\Experimente\CoScience\Tasks\Logfiles\,2022_Feb_16_1021,GoNoGo,2020.1.3,59.977272886450706,
IN DIESEM BLOCK KÖNNEN SIE EINFACH ENTSPANNT AN DIE AUFGABE HERANGEHEN. SIE SOLLEN SICH NICHT VERAUSGABEN.,100,Go,go,4,1,0,0,0,0,,,,,47,1,142,1,,,,,,,,,,,,1,420.73803654226776,None,420.73803654226776,None,,,,101,111,419.8701674550075,420.37058357654496,420.35390341838047,420.45398757615385,4,1,420.35390341838047,None,420.45398757615385,None,420.35390341838047,None,False,None,None,None,None,None,None,None,None,0.33732564974343404,,,,,,,,,,,,,,,,,,,,,,,,,,,,AM04EN20b,1,0xC010,G:\Experimente\CoScience\Tasks\Logfiles\,2022_Feb_16_1021,GoNoGo,2020.1.3,59.977272886450706,
IN DIESEM BLOCK KÖNNEN SIE EINFACH ENTSPANNT AN DIE AUFGABE HERANGEHEN. SIE SOLLEN SICH NICHT VERAUSGABEN.,100,Go,go,4,1,0,0,0,0,,,,,47,2,143,1,,,,,,,,,,,,1,422.63965275073406,None,422.63965275073406,None,,,,101,111,421.738415471028,422.23884005209857,422.2221342236262,422.3222434682921,4,1,422.2221342236262,None,422.3222434682921,None,422.2221342236262,None,False,None,None,None,None,None,None,None,None,0.37403127402012615,,,,,,,,,,,,,,,,,,,,,,,,,,,,AM04EN20b,1,0xC010,G:\Experimente\CoScience\Tasks\Logfiles\,2022_Feb_16_1021,GoNoGo,2020.1.3,59.977272886450706,
IN DIESEM BLOCK KÖNNEN SIE EINFACH ENTSPANNT AN DIE AUFGABE HERANGEHEN. SIE SOLLEN SICH NICHT VERAUSGABEN.,100,Go,go,4,1,0,0,0,0,,,,,48,0,144,1,,,,,,,,,,,,1,424.44118480142697,None,424.44118480142697,None,,,,101,111,423.6400334297423,424.14045713568885,424.123776394109,424.2238579265095,4,1,424.123776394109,None,424.2238579265095,None,424.123776394109,None,False,None,None,None,None,None,None,None,None,0.28135416712302685,,,,,,,,,,,,,,,,,,,,,,,,,,,,AM04EN20b,1,0xC010,G:\Experimente\CoScience\Tasks\Logfiles\,2022_Feb_16_1021,GoNoGo,2020.1.3,59.977272886450706,
IN DIESEM BLOCK KÖNNEN SIE EINFACH ENTSPANNT AN DIE AUFGABE HERANGEHEN. SIE SOLLEN SICH NICHT VERAUSGABEN.,100,NoGo,nogo,None,2,0,0,0,0,,,,,48,1,145,2,,,,,,,,,,,,0.9,426.6259240946474,None,426.6259240946474,None,,,,102,0,425.4415637301872,425.94198918638176,425.9253075696779,426.02539260257527,None,1,425.9253075696779,None,426.02539260257527,None,425.9253075696779,None,False,None,None,None,None,None,None,None,None,,,,,,,,,,,,,,,,,,,,,,,,,,,,,AM04EN20b,1,0xC010,G:\Experimente\CoScience\Tasks\Logfiles\,2022_Feb_16_1021,GoNoGo,2020.1.3,59.977272886450706,
IN DIESEM BLOCK KÖNNEN SIE EINFACH ENTSPANNT AN DIE AUFGABE HERANGEHEN. SIE SOLLEN SICH NICHT VERAUSGABEN.,100,NoGo,nogo,None,2,0,0,0,0,,,,,48,2,146,2,,,,,,,,,,,,0.9,428.7110197092543,None,428.7110197092543,None,,,,102,0,427.52667042970006,428.0270947190629,428.010416602855,428.1105004689207,None,1,428.010416602855,None,428.1105004689207,None,428.010416602855,None,False,None,None,None,None,None,None,None,None,,,,,,,,,,,,,,,,,,,,,,,,,,,,,AM04EN20b,1,0xC010,G:\Experimente\CoScience\Tasks\Logfiles\,2022_Feb_16_1021,GoNoGo,2020.1.3,59.977272886450706,
IN DIESEM BLOCK KÖNNEN SIE EINFACH ENTSPANNT AN DIE AUFGABE HERANGEHEN. SIE SOLLEN SICH NICHT VERAUSGABEN.,100,Go,go,4,1,0,0,0,0,,,,,49,0,147,0,,,,,,,,,,,,1,430.54637793403526,None,430.54637793403526,None,,,,101,111,429.6117844219143,430.11220229369974,430.09552271895245,430.1956197118798,4,1,430.09552271895245,None,430.1956197118798,None,430.09552271895245,None,False,None,None,None,None,None,None,None,None,0.4164844220604209,,,,,,,,,,,,,,,,,,,,,,,,,,,,AM04EN20b,1,0xC010,G:\Experimente\CoScience\Tasks\Logfiles\,2022_Feb_16_1021,GoNoGo,2020.1.3,59.977272886450706,
IN DIESEM BLOCK KÖNNEN SIE EINFACH ENTSPANNT AN DIE AUFGABE HERANGEHEN. SIE SOLLEN SICH NICHT VERAUSGABEN.,100,Go,go,4,1,0,0,0,0,,,,,49,1,148,0,,,,,,,,,,,,1,432.4813550422459,None,432.4813550422459,None,,,,101,111,431.5467568627964,432.047180568743,432.0305004105785,432.13058544347587,4,1,432.0305004105785,None,432.13058544347587,None,432.0305004105785,None,False,None,None,None,None,None,None,None,None,0.4114670435528751,,,,,,,,,,,,,,,,,,,,,,,,,,,,AM04EN20b,1,0xC010,G:\Experimente\CoScience\Tasks\Logfiles\,2022_Feb_16_1021,GoNoGo,2020.1.3,59.977272886450706,
IN DIESEM BLOCK KÖNNEN SIE EINFACH ENTSPANNT AN DIE AUFGABE HERANGEHEN. SIE SOLLEN SICH NICHT VERAUSGABEN.,100,Go,go,4,1,0,0,0,0,,,,,49,2,149,0,,,,,,,,,,,,1,434.3829727092525,None,434.3829727092525,None,,,,101,111,433.4817421388325,433.9821603023256,433.96547956074573,434.0655640102268,4,1,433.96547956074573,None,434.0655640102268,None,433.96547956074573,None,False,None,None,None,None,None,None,None,None,0.3704263459048889,,,,,,,,,,,,,,,,,,,,,,,,,,,,AM04EN20b,1,0xC010,G:\Experimente\CoScience\Tasks\Logfiles\,2022_Feb_16_1021,GoNoGo,2020.1.3,59.977272886450706,
IN DIESEM BLOCK KÖNNEN SIE EINFACH ENTSPANNT AN DIE AUFGABE HERANGEHEN. SIE SOLLEN SICH NICHT VERAUSGABEN.,100,Go,go,4,1,0,0,0,0,,,,,50,0,150,0,,,,,,,,,,,,1,436.25122830968303,None,436.25122830968303,None,,,,101,111,435.38335134630506,435.8837779693322,435.867098394584,435.9671825523574,4,1,435.867098394584,None,435.9671825523574,None,435.867098394584,None,False,None,None,None,None,None,None,None,None,0.3447837495277781,,,,,,,,,,,,,,,,,,,,,,,,,,,,AM04EN20b,1,0xC010,G:\Experimente\CoScience\Tasks\Logfiles\,2022_Feb_16_1021,GoNoGo,2020.1.3,59.977272886450706,
IN DIESEM BLOCK KÖNNEN SIE EINFACH ENTSPANNT AN DIE AUFGABE HERANGEHEN. SIE SOLLEN SICH NICHT VERAUSGABEN.,100,Go,go,4,1,0,0,0,0,,,,,50,1,151,1,,,,,,,,,,,,1,438.16952788510207,None,438.16952788510207,None,,,,101,111,437.25161073894014,437.7520332780541,437.73535253647424,437.8354361108313,4,1,437.73535253647424,None,437.8354361108313,None,437.73535253647424,None,False,None,None,None,None,None,None,None,None,0.3844957169967529,,,,,,,,,,,,,,,,,,,,,,,,,,,,AM04EN20b,1,0xC010,G:\Experimente\CoScience\Tasks\Logfiles\,2022_Feb_16_1021,GoNoGo,2020.1.3,59.977272886450706,
IN DIESEM BLOCK KÖNNEN SIE EINFACH ENTSPANNT AN DIE AUFGABE HERANGEHEN. SIE SOLLEN SICH NICHT VERAUSGABEN.,100,Go,go,4,1,0,0,0,0,,,,,50,2,152,0,,,,,,,,,,,,1,440.0377820269914,None,440.0377820269914,None,,,,101,111,439.169907980694,439.6703302281003,439.6536491948127,439.75373510283407,4,1,439.6536491948127,None,439.75373510283407,None,439.6536491948127,None,False,None,None,None,None,None,None,None,None,0.34914770199702616,,,,,,,,,,,,,,,,,,,,,,,,,,,,AM04EN20b,1,0xC010,G:\Experimente\CoScience\Tasks\Logfiles\,2022_Feb_16_1021,GoNoGo,2020.1.3,59.977272886450706,
IN DIESEM BLOCK KÖNNEN SIE EINFACH ENTSPANNT AN DIE AUFGABE HERANGEHEN. SIE SOLLEN SICH NICHT VERAUSGABEN.,100,Go,go,4,1,0,0,0,0,,,,,51,0,153,0,,,,,,,,,,,,1,441.9060399610862,None,441.9060399610862,None,,,,101,111,441.03816358112454,441.5385867036548,441.52190450353464,441.62199537059314,4,1,441.52190450353464,None,441.62199537059314,None,441.52190450353464,None,False,None,None,None,None,None,None,None,None,0.3478571855712289,,,,,,,,,,,,,,,,,,,,,,,,,,,,AM04EN20b,1,0xC010,G:\Experimente\CoScience\Tasks\Logfiles\,2022_Feb_16_1021,GoNoGo,2020.1.3,59.977272886450706,
IN DIESEM BLOCK KÖNNEN SIE EINFACH ENTSPANNT AN DIE AUFGABE HERANGEHEN. SIE SOLLEN SICH NICHT VERAUSGABEN.,100,Go,go,4,1,0,0,0,0,,,,,51,1,154,0,,,,,,,,,,,,1,443.7576127779794,None,443.7576127779794,None,,,,101,111,442.90641888984646,443.40684172066904,443.3901732308268,443.49024542857023,4,1,443.3901732308268,None,443.49024542857023,None,443.3901732308268,None,False,None,None,None,None,None,None,None,None,0.3245540877778694,,,,,,,,,,,,,,,,,,,,,,,,,,,,AM04EN20b,1,0xC010,G:\Experimente\CoScience\Tasks\Logfiles\,2022_Feb_16_1021,GoNoGo,2020.1.3,59.977272886450706,
IN DIESEM BLOCK KÖNNEN SIE EINFACH ENTSPANNT AN DIE AUFGABE HERANGEHEN. SIE SOLLEN SICH NICHT VERAUSGABEN.,100,Go,go,4,1,0,0,0,0,,,,,51,2,155,0,,,,,,,,,,,,1,445.65922986156966,None,445.65922986156966,None,,,,101,111,444.7579928735722,445.25841745464277,445.2417352545226,445.3418197040037,4,1,445.2417352545226,None,445.3418197040037,None,445.2417352545226,None,False,None,None,None,None,None,None,None,None,0.37292511708437814,,,,,,,,,,,,,,,,,,,,,,,,,,,,AM04EN20b,1,0xC010,G:\Experimente\CoScience\Tasks\Logfiles\,2022_Feb_16_1021,GoNoGo,2020.1.3,59.977272886450706,
IN DIESEM BLOCK KÖNNEN SIE EINFACH ENTSPANNT AN DIE AUFGABE HERANGEHEN. SIE SOLLEN SICH NICHT VERAUSGABEN.,100,Go,go,4,1,0,0,0,0,,,,,52,0,156,0,,,,,,,,,,,,1,447.5274857537079,None,447.5274857537079,None,,,,101,111,446.6596114157028,447.16003424652536,447.1433424200386,447.24343766271795,4,1,447.1433424200386,None,447.24343766271795,None,447.1433424200386,None,False,None,None,None,None,None,None,None,None,0.3492836379491564,,,,,,,,,,,,,,,,,,,,,,,,,,,,AM04EN20b,1,0xC010,G:\Experimente\CoScience\Tasks\Logfiles\,2022_Feb_16_1021,GoNoGo,2020.1.3,59.977272886450706,
IN DIESEM BLOCK KÖNNEN SIE EINFACH ENTSPANNT AN DIE AUFGABE HERANGEHEN. SIE SOLLEN SICH NICHT VERAUSGABEN.,100,Go,go,4,1,0,0,0,0,,,,,52,1,157,0,,,,,,,,,,,,1,449.34569942110465,None,449.34569942110465,None,,,,101,111,448.5278684746727,449.028289846955,449.0116091053751,449.11169530510415,4,1,449.0116091053751,None,449.11169530510415,None,449.0116091053751,None,False,None,None,None,None,None,None,None,None,0.2869887998695049,,,,,,,,,,,,,,,,,,,,,,,,,,,,AM04EN20b,1,0xC010,G:\Experimente\CoScience\Tasks\Logfiles\,2022_Feb_16_1021,GoNoGo,2020.1.3,59.977272886450706,
IN DIESEM BLOCK KÖNNEN SIE EINFACH ENTSPANNT AN DIE AUFGABE HERANGEHEN. SIE SOLLEN SICH NICHT VERAUSGABEN.,100,Go,go,4,1,0,0,0,0,,,,,52,2,158,1,,,,,,,,,,,,1,451.1138708637618,None,451.1138708637618,None,,,,101,111,450.3460809752378,450.84651255730205,450.8298230644805,450.9299104310421,4,1,450.8298230644805,None,450.9299104310421,None,450.8298230644805,None,False,None,None,None,None,None,None,None,None,0.24971201122480124,,,,,,,,,,,,,,,,,,,,,,,,,,,,AM04EN20b,1,0xC010,G:\Experimente\CoScience\Tasks\Logfiles\,2022_Feb_16_1021,GoNoGo,2020.1.3,59.977272886450706,
IN DIESEM BLOCK KÖNNEN SIE EINFACH ENTSPANNT AN DIE AUFGABE HERANGEHEN. SIE SOLLEN SICH NICHT VERAUSGABEN.,100,Go,go,4,1,0,0,0,0,,,,,53,0,159,1,,,,,,,,,,,,1,452.99881216480844,None,452.99881216480844,None,,,,101,111,452.1142474588578,452.6146746653012,452.59799159005615,452.6980786649101,4,1,452.59799159005615,None,452.6980786649101,None,452.59799159005615,None,False,None,None,None,None,None,None,None,None,0.3655279842823802,,,,,,,,,,,,,,,,,,,,,,,,,,,,AM04EN20b,1,0xC010,G:\Experimente\CoScience\Tasks\Logfiles\,2022_Feb_16_1021,GoNoGo,2020.1.3,59.977272886450706,
