"Onset","Duration","Participant","date_time","Target_Mapping","Order_Instruction","Running","Trial","Event","Type","InstructionCondition","Accuracy","RT","Post_Trial","TaskPerf"
88.4891801118647,0.5,"ER05EL09","2022_Feb_28_1049","square","speed_accuracy_first","Practice",0,"Fixation","NoGo","speed_accuracy",0,0.358844201225111,NA,85.515873015873
88.963598231474,0.1,"ER05EL09","2022_Feb_28_1049","square","speed_accuracy_first","Practice",0,"Target","NoGo","speed_accuracy",0,0.358844201225111,NA,85.515873015873
89.0653179257724,1.25884420122511,"ER05EL09","2022_Feb_28_1049","square","speed_accuracy_first","Practice",0,"ITI","NoGo","speed_accuracy",0,0.358844201225111,NA,85.515873015873
89.3224424326991,0,"ER05EL09","2022_Feb_28_1049","square","speed_accuracy_first","Practice",0,"Response","NoGo","speed_accuracy",0,0.358844201225111,NA,85.515873015873
90.3705412344252,0.5,"ER05EL09","2022_Feb_28_1049","square","speed_accuracy_first","Practice",1,"Fixation","Go","speed_accuracy",0,NA,"post_error_resp",85.515873015873
90.8457780669041,0.1,"ER05EL09","2022_Feb_28_1049","square","speed_accuracy_first","Practice",1,"Target","Go","speed_accuracy",0,NA,"post_error_resp",85.515873015873
90.9483485869505,1.5,"ER05EL09","2022_Feb_28_1049","square","speed_accuracy_first","Practice",1,"ITI","Go","speed_accuracy",0,NA,"post_error_resp",85.515873015873
92.4726327097806,0.5,"ER05EL09","2022_Feb_28_1049","square","speed_accuracy_first","Practice",2,"Fixation","NoGo","speed_accuracy",1,NA,"post_error_inh",85.515873015873
92.9643371587381,0.1,"ER05EL09","2022_Feb_28_1049","square","speed_accuracy_first","Practice",2,"Target","NoGo","speed_accuracy",1,NA,"post_error_inh",85.515873015873
93.0498610373115,1.5,"ER05EL09","2022_Feb_28_1049","square","speed_accuracy_first","Practice",2,"ITI","NoGo","speed_accuracy",1,NA,"post_error_inh",85.515873015873
94.5914576432788,0.5,"ER05EL09","2022_Feb_28_1049","square","speed_accuracy_first","Practice",3,"Fixation","Go","speed_accuracy",0,NA,"post_correct_inh",85.515873015873
95.0828350043612,0.1,"ER05EL09","2022_Feb_28_1049","square","speed_accuracy_first","Practice",3,"Target","Go","speed_accuracy",0,NA,"post_correct_inh",85.515873015873
95.1682830700574,1.5,"ER05EL09","2022_Feb_28_1049","square","speed_accuracy_first","Practice",3,"ITI","Go","speed_accuracy",0,NA,"post_correct_inh",85.515873015873
96.7097654601157,0.5,"ER05EL09","2022_Feb_28_1049","square","speed_accuracy_first","Practice",4,"Fixation","NoGo","speed_accuracy",1,NA,"post_error_inh",85.515873015873
97.2029282310268,0.1,"ER05EL09","2022_Feb_28_1049","square","speed_accuracy_first","Practice",4,"Target","NoGo","speed_accuracy",1,NA,"post_error_inh",85.515873015873
97.286581617198,1.5,"ER05EL09","2022_Feb_28_1049","square","speed_accuracy_first","Practice",4,"ITI","NoGo","speed_accuracy",1,NA,"post_error_inh",85.515873015873
98.8284420784648,0.5,"ER05EL09","2022_Feb_28_1049","square","speed_accuracy_first","Practice",5,"Fixation","NoGo","speed_accuracy",1,NA,"post_correct_inh",85.515873015873
99.3046085291144,0.1,"ER05EL09","2022_Feb_28_1049","square","speed_accuracy_first","Practice",5,"Target","NoGo","speed_accuracy",1,NA,"post_correct_inh",85.515873015873
99.4050046431248,1.5,"ER05EL09","2022_Feb_28_1049","square","speed_accuracy_first","Practice",5,"ITI","NoGo","speed_accuracy",1,NA,"post_correct_inh",85.515873015873
100.930144226551,0.5,"ER05EL09","2022_Feb_28_1049","square","speed_accuracy_first","Practice",6,"Fixation","Go","speed_accuracy",0,NA,"post_correct_inh",85.515873015873
101.406436149169,0.1,"ER05EL09","2022_Feb_28_1049","square","speed_accuracy_first","Practice",6,"Target","Go","speed_accuracy",0,NA,"post_correct_inh",85.515873015873
101.50668394803,1.5,"ER05EL09","2022_Feb_28_1049","square","speed_accuracy_first","Practice",6,"ITI","Go","speed_accuracy",0,NA,"post_correct_inh",85.515873015873
103.031900337516,0.5,"ER05EL09","2022_Feb_28_1049","square","speed_accuracy_first","Practice",7,"Fixation","Go","speed_accuracy",1,0.198647286379128,"post_error_inh",85.515873015873
103.508125054832,0.1,"ER05EL09","2022_Feb_28_1049","square","speed_accuracy_first","Practice",7,"Target","Go","speed_accuracy",1,0.198647286379128,"post_error_inh",85.515873015873
103.608417215813,1.09864728637913,"ER05EL09","2022_Feb_28_1049","square","speed_accuracy_first","Practice",7,"ITI","Go","speed_accuracy",1,0.198647286379128,"post_error_inh",85.515873015873
103.706772341211,0,"ER05EL09","2022_Feb_28_1049","square","speed_accuracy_first","Practice",7,"Response","Go","speed_accuracy",1,0.198647286379128,"post_error_inh",85.515873015873
104.726877982649,0.5,"ER05EL09","2022_Feb_28_1049","square","speed_accuracy_first","Practice",8,"Fixation","NoGo","speed_accuracy",0,0.173634002571816,"post_correct_resp",85.515873015873
105.218384788427,0.1,"ER05EL09","2022_Feb_28_1049","square","speed_accuracy_first","Practice",8,"Target","NoGo","speed_accuracy",0,0.173634002571816,"post_correct_resp",85.515873015873
105.320104482726,1.07363400257182,"ER05EL09","2022_Feb_28_1049","square","speed_accuracy_first","Practice",8,"ITI","NoGo","speed_accuracy",0,0.173634002571816,"post_correct_resp",85.515873015873
105.392018790999,0,"ER05EL09","2022_Feb_28_1049","square","speed_accuracy_first","Practice",8,"Response","NoGo","speed_accuracy",0,0.173634002571816,"post_correct_resp",85.515873015873
106.42222873308,0.5,"ER05EL09","2022_Feb_28_1049","square","speed_accuracy_first","Practice",9,"Fixation","Go","speed_accuracy",0,NA,"post_error_resp",85.515873015873
106.913280992652,0.1,"ER05EL09","2022_Feb_28_1049","square","speed_accuracy_first","Practice",9,"Target","Go","speed_accuracy",0,NA,"post_error_resp",85.515873015873
107.014983140739,1.5,"ER05EL09","2022_Feb_28_1049","square","speed_accuracy_first","Practice",9,"ITI","Go","speed_accuracy",0,NA,"post_error_resp",85.515873015873
108.540638516583,0.5,"ER05EL09","2022_Feb_28_1049","square","speed_accuracy_first","Practice",10,"Fixation","Go","speed_accuracy",1,0.173944868478429,"post_error_inh",85.515873015873
109.015017239981,0.1,"ER05EL09","2022_Feb_28_1049","square","speed_accuracy_first","Practice",10,"Target","Go","speed_accuracy",1,0.173944868478429,"post_error_inh",85.515873015873
109.116735941097,1.07394486847843,"ER05EL09","2022_Feb_28_1049","square","speed_accuracy_first","Practice",10,"ITI","Go","speed_accuracy",1,0.173944868478429,"post_error_inh",85.515873015873
109.188962108459,0,"ER05EL09","2022_Feb_28_1049","square","speed_accuracy_first","Practice",10,"Response","Go","speed_accuracy",1,0.173944868478429,"post_error_inh",85.515873015873
110.218546346001,0.5,"ER05EL09","2022_Feb_28_1049","square","speed_accuracy_first","Practice",11,"Fixation","Go","speed_accuracy",1,0.267926683319274,"post_correct_resp",85.515873015873
110.693481913331,0.1,"ER05EL09","2022_Feb_28_1049","square","speed_accuracy_first","Practice",11,"Target","Go","speed_accuracy",1,0.267926683319274,"post_correct_resp",85.515873015873
110.795094343995,1.16792668331927,"ER05EL09","2022_Feb_28_1049","square","speed_accuracy_first","Practice",11,"ITI","Go","speed_accuracy",1,0.267926683319274,"post_correct_resp",85.515873015873
110.96140859665,0,"ER05EL09","2022_Feb_28_1049","square","speed_accuracy_first","Practice",11,"Response","Go","speed_accuracy",1,0.267926683319274,"post_correct_resp",85.515873015873
111.981623488087,0.5,"ER05EL09","2022_Feb_28_1049","square","speed_accuracy_first","Practice",12,"Fixation","Go","speed_accuracy",1,0.226912247421751,"post_correct_resp",85.515873015873
112.455861179668,0.1,"ER05EL09","2022_Feb_28_1049","square","speed_accuracy_first","Practice",12,"Target","Go","speed_accuracy",1,0.226912247421751,"post_correct_resp",85.515873015873
112.5575553823,1.12691224742175,"ER05EL09","2022_Feb_28_1049","square","speed_accuracy_first","Practice",12,"ITI","Go","speed_accuracy",1,0.226912247421751,"post_correct_resp",85.515873015873
112.68277342709,0,"ER05EL09","2022_Feb_28_1049","square","speed_accuracy_first","Practice",12,"Response","Go","speed_accuracy",1,0.226912247421751,"post_correct_resp",85.515873015873
113.710152801021,0.5,"ER05EL09","2022_Feb_28_1049","square","speed_accuracy_first","Practice",13,"Fixation","Go","speed_accuracy",1,0.216680157385781,"post_correct_resp",85.515873015873
114.184650375174,0.1,"ER05EL09","2022_Feb_28_1049","square","speed_accuracy_first","Practice",13,"Target","Go","speed_accuracy",1,0.216680157385781,"post_correct_resp",85.515873015873
114.286354840685,1.11668015738578,"ER05EL09","2022_Feb_28_1049","square","speed_accuracy_first","Practice",13,"ITI","Go","speed_accuracy",1,0.216680157385781,"post_correct_resp",85.515873015873
114.40133053256,0,"ER05EL09","2022_Feb_28_1049","square","speed_accuracy_first","Practice",13,"Response","Go","speed_accuracy",1,0.216680157385781,"post_correct_resp",85.515873015873
115.422066844446,0.5,"ER05EL09","2022_Feb_28_1049","square","speed_accuracy_first","Practice",14,"Fixation","Go","speed_accuracy",1,0.246550762349216,"post_correct_resp",85.515873015873
115.89672961784,0.1,"ER05EL09","2022_Feb_28_1049","square","speed_accuracy_first","Practice",14,"Target","Go","speed_accuracy",1,0.246550762349216,"post_correct_resp",85.515873015873
115.998799574256,1.14655076234922,"ER05EL09","2022_Feb_28_1049","square","speed_accuracy_first","Practice",14,"ITI","Go","speed_accuracy",1,0.246550762349216,"post_correct_resp",85.515873015873
116.143280380189,0,"ER05EL09","2022_Feb_28_1049","square","speed_accuracy_first","Practice",14,"Response","Go","speed_accuracy",1,0.246550762349216,"post_correct_resp",85.515873015873
125.930596124274,0.5,"ER05EL09","2022_Feb_28_1049","square","speed_accuracy_first","MainTask",0,"Fixation","Go","speed_accuracy",1,0.246170704777796,"post_correct_resp",85.515873015873
126.422675995954,0.1,"ER05EL09","2022_Feb_28_1049","square","speed_accuracy_first","MainTask",0,"Target","Go","speed_accuracy",1,0.246170704777796,"post_correct_resp",85.515873015873
126.524253003133,1.1461707047778,"ER05EL09","2022_Feb_28_1049","square","speed_accuracy_first","MainTask",0,"ITI","Go","speed_accuracy",1,0.246170704777796,"post_correct_resp",85.515873015873
126.668846700732,0,"ER05EL09","2022_Feb_28_1049","square","speed_accuracy_first","MainTask",0,"Response","Go","speed_accuracy",1,0.246170704777796,"post_correct_resp",85.515873015873
127.761024897412,0.5,"ER05EL09","2022_Feb_28_1049","square","speed_accuracy_first","MainTask",1,"Fixation","Go","speed_accuracy",0,NA,"post_correct_resp",85.515873015873
128.23575586929,0.1,"ER05EL09","2022_Feb_28_1049","square","speed_accuracy_first","MainTask",1,"Target","Go","speed_accuracy",0,NA,"post_correct_resp",85.515873015873
128.33745967268,1.5,"ER05EL09","2022_Feb_28_1049","square","speed_accuracy_first","MainTask",1,"ITI","Go","speed_accuracy",0,NA,"post_correct_resp",85.515873015873
129.896832577687,0.5,"ER05EL09","2022_Feb_28_1049","square","speed_accuracy_first","MainTask",2,"Fixation","Go","speed_accuracy",0,NA,"post_error_inh",85.515873015873
130.371530774566,0.1,"ER05EL09","2022_Feb_28_1049","square","speed_accuracy_first","MainTask",2,"Target","Go","speed_accuracy",0,NA,"post_error_inh",85.515873015873
130.473223321895,1.5,"ER05EL09","2022_Feb_28_1049","square","speed_accuracy_first","MainTask",2,"ITI","Go","speed_accuracy",0,NA,"post_error_inh",85.515873015873
132.032464133722,0.5,"ER05EL09","2022_Feb_28_1049","square","speed_accuracy_first","MainTask",3,"Fixation","NoGo","speed_accuracy",1,NA,"post_error_inh",85.515873015873
132.524270218285,0.1,"ER05EL09","2022_Feb_28_1049","square","speed_accuracy_first","MainTask",3,"Target","NoGo","speed_accuracy",1,NA,"post_error_inh",85.515873015873
132.626010438341,1.5,"ER05EL09","2022_Feb_28_1049","square","speed_accuracy_first","MainTask",3,"ITI","NoGo","speed_accuracy",1,NA,"post_error_inh",85.515873015873
134.168814091263,0.5,"ER05EL09","2022_Feb_28_1049","square","speed_accuracy_first","MainTask",4,"Fixation","NoGo","speed_accuracy",0,0.20665498022754,"post_correct_inh",85.515873015873
134.659724656897,0.1,"ER05EL09","2022_Feb_28_1049","square","speed_accuracy_first","MainTask",4,"Target","NoGo","speed_accuracy",0,0.20665498022754,"post_correct_inh",85.515873015873
134.761527778467,1.10665498022754,"ER05EL09","2022_Feb_28_1049","square","speed_accuracy_first","MainTask",4,"ITI","NoGo","speed_accuracy",0,0.20665498022754,"post_correct_inh",85.515873015873
134.866379637125,0,"ER05EL09","2022_Feb_28_1049","square","speed_accuracy_first","MainTask",4,"Response","NoGo","speed_accuracy",0,0.20665498022754,"post_correct_inh",85.515873015873
135.917527838058,0.5,"ER05EL09","2022_Feb_28_1049","square","speed_accuracy_first","MainTask",5,"Fixation","Go","speed_accuracy",1,0.355489564141863,"post_error_resp",85.515873015873
136.405550893119,0.1,"ER05EL09","2022_Feb_28_1049","square","speed_accuracy_first","MainTask",5,"Target","Go","speed_accuracy",1,0.355489564141863,"post_error_resp",85.515873015873
136.507198085145,1.25548956414186,"ER05EL09","2022_Feb_28_1049","square","speed_accuracy_first","MainTask",5,"ITI","Go","speed_accuracy",1,0.355489564141863,"post_error_resp",85.515873015873
136.761040457261,0,"ER05EL09","2022_Feb_28_1049","square","speed_accuracy_first","MainTask",5,"Response","Go","speed_accuracy",1,0.355489564141863,"post_error_resp",85.515873015873
137.796745012158,0.5,"ER05EL09","2022_Feb_28_1049","square","speed_accuracy_first","MainTask",6,"Fixation","Go","speed_accuracy",1,0.282455608910823,"post_correct_resp",85.515873015873
138.286789192195,0.1,"ER05EL09","2022_Feb_28_1049","square","speed_accuracy_first","MainTask",6,"Target","Go","speed_accuracy",1,0.282455608910823,"post_correct_resp",85.515873015873
138.38856715316,1.18245560891082,"ER05EL09","2022_Feb_28_1049","square","speed_accuracy_first","MainTask",6,"ITI","Go","speed_accuracy",1,0.282455608910823,"post_correct_resp",85.515873015873
138.569244801106,0,"ER05EL09","2022_Feb_28_1049","square","speed_accuracy_first","MainTask",6,"Response","Go","speed_accuracy",1,0.282455608910823,"post_correct_resp",85.515873015873
139.611569574869,0.5,"ER05EL09","2022_Feb_28_1049","square","speed_accuracy_first","MainTask",7,"Fixation","NoGo","speed_accuracy",0,0.261549131876563,"post_correct_resp",85.515873015873
140.100904623096,0.1,"ER05EL09","2022_Feb_28_1049","square","speed_accuracy_first","MainTask",7,"Target","NoGo","speed_accuracy",0,0.261549131876563,"post_correct_resp",85.515873015873
140.203553604505,1.16154913187656,"ER05EL09","2022_Feb_28_1049","square","speed_accuracy_first","MainTask",7,"ITI","NoGo","speed_accuracy",0,0.261549131876563,"post_correct_resp",85.515873015873
140.362453754973,0,"ER05EL09","2022_Feb_28_1049","square","speed_accuracy_first","MainTask",7,"Response","NoGo","speed_accuracy",0,0.261549131876563,"post_correct_resp",85.515873015873
141.422434652775,0.5,"ER05EL09","2022_Feb_28_1049","square","speed_accuracy_first","MainTask",8,"Fixation","Go","speed_accuracy",1,0.256285599360126,"post_error_resp",85.515873015873
141.914082821431,0.1,"ER05EL09","2022_Feb_28_1049","square","speed_accuracy_first","MainTask",8,"Target","Go","speed_accuracy",1,0.256285599360126,"post_error_resp",85.515873015873
142.015788611185,1.15628559936013,"ER05EL09","2022_Feb_28_1049","square","speed_accuracy_first","MainTask",8,"ITI","Go","speed_accuracy",1,0.256285599360126,"post_error_resp",85.515873015873
142.170368420791,0,"ER05EL09","2022_Feb_28_1049","square","speed_accuracy_first","MainTask",8,"Response","Go","speed_accuracy",1,0.256285599360126,"post_error_resp",85.515873015873
143.236641456402,0.5,"ER05EL09","2022_Feb_28_1049","square","speed_accuracy_first","MainTask",9,"Fixation","Go","speed_accuracy",1,0.305378245015163,"post_correct_resp",85.515873015873
143.710640784349,0.1,"ER05EL09","2022_Feb_28_1049","square","speed_accuracy_first","MainTask",9,"Target","Go","speed_accuracy",1,0.305378245015163,"post_correct_resp",85.515873015873
143.81241709001,1.20537824501516,"ER05EL09","2022_Feb_28_1049","square","speed_accuracy_first","MainTask",9,"ITI","Go","speed_accuracy",1,0.305378245015163,"post_correct_resp",85.515873015873
144.016019029364,0,"ER05EL09","2022_Feb_28_1049","square","speed_accuracy_first","MainTask",9,"Response","Go","speed_accuracy",1,0.305378245015163,"post_correct_resp",85.515873015873
145.066715332576,0.5,"ER05EL09","2022_Feb_28_1049","square","speed_accuracy_first","MainTask",10,"Fixation","NoGo","speed_accuracy",0,0.241148846502256,"post_correct_resp",85.515873015873
145.558260541384,0.1,"ER05EL09","2022_Feb_28_1049","square","speed_accuracy_first","MainTask",10,"Target","NoGo","speed_accuracy",0,0.241148846502256,"post_correct_resp",85.515873015873
145.659803780381,1.14114884650226,"ER05EL09","2022_Feb_28_1049","square","speed_accuracy_first","MainTask",10,"ITI","NoGo","speed_accuracy",0,0.241148846502256,"post_correct_resp",85.515873015873
145.799409387886,0,"ER05EL09","2022_Feb_28_1049","square","speed_accuracy_first","MainTask",10,"Response","NoGo","speed_accuracy",0,0.241148846502256,"post_correct_resp",85.515873015873
146.8632001311,0.5,"ER05EL09","2022_Feb_28_1049","square","speed_accuracy_first","MainTask",11,"Fixation","Go","speed_accuracy",1,0.295201442100733,"post_error_resp",85.515873015873
147.355030714147,0.1,"ER05EL09","2022_Feb_28_1049","square","speed_accuracy_first","MainTask",11,"Target","Go","speed_accuracy",1,0.295201442100733,"post_error_resp",85.515873015873
147.457014925867,1.19520144210073,"ER05EL09","2022_Feb_28_1049","square","speed_accuracy_first","MainTask",11,"ITI","Go","speed_accuracy",1,0.295201442100733,"post_error_resp",85.515873015873
147.650232156248,0,"ER05EL09","2022_Feb_28_1049","square","speed_accuracy_first","MainTask",11,"Response","Go","speed_accuracy",1,0.295201442100733,"post_error_resp",85.515873015873
148.710719907833,0.5,"ER05EL09","2022_Feb_28_1049","square","speed_accuracy_first","MainTask",12,"Fixation","Go","speed_accuracy",0,NA,"post_correct_resp",85.515873015873
149.185451872892,0.1,"ER05EL09","2022_Feb_28_1049","square","speed_accuracy_first","MainTask",12,"Target","Go","speed_accuracy",0,NA,"post_correct_resp",85.515873015873
149.28713846113,1.5,"ER05EL09","2022_Feb_28_1049","square","speed_accuracy_first","MainTask",12,"ITI","Go","speed_accuracy",0,NA,"post_correct_resp",85.515873015873
150.846380266139,0.5,"ER05EL09","2022_Feb_28_1049","square","speed_accuracy_first","MainTask",13,"Fixation","Go","speed_accuracy",1,0.298621298121361,"post_error_inh",85.515873015873
151.321092698623,0.1,"ER05EL09","2022_Feb_28_1049","square","speed_accuracy_first","MainTask",13,"Target","Go","speed_accuracy",1,0.298621298121361,"post_error_inh",85.515873015873
151.422785908075,1.19862129812136,"ER05EL09","2022_Feb_28_1049","square","speed_accuracy_first","MainTask",13,"ITI","Go","speed_accuracy",1,0.298621298121361,"post_error_inh",85.515873015873
151.619713996744,0,"ER05EL09","2022_Feb_28_1049","square","speed_accuracy_first","MainTask",13,"Response","Go","speed_accuracy",1,0.298621298121361,"post_error_inh",85.515873015873
152.677415211241,0.5,"ER05EL09","2022_Feb_28_1049","square","speed_accuracy_first","MainTask",14,"Fixation","NoGo","speed_accuracy",0,0.237379390484421,"post_correct_resp",85.515873015873
153.168438999601,0.1,"ER05EL09","2022_Feb_28_1049","square","speed_accuracy_first","MainTask",14,"Target","NoGo","speed_accuracy",0,0.237379390484421,"post_correct_resp",85.515873015873
153.270260329504,1.13737939048442,"ER05EL09","2022_Feb_28_1049","square","speed_accuracy_first","MainTask",14,"ITI","NoGo","speed_accuracy",0,0.237379390484421,"post_correct_resp",85.515873015873
153.405818390085,0,"ER05EL09","2022_Feb_28_1049","square","speed_accuracy_first","MainTask",14,"Response","NoGo","speed_accuracy",0,0.237379390484421,"post_correct_resp",85.515873015873
154.456786162991,0.5,"ER05EL09","2022_Feb_28_1049","square","speed_accuracy_first","MainTask",15,"Fixation","NoGo","speed_accuracy",1,NA,"post_error_resp",85.515873015873
154.931915731833,0.1,"ER05EL09","2022_Feb_28_1049","square","speed_accuracy_first","MainTask",15,"Target","NoGo","speed_accuracy",1,NA,"post_error_resp",85.515873015873
155.032940860989,1.5,"ER05EL09","2022_Feb_28_1049","square","speed_accuracy_first","MainTask",15,"ITI","NoGo","speed_accuracy",1,NA,"post_error_resp",85.515873015873
156.592425995541,0.5,"ER05EL09","2022_Feb_28_1049","square","speed_accuracy_first","MainTask",16,"Fixation","Go","speed_accuracy",1,0.197549820482891,"post_break",85.515873015873
157.083979811925,0.1,"ER05EL09","2022_Feb_28_1049","square","speed_accuracy_first","MainTask",16,"Target","Go","speed_accuracy",1,0.197549820482891,"post_break",85.515873015873
157.185537286528,1.09754982048289,"ER05EL09","2022_Feb_28_1049","square","speed_accuracy_first","MainTask",16,"ITI","Go","speed_accuracy",1,0.197549820482891,"post_break",85.515873015873
157.281529632408,0,"ER05EL09","2022_Feb_28_1049","square","speed_accuracy_first","MainTask",16,"Response","Go","speed_accuracy",1,0.197549820482891,"post_break",85.515873015873
158.33808670146,0.5,"ER05EL09","2022_Feb_28_1049","square","speed_accuracy_first","MainTask",17,"Fixation","NoGo","speed_accuracy",0,0.277206312000999,"post_correct_resp",85.515873015873
158.829697129207,0.1,"ER05EL09","2022_Feb_28_1049","square","speed_accuracy_first","MainTask",17,"Target","NoGo","speed_accuracy",0,0.277206312000999,"post_correct_resp",85.515873015873
158.931912090167,1.177206312001,"ER05EL09","2022_Feb_28_1049","square","speed_accuracy_first","MainTask",17,"ITI","NoGo","speed_accuracy",0,0.277206312000999,"post_correct_resp",85.515873015873
159.106903441208,0,"ER05EL09","2022_Feb_28_1049","square","speed_accuracy_first","MainTask",17,"Response","NoGo","speed_accuracy",0,0.277206312000999,"post_correct_resp",85.515873015873
160.169419270043,0.5,"ER05EL09","2022_Feb_28_1049","square","speed_accuracy_first","MainTask",18,"Fixation","Go","speed_accuracy",1,0.286575658106813,"post_error_resp",85.515873015873
160.660252698557,0.1,"ER05EL09","2022_Feb_28_1049","square","speed_accuracy_first","MainTask",18,"Target","Go","speed_accuracy",1,0.286575658106813,"post_error_resp",85.515873015873
160.76194657013,1.18657565810681,"ER05EL09","2022_Feb_28_1049","square","speed_accuracy_first","MainTask",18,"ITI","Go","speed_accuracy",1,0.286575658106813,"post_error_resp",85.515873015873
160.946828356664,0,"ER05EL09","2022_Feb_28_1049","square","speed_accuracy_first","MainTask",18,"Response","Go","speed_accuracy",1,0.286575658106813,"post_error_resp",85.515873015873
161.999374295461,0.5,"ER05EL09","2022_Feb_28_1049","square","speed_accuracy_first","MainTask",19,"Fixation","Go","speed_accuracy",0,NA,"post_correct_resp",85.515873015873
162.473897361282,0.1,"ER05EL09","2022_Feb_28_1049","square","speed_accuracy_first","MainTask",19,"Target","Go","speed_accuracy",0,NA,"post_correct_resp",85.515873015873
162.575479996491,1.5,"ER05EL09","2022_Feb_28_1049","square","speed_accuracy_first","MainTask",19,"ITI","Go","speed_accuracy",0,NA,"post_correct_resp",85.515873015873
164.135124040131,0.5,"ER05EL09","2022_Feb_28_1049","square","speed_accuracy_first","MainTask",20,"Fixation","Go","speed_accuracy",1,0.288185936875379,"post_error_inh",85.515873015873
164.609472968074,0.1,"ER05EL09","2022_Feb_28_1049","square","speed_accuracy_first","MainTask",20,"Target","Go","speed_accuracy",1,0.288185936875379,"post_error_inh",85.515873015873
164.711178095706,1.18818593687538,"ER05EL09","2022_Feb_28_1049","square","speed_accuracy_first","MainTask",20,"ITI","Go","speed_accuracy",1,0.288185936875379,"post_error_inh",85.515873015873
164.897658904949,0,"ER05EL09","2022_Feb_28_1049","square","speed_accuracy_first","MainTask",20,"Response","Go","speed_accuracy",1,0.288185936875379,"post_error_inh",85.515873015873
165.948497564221,0.5,"ER05EL09","2022_Feb_28_1049","square","speed_accuracy_first","MainTask",21,"Fixation","NoGo","speed_accuracy",1,NA,"post_correct_resp",85.515873015873
166.441025360897,0.1,"ER05EL09","2022_Feb_28_1049","square","speed_accuracy_first","MainTask",21,"Target","NoGo","speed_accuracy",1,NA,"post_correct_resp",85.515873015873
166.541679702177,1.5,"ER05EL09","2022_Feb_28_1049","square","speed_accuracy_first","MainTask",21,"ITI","NoGo","speed_accuracy",1,NA,"post_correct_resp",85.515873015873
168.101026784458,0.5,"ER05EL09","2022_Feb_28_1049","square","speed_accuracy_first","MainTask",22,"Fixation","Go","speed_accuracy",1,0.244565391916694,"post_correct_inh",85.515873015873
168.59277725084,0.1,"ER05EL09","2022_Feb_28_1049","square","speed_accuracy_first","MainTask",22,"Target","Go","speed_accuracy",1,0.244565391916694,"post_correct_inh",85.515873015873
168.694094044386,1.14456539191669,"ER05EL09","2022_Feb_28_1049","square","speed_accuracy_first","MainTask",22,"ITI","Go","speed_accuracy",1,0.244565391916694,"post_correct_inh",85.515873015873
168.837342642757,0,"ER05EL09","2022_Feb_28_1049","square","speed_accuracy_first","MainTask",22,"Response","Go","speed_accuracy",1,0.244565391916694,"post_correct_inh",85.515873015873
169.897633744346,0.5,"ER05EL09","2022_Feb_28_1049","square","speed_accuracy_first","MainTask",23,"Fixation","Go","speed_accuracy",0,NA,"post_correct_resp",85.515873015873
170.372323333648,0.1,"ER05EL09","2022_Feb_28_1049","square","speed_accuracy_first","MainTask",23,"Target","Go","speed_accuracy",0,NA,"post_correct_resp",85.515873015873
170.474456853699,1.5,"ER05EL09","2022_Feb_28_1049","square","speed_accuracy_first","MainTask",23,"ITI","Go","speed_accuracy",0,NA,"post_correct_resp",85.515873015873
172.033251726894,0.5,"ER05EL09","2022_Feb_28_1049","square","speed_accuracy_first","MainTask",24,"Fixation","Go","speed_accuracy",1,0.46968792572261,"post_error_inh",85.515873015873
172.50806347756,0.1,"ER05EL09","2022_Feb_28_1049","square","speed_accuracy_first","MainTask",24,"Target","Go","speed_accuracy",1,0.46968792572261,"post_error_inh",85.515873015873
172.610073843067,1.36968792572261,"ER05EL09","2022_Feb_28_1049","square","speed_accuracy_first","MainTask",24,"ITI","Go","speed_accuracy",1,0.46968792572261,"post_error_inh",85.515873015873
172.977751403283,0,"ER05EL09","2022_Feb_28_1049","square","speed_accuracy_first","MainTask",24,"Response","Go","speed_accuracy",1,0.46968792572261,"post_error_inh",85.515873015873
174.033264969319,0.5,"ER05EL09","2022_Feb_28_1049","square","speed_accuracy_first","MainTask",25,"Fixation","NoGo","speed_accuracy",1,NA,"post_correct_resp",85.515873015873
174.524922076611,0.1,"ER05EL09","2022_Feb_28_1049","square","speed_accuracy_first","MainTask",25,"Target","NoGo","speed_accuracy",1,NA,"post_correct_resp",85.515873015873
174.626725860302,1.5,"ER05EL09","2022_Feb_28_1049","square","speed_accuracy_first","MainTask",25,"ITI","NoGo","speed_accuracy",1,NA,"post_correct_resp",85.515873015873
176.185840206979,0.5,"ER05EL09","2022_Feb_28_1049","square","speed_accuracy_first","MainTask",26,"Fixation","Go","speed_accuracy",1,0.253589110754547,"post_correct_inh",85.515873015873
176.677486389272,0.1,"ER05EL09","2022_Feb_28_1049","square","speed_accuracy_first","MainTask",26,"Target","Go","speed_accuracy",1,0.253589110754547,"post_correct_inh",85.515873015873
176.762652060273,1.15358911075455,"ER05EL09","2022_Feb_28_1049","square","speed_accuracy_first","MainTask",26,"ITI","Go","speed_accuracy",1,0.253589110754547,"post_correct_inh",85.515873015873
176.931075500027,0,"ER05EL09","2022_Feb_28_1049","square","speed_accuracy_first","MainTask",26,"Response","Go","speed_accuracy",1,0.253589110754547,"post_correct_inh",85.515873015873
177.983439686552,0.5,"ER05EL09","2022_Feb_28_1049","square","speed_accuracy_first","MainTask",27,"Fixation","Go","speed_accuracy",1,0.427373745900695,"post_correct_resp",85.515873015873
178.47408904537,0.1,"ER05EL09","2022_Feb_28_1049","square","speed_accuracy_first","MainTask",27,"Target","Go","speed_accuracy",1,0.427373745900695,"post_correct_resp",85.515873015873
178.558818709558,1.3273737459007,"ER05EL09","2022_Feb_28_1049","square","speed_accuracy_first","MainTask",27,"ITI","Go","speed_accuracy",1,0.427373745900695,"post_correct_resp",85.515873015873
178.901462791271,0,"ER05EL09","2022_Feb_28_1049","square","speed_accuracy_first","MainTask",27,"Response","Go","speed_accuracy",1,0.427373745900695,"post_correct_resp",85.515873015873
179.966119257961,0.5,"ER05EL09","2022_Feb_28_1049","square","speed_accuracy_first","MainTask",28,"Fixation","NoGo","speed_accuracy",0,0.230729376165982,"post_correct_resp",85.515873015873
180.45715893723,0.1,"ER05EL09","2022_Feb_28_1049","square","speed_accuracy_first","MainTask",28,"Target","NoGo","speed_accuracy",0,0.230729376165982,"post_correct_resp",85.515873015873
180.558837248953,1.13072937616598,"ER05EL09","2022_Feb_28_1049","square","speed_accuracy_first","MainTask",28,"ITI","NoGo","speed_accuracy",0,0.230729376165982,"post_correct_resp",85.515873015873
180.687888313396,0,"ER05EL09","2022_Feb_28_1049","square","speed_accuracy_first","MainTask",28,"Response","NoGo","speed_accuracy",0,0.230729376165982,"post_correct_resp",85.515873015873
181.745208808197,0.5,"ER05EL09","2022_Feb_28_1049","square","speed_accuracy_first","MainTask",29,"Fixation","Go","speed_accuracy",1,0.30391197760764,"post_error_resp",85.515873015873
182.237029128366,0.1,"ER05EL09","2022_Feb_28_1049","square","speed_accuracy_first","MainTask",29,"Target","Go","speed_accuracy",1,0.30391197760764,"post_error_resp",85.515873015873
182.33846543479,1.20391197760764,"ER05EL09","2022_Feb_28_1049","square","speed_accuracy_first","MainTask",29,"ITI","Go","speed_accuracy",1,0.30391197760764,"post_error_resp",85.515873015873
182.540941105974,0,"ER05EL09","2022_Feb_28_1049","square","speed_accuracy_first","MainTask",29,"Response","Go","speed_accuracy",1,0.30391197760764,"post_error_resp",85.515873015873
183.592686540234,0.5,"ER05EL09","2022_Feb_28_1049","square","speed_accuracy_first","MainTask",30,"Fixation","NoGo","speed_accuracy",1,NA,"post_correct_resp",85.515873015873
184.084662127825,0.1,"ER05EL09","2022_Feb_28_1049","square","speed_accuracy_first","MainTask",30,"Target","NoGo","speed_accuracy",1,NA,"post_correct_resp",85.515873015873
184.18631925167,1.5,"ER05EL09","2022_Feb_28_1049","square","speed_accuracy_first","MainTask",30,"ITI","NoGo","speed_accuracy",1,NA,"post_correct_resp",85.515873015873
185.74529223547,0.5,"ER05EL09","2022_Feb_28_1049","square","speed_accuracy_first","MainTask",31,"Fixation","Go","speed_accuracy",1,0.225057645928246,"post_correct_inh",85.515873015873
186.237378728363,0.1,"ER05EL09","2022_Feb_28_1049","square","speed_accuracy_first","MainTask",31,"Target","Go","speed_accuracy",1,0.225057645928246,"post_correct_inh",85.515873015873
186.340054194621,1.12505764592825,"ER05EL09","2022_Feb_28_1049","square","speed_accuracy_first","MainTask",31,"ITI","Go","speed_accuracy",1,0.225057645928246,"post_correct_inh",85.515873015873
186.462436374291,0,"ER05EL09","2022_Feb_28_1049","square","speed_accuracy_first","MainTask",31,"Response","Go","speed_accuracy",1,0.225057645928246,"post_correct_inh",85.515873015873
187.525016428883,0.5,"ER05EL09","2022_Feb_28_1049","square","speed_accuracy_first","MainTask",32,"Fixation","Go","speed_accuracy",1,0.305147164714072,"post_correct_resp",85.515873015873
187.999676553791,0.1,"ER05EL09","2022_Feb_28_1049","square","speed_accuracy_first","MainTask",32,"Target","Go","speed_accuracy",1,0.305147164714072,"post_correct_resp",85.515873015873
188.101350561727,1.20514716471407,"ER05EL09","2022_Feb_28_1049","square","speed_accuracy_first","MainTask",32,"ITI","Go","speed_accuracy",1,0.305147164714072,"post_correct_resp",85.515873015873
188.304823718505,0,"ER05EL09","2022_Feb_28_1049","square","speed_accuracy_first","MainTask",32,"Response","Go","speed_accuracy",1,0.305147164714072,"post_correct_resp",85.515873015873
189.356116261863,0.5,"ER05EL09","2022_Feb_28_1049","square","speed_accuracy_first","MainTask",33,"Fixation","Go","speed_accuracy",1,0.305930123038706,"post_correct_resp",85.515873015873
189.847062250979,0.1,"ER05EL09","2022_Feb_28_1049","square","speed_accuracy_first","MainTask",33,"Target","Go","speed_accuracy",1,0.305930123038706,"post_correct_resp",85.515873015873
189.932004125016,1.20593012303871,"ER05EL09","2022_Feb_28_1049","square","speed_accuracy_first","MainTask",33,"ITI","Go","speed_accuracy",1,0.305930123038706,"post_correct_resp",85.515873015873
190.152992374018,0,"ER05EL09","2022_Feb_28_1049","square","speed_accuracy_first","MainTask",33,"Response","Go","speed_accuracy",1,0.305930123038706,"post_correct_resp",85.515873015873
191.203225523448,0.5,"ER05EL09","2022_Feb_28_1049","square","speed_accuracy_first","MainTask",34,"Fixation","NoGo","speed_accuracy",1,NA,"post_correct_resp",85.515873015873
191.694666117106,0.1,"ER05EL09","2022_Feb_28_1049","square","speed_accuracy_first","MainTask",34,"Target","NoGo","speed_accuracy",1,NA,"post_correct_resp",85.515873015873
191.7964497061,1.5,"ER05EL09","2022_Feb_28_1049","square","speed_accuracy_first","MainTask",34,"ITI","NoGo","speed_accuracy",1,NA,"post_correct_resp",85.515873015873
193.355830556562,0.5,"ER05EL09","2022_Feb_28_1049","square","speed_accuracy_first","MainTask",35,"Fixation","NoGo","speed_accuracy",0,0.322032910735288,"post_correct_inh",85.515873015873
193.830293369352,0.1,"ER05EL09","2022_Feb_28_1049","square","speed_accuracy_first","MainTask",35,"Target","NoGo","speed_accuracy",0,0.322032910735288,"post_correct_inh",85.515873015873
193.932068350772,1.22203291073529,"ER05EL09","2022_Feb_28_1049","square","speed_accuracy_first","MainTask",35,"ITI","NoGo","speed_accuracy",0,0.322032910735288,"post_correct_inh",85.515873015873
194.152326280087,0,"ER05EL09","2022_Feb_28_1049","square","speed_accuracy_first","MainTask",35,"Response","NoGo","speed_accuracy",0,0.322032910735288,"post_correct_inh",85.515873015873
195.203203011328,0.5,"ER05EL09","2022_Feb_28_1049","square","speed_accuracy_first","MainTask",36,"Fixation","NoGo","speed_accuracy",0,0.298538532972088,"post_error_resp",85.515873015873
195.678344498352,0.1,"ER05EL09","2022_Feb_28_1049","square","speed_accuracy_first","MainTask",36,"Target","NoGo","speed_accuracy",0,0.298538532972088,"post_error_resp",85.515873015873
195.780753129764,1.19853853297209,"ER05EL09","2022_Feb_28_1049","square","speed_accuracy_first","MainTask",36,"ITI","NoGo","speed_accuracy",0,0.298538532972088,"post_error_resp",85.515873015873
195.976883031324,0,"ER05EL09","2022_Feb_28_1049","square","speed_accuracy_first","MainTask",36,"Response","NoGo","speed_accuracy",0,0.298538532972088,"post_error_resp",85.515873015873
197.033746662495,0.5,"ER05EL09","2022_Feb_28_1049","square","speed_accuracy_first","MainTask",37,"Fixation","Go","speed_accuracy",0,NA,"post_error_resp",85.515873015873
197.525428930392,0.1,"ER05EL09","2022_Feb_28_1049","square","speed_accuracy_first","MainTask",37,"Target","Go","speed_accuracy",0,NA,"post_error_resp",85.515873015873
197.627051954996,1.5,"ER05EL09","2022_Feb_28_1049","square","speed_accuracy_first","MainTask",37,"ITI","Go","speed_accuracy",0,NA,"post_error_resp",85.515873015873
199.186392747124,0.5,"ER05EL09","2022_Feb_28_1049","square","speed_accuracy_first","MainTask",38,"Fixation","Go","speed_accuracy",1,0.285756283115916,"post_error_inh",85.515873015873
199.661003875064,0.1,"ER05EL09","2022_Feb_28_1049","square","speed_accuracy_first","MainTask",38,"Target","Go","speed_accuracy",1,0.285756283115916,"post_error_inh",85.515873015873
199.762833481484,1.18575628311592,"ER05EL09","2022_Feb_28_1049","square","speed_accuracy_first","MainTask",38,"ITI","Go","speed_accuracy",1,0.285756283115916,"post_error_inh",85.515873015873
199.94676015818,0,"ER05EL09","2022_Feb_28_1049","square","speed_accuracy_first","MainTask",38,"Response","Go","speed_accuracy",1,0.285756283115916,"post_error_inh",85.515873015873
201.001582138619,0.5,"ER05EL09","2022_Feb_28_1049","square","speed_accuracy_first","MainTask",39,"Fixation","Go","speed_accuracy",1,0.325014111458586,"post_correct_resp",85.515873015873
201.491489259566,0.1,"ER05EL09","2022_Feb_28_1049","square","speed_accuracy_first","MainTask",39,"Target","Go","speed_accuracy",1,0.325014111458586,"post_correct_resp",85.515873015873
201.576252691937,1.22501411145859,"ER05EL09","2022_Feb_28_1049","square","speed_accuracy_first","MainTask",39,"ITI","Go","speed_accuracy",1,0.325014111458586,"post_correct_resp",85.515873015873
201.816503371025,0,"ER05EL09","2022_Feb_28_1049","square","speed_accuracy_first","MainTask",39,"Response","Go","speed_accuracy",1,0.325014111458586,"post_correct_resp",85.515873015873
202.881409457408,0.5,"ER05EL09","2022_Feb_28_1049","square","speed_accuracy_first","MainTask",40,"Fixation","Go","speed_accuracy",1,0.215524424822434,"post_correct_resp",85.515873015873
203.372886467732,0.1,"ER05EL09","2022_Feb_28_1049","square","speed_accuracy_first","MainTask",40,"Target","Go","speed_accuracy",1,0.215524424822434,"post_correct_resp",85.515873015873
203.457641954648,1.11552442482243,"ER05EL09","2022_Feb_28_1049","square","speed_accuracy_first","MainTask",40,"ITI","Go","speed_accuracy",1,0.215524424822434,"post_correct_resp",85.515873015873
203.588410892554,0,"ER05EL09","2022_Feb_28_1049","square","speed_accuracy_first","MainTask",40,"Response","Go","speed_accuracy",1,0.215524424822434,"post_correct_resp",85.515873015873
204.644015169197,0.5,"ER05EL09","2022_Feb_28_1049","square","speed_accuracy_first","MainTask",41,"Fixation","Go","speed_accuracy",1,0.417270769501556,"post_correct_resp",85.515873015873
205.119191748645,0.1,"ER05EL09","2022_Feb_28_1049","square","speed_accuracy_first","MainTask",41,"Target","Go","speed_accuracy",1,0.417270769501556,"post_correct_resp",85.515873015873
205.221544761876,1.31727076950156,"ER05EL09","2022_Feb_28_1049","square","speed_accuracy_first","MainTask",41,"ITI","Go","speed_accuracy",1,0.417270769501556,"post_correct_resp",85.515873015873
205.536462518147,0,"ER05EL09","2022_Feb_28_1049","square","speed_accuracy_first","MainTask",41,"Response","Go","speed_accuracy",1,0.417270769501556,"post_correct_resp",85.515873015873
206.593213257653,0.5,"ER05EL09","2022_Feb_28_1049","square","speed_accuracy_first","MainTask",42,"Fixation","NoGo","speed_accuracy",0,0.244644184342178,"post_correct_resp",85.515873015873
207.084944191458,0.1,"ER05EL09","2022_Feb_28_1049","square","speed_accuracy_first","MainTask",42,"Target","NoGo","speed_accuracy",0,0.244644184342178,"post_correct_resp",85.515873015873
207.187094595602,1.14464418434218,"ER05EL09","2022_Feb_28_1049","square","speed_accuracy_first","MainTask",42,"ITI","NoGo","speed_accuracy",0,0.244644184342178,"post_correct_resp",85.515873015873
207.3295883758,0,"ER05EL09","2022_Feb_28_1049","square","speed_accuracy_first","MainTask",42,"Response","NoGo","speed_accuracy",0,0.244644184342178,"post_correct_resp",85.515873015873
208.39075480162,0.5,"ER05EL09","2022_Feb_28_1049","square","speed_accuracy_first","MainTask",43,"Fixation","Go","speed_accuracy",0,NA,"post_error_resp",85.515873015873
208.881500168012,0.1,"ER05EL09","2022_Feb_28_1049","square","speed_accuracy_first","MainTask",43,"Target","Go","speed_accuracy",0,NA,"post_error_resp",85.515873015873
208.983192715343,1.5,"ER05EL09","2022_Feb_28_1049","square","speed_accuracy_first","MainTask",43,"ITI","Go","speed_accuracy",0,NA,"post_error_resp",85.515873015873
210.525820906145,0.5,"ER05EL09","2022_Feb_28_1049","square","speed_accuracy_first","MainTask",44,"Fixation","Go","speed_accuracy",1,0.249934532766929,"post_error_inh",85.515873015873
211.000172482574,0.1,"ER05EL09","2022_Feb_28_1049","square","speed_accuracy_first","MainTask",44,"Target","Go","speed_accuracy",1,0.249934532766929,"post_error_inh",85.515873015873
211.101834572328,1.14993453276693,"ER05EL09","2022_Feb_28_1049","square","speed_accuracy_first","MainTask",44,"ITI","Go","speed_accuracy",1,0.249934532766929,"post_error_inh",85.515873015873
211.250107015341,0,"ER05EL09","2022_Feb_28_1049","square","speed_accuracy_first","MainTask",44,"Response","Go","speed_accuracy",1,0.249934532766929,"post_error_inh",85.515873015873
212.305248138198,0.5,"ER05EL09","2022_Feb_28_1049","square","speed_accuracy_first","MainTask",45,"Fixation","NoGo","speed_accuracy",0,0.263598728064608,"post_correct_resp",85.515873015873
212.796600007614,0.1,"ER05EL09","2022_Feb_28_1049","square","speed_accuracy_first","MainTask",45,"Target","NoGo","speed_accuracy",0,0.263598728064608,"post_correct_resp",85.515873015873
212.898272029186,1.16359872806461,"ER05EL09","2022_Feb_28_1049","square","speed_accuracy_first","MainTask",45,"ITI","NoGo","speed_accuracy",0,0.263598728064608,"post_correct_resp",85.515873015873
213.060198735679,0,"ER05EL09","2022_Feb_28_1049","square","speed_accuracy_first","MainTask",45,"Response","NoGo","speed_accuracy",0,0.263598728064608,"post_correct_resp",85.515873015873
214.118741175165,0.5,"ER05EL09","2022_Feb_28_1049","square","speed_accuracy_first","MainTask",46,"Fixation","Go","speed_accuracy",0,NA,"post_error_resp",85.515873015873
214.611942349107,0.1,"ER05EL09","2022_Feb_28_1049","square","speed_accuracy_first","MainTask",46,"Target","Go","speed_accuracy",0,NA,"post_error_resp",85.515873015873
214.712312640389,1.5,"ER05EL09","2022_Feb_28_1049","square","speed_accuracy_first","MainTask",46,"ITI","Go","speed_accuracy",0,NA,"post_error_resp",85.515873015873
216.271287610552,0.5,"ER05EL09","2022_Feb_28_1049","square","speed_accuracy_first","MainTask",47,"Fixation","Go","speed_accuracy",1,0.259866681895801,"post_error_inh",85.515873015873
216.747359046811,0.1,"ER05EL09","2022_Feb_28_1049","square","speed_accuracy_first","MainTask",47,"Target","Go","speed_accuracy",1,0.259866681895801,"post_error_inh",85.515873015873
216.847685969155,1.1598666818958,"ER05EL09","2022_Feb_28_1049","square","speed_accuracy_first","MainTask",47,"ITI","Go","speed_accuracy",1,0.259866681895801,"post_error_inh",85.515873015873
217.007225728707,0,"ER05EL09","2022_Feb_28_1049","square","speed_accuracy_first","MainTask",47,"Response","Go","speed_accuracy",1,0.259866681895801,"post_error_inh",85.515873015873
218.067909799229,0.5,"ER05EL09","2022_Feb_28_1049","square","speed_accuracy_first","MainTask",48,"Fixation","Go","speed_accuracy",1,0.264623029568611,"post_correct_resp",85.515873015873
218.542607002924,0.1,"ER05EL09","2022_Feb_28_1049","square","speed_accuracy_first","MainTask",48,"Target","Go","speed_accuracy",1,0.264623029568611,"post_correct_resp",85.515873015873
218.644435616161,1.16462302956861,"ER05EL09","2022_Feb_28_1049","square","speed_accuracy_first","MainTask",48,"ITI","Go","speed_accuracy",1,0.264623029568611,"post_correct_resp",85.515873015873
218.807230032493,0,"ER05EL09","2022_Feb_28_1049","square","speed_accuracy_first","MainTask",48,"Response","Go","speed_accuracy",1,0.264623029568611,"post_correct_resp",85.515873015873
219.866380961366,0.5,"ER05EL09","2022_Feb_28_1049","square","speed_accuracy_first","MainTask",49,"Fixation","Go","speed_accuracy",1,0.265343417438999,"post_correct_resp",85.515873015873
220.339307652963,0.1,"ER05EL09","2022_Feb_28_1049","square","speed_accuracy_first","MainTask",49,"Target","Go","speed_accuracy",1,0.265343417438999,"post_correct_resp",85.515873015873
220.440954513928,1.165343417439,"ER05EL09","2022_Feb_28_1049","square","speed_accuracy_first","MainTask",49,"ITI","Go","speed_accuracy",1,0.265343417438999,"post_correct_resp",85.515873015873
220.604651070402,0,"ER05EL09","2022_Feb_28_1049","square","speed_accuracy_first","MainTask",49,"Response","Go","speed_accuracy",1,0.265343417438999,"post_correct_resp",85.515873015873
221.661287594001,0.5,"ER05EL09","2022_Feb_28_1049","square","speed_accuracy_first","MainTask",50,"Fixation","Go","speed_accuracy",1,0.349136180124333,"post_correct_resp",85.515873015873
222.135789471942,0.1,"ER05EL09","2022_Feb_28_1049","square","speed_accuracy_first","MainTask",50,"Target","Go","speed_accuracy",1,0.349136180124333,"post_correct_resp",85.515873015873
222.237513138967,1.24913618012433,"ER05EL09","2022_Feb_28_1049","square","speed_accuracy_first","MainTask",50,"ITI","Go","speed_accuracy",1,0.349136180124333,"post_correct_resp",85.515873015873
222.484925652066,0,"ER05EL09","2022_Feb_28_1049","square","speed_accuracy_first","MainTask",50,"Response","Go","speed_accuracy",1,0.349136180124333,"post_correct_resp",85.515873015873
223.542590780955,0.5,"ER05EL09","2022_Feb_28_1049","square","speed_accuracy_first","MainTask",51,"Fixation","Go","speed_accuracy",1,0.339725120380535,"post_correct_resp",85.515873015873
224.017660427829,0.1,"ER05EL09","2022_Feb_28_1049","square","speed_accuracy_first","MainTask",51,"Target","Go","speed_accuracy",1,0.339725120380535,"post_correct_resp",85.515873015873
224.119884327425,1.23972512038054,"ER05EL09","2022_Feb_28_1049","square","speed_accuracy_first","MainTask",51,"ITI","Go","speed_accuracy",1,0.339725120380535,"post_correct_resp",85.515873015873
224.35738554821,0,"ER05EL09","2022_Feb_28_1049","square","speed_accuracy_first","MainTask",51,"Response","Go","speed_accuracy",1,0.339725120380535,"post_correct_resp",85.515873015873
225.42387708382,0.5,"ER05EL09","2022_Feb_28_1049","square","speed_accuracy_first","MainTask",52,"Fixation","NoGo","speed_accuracy",1,NA,"post_correct_resp",85.515873015873
225.91565966308,0.1,"ER05EL09","2022_Feb_28_1049","square","speed_accuracy_first","MainTask",52,"Target","NoGo","speed_accuracy",1,NA,"post_correct_resp",85.515873015873
226.017712404344,1.5,"ER05EL09","2022_Feb_28_1049","square","speed_accuracy_first","MainTask",52,"ITI","NoGo","speed_accuracy",1,NA,"post_correct_resp",85.515873015873
227.576517540418,0.5,"ER05EL09","2022_Feb_28_1049","square","speed_accuracy_first","MainTask",53,"Fixation","Go","speed_accuracy",1,0.226382550457856,"post_correct_inh",85.515873015873
228.068275952253,0.1,"ER05EL09","2022_Feb_28_1049","square","speed_accuracy_first","MainTask",53,"Target","Go","speed_accuracy",1,0.226382550457856,"post_correct_inh",85.515873015873
228.170349219276,1.12638255045786,"ER05EL09","2022_Feb_28_1049","square","speed_accuracy_first","MainTask",53,"ITI","Go","speed_accuracy",1,0.226382550457856,"post_correct_inh",85.515873015873
228.294658502711,0,"ER05EL09","2022_Feb_28_1049","square","speed_accuracy_first","MainTask",53,"Response","Go","speed_accuracy",1,0.226382550457856,"post_correct_inh",85.515873015873
229.357217038365,0.5,"ER05EL09","2022_Feb_28_1049","square","speed_accuracy_first","MainTask",54,"Fixation","Go","speed_accuracy",1,0.330760992454088,"post_correct_resp",85.515873015873
229.830895237528,0.1,"ER05EL09","2022_Feb_28_1049","square","speed_accuracy_first","MainTask",54,"Target","Go","speed_accuracy",1,0.330760992454088,"post_correct_resp",85.515873015873
229.932609634856,1.23076099245409,"ER05EL09","2022_Feb_28_1049","square","speed_accuracy_first","MainTask",54,"ITI","Go","speed_accuracy",1,0.330760992454088,"post_correct_resp",85.515873015873
230.161656229982,0,"ER05EL09","2022_Feb_28_1049","square","speed_accuracy_first","MainTask",54,"Response","Go","speed_accuracy",1,0.330760992454088,"post_correct_resp",85.515873015873
231.220880323248,0.5,"ER05EL09","2022_Feb_28_1049","square","speed_accuracy_first","MainTask",55,"Fixation","Go","speed_accuracy",1,0.291769005776587,"post_correct_resp",85.515873015873
231.695328900432,0.1,"ER05EL09","2022_Feb_28_1049","square","speed_accuracy_first","MainTask",55,"Target","Go","speed_accuracy",1,0.291769005776587,"post_correct_resp",85.515873015873
231.796944641701,1.19176900577659,"ER05EL09","2022_Feb_28_1049","square","speed_accuracy_first","MainTask",55,"ITI","Go","speed_accuracy",1,0.291769005776587,"post_correct_resp",85.515873015873
231.987097906209,0,"ER05EL09","2022_Feb_28_1049","square","speed_accuracy_first","MainTask",55,"Response","Go","speed_accuracy",1,0.291769005776587,"post_correct_resp",85.515873015873
233.051262416842,0.5,"ER05EL09","2022_Feb_28_1049","square","speed_accuracy_first","MainTask",56,"Fixation","Go","speed_accuracy",1,0.283903999046743,"post_correct_resp",85.515873015873
233.527129588707,0.1,"ER05EL09","2022_Feb_28_1049","square","speed_accuracy_first","MainTask",56,"Target","Go","speed_accuracy",1,0.283903999046743,"post_correct_resp",85.515873015873
233.627526364839,1.18390399904674,"ER05EL09","2022_Feb_28_1049","square","speed_accuracy_first","MainTask",56,"ITI","Go","speed_accuracy",1,0.283903999046743,"post_correct_resp",85.515873015873
233.811033587754,0,"ER05EL09","2022_Feb_28_1049","square","speed_accuracy_first","MainTask",56,"Response","Go","speed_accuracy",1,0.283903999046743,"post_correct_resp",85.515873015873
234.864776310627,0.5,"ER05EL09","2022_Feb_28_1049","square","speed_accuracy_first","MainTask",57,"Fixation","NoGo","speed_accuracy",1,NA,"post_correct_resp",85.515873015873
235.356399318676,0.1,"ER05EL09","2022_Feb_28_1049","square","speed_accuracy_first","MainTask",57,"Target","NoGo","speed_accuracy",1,NA,"post_correct_resp",85.515873015873
235.458465302365,1.5,"ER05EL09","2022_Feb_28_1049","square","speed_accuracy_first","MainTask",57,"ITI","NoGo","speed_accuracy",1,NA,"post_correct_resp",85.515873015873
237.017325394499,0.5,"ER05EL09","2022_Feb_28_1049","square","speed_accuracy_first","MainTask",58,"Fixation","NoGo","speed_accuracy",1,NA,"post_correct_inh",85.515873015873
237.492016639106,0.1,"ER05EL09","2022_Feb_28_1049","square","speed_accuracy_first","MainTask",58,"Target","NoGo","speed_accuracy",1,NA,"post_correct_inh",85.515873015873
237.594170684915,1.5,"ER05EL09","2022_Feb_28_1049","square","speed_accuracy_first","MainTask",58,"ITI","NoGo","speed_accuracy",1,NA,"post_correct_inh",85.515873015873
239.15297648311,0.5,"ER05EL09","2022_Feb_28_1049","square","speed_accuracy_first","MainTask",59,"Fixation","Go","speed_accuracy",1,0.294176478475492,"post_correct_inh",85.515873015873
239.644886189641,0.1,"ER05EL09","2022_Feb_28_1049","square","speed_accuracy_first","MainTask",59,"Target","Go","speed_accuracy",1,0.294176478475492,"post_correct_inh",85.515873015873
239.746739301363,1.19417647847549,"ER05EL09","2022_Feb_28_1049","square","speed_accuracy_first","MainTask",59,"ITI","Go","speed_accuracy",1,0.294176478475492,"post_correct_inh",85.515873015873
239.939062668116,0,"ER05EL09","2022_Feb_28_1049","square","speed_accuracy_first","MainTask",59,"Response","Go","speed_accuracy",1,0.294176478475492,"post_correct_inh",85.515873015873
241.000417136358,0.5,"ER05EL09","2022_Feb_28_1049","square","speed_accuracy_first","MainTask",60,"Fixation","Go","speed_accuracy",0,NA,"post_correct_resp",85.515873015873
241.475072295359,0.1,"ER05EL09","2022_Feb_28_1049","square","speed_accuracy_first","MainTask",60,"Target","Go","speed_accuracy",0,NA,"post_correct_resp",85.515873015873
241.576805232082,1.5,"ER05EL09","2022_Feb_28_1049","square","speed_accuracy_first","MainTask",60,"ITI","Go","speed_accuracy",0,NA,"post_correct_resp",85.515873015873
243.136057631029,0.5,"ER05EL09","2022_Feb_28_1049","square","speed_accuracy_first","MainTask",61,"Fixation","NoGo","speed_accuracy",1,NA,"post_error_inh",85.515873015873
243.627670707261,0.1,"ER05EL09","2022_Feb_28_1049","square","speed_accuracy_first","MainTask",61,"Target","NoGo","speed_accuracy",1,NA,"post_error_inh",85.515873015873
243.729387422014,1.5,"ER05EL09","2022_Feb_28_1049","square","speed_accuracy_first","MainTask",61,"ITI","NoGo","speed_accuracy",1,NA,"post_error_inh",85.515873015873
245.288650083841,0.5,"ER05EL09","2022_Feb_28_1049","square","speed_accuracy_first","MainTask",62,"Fixation","Go","speed_accuracy",1,0.350276021777972,"post_correct_inh",85.515873015873
245.780257200982,0.1,"ER05EL09","2022_Feb_28_1049","square","speed_accuracy_first","MainTask",62,"Target","Go","speed_accuracy",1,0.350276021777972,"post_correct_inh",85.515873015873
245.882023243765,1.25027602177797,"ER05EL09","2022_Feb_28_1049","square","speed_accuracy_first","MainTask",62,"ITI","Go","speed_accuracy",1,0.350276021777972,"post_correct_inh",85.515873015873
246.13053322276,0,"ER05EL09","2022_Feb_28_1049","square","speed_accuracy_first","MainTask",62,"Response","Go","speed_accuracy",1,0.350276021777972,"post_correct_inh",85.515873015873
247.187983162257,0.5,"ER05EL09","2022_Feb_28_1049","square","speed_accuracy_first","MainTask",63,"Fixation","NoGo","speed_accuracy",1,NA,"post_correct_resp",85.515873015873
247.678582199864,0.1,"ER05EL09","2022_Feb_28_1049","square","speed_accuracy_first","MainTask",63,"Target","NoGo","speed_accuracy",1,NA,"post_correct_resp",85.515873015873
247.780289644921,1.5,"ER05EL09","2022_Feb_28_1049","square","speed_accuracy_first","MainTask",63,"ITI","NoGo","speed_accuracy",1,NA,"post_correct_resp",85.515873015873
249.323233005418,0.5,"ER05EL09","2022_Feb_28_1049","square","speed_accuracy_first","MainTask",64,"Fixation","Go","speed_accuracy",1,0.292075236831806,"post_correct_inh",85.515873015873
249.814249841504,0.1,"ER05EL09","2022_Feb_28_1049","square","speed_accuracy_first","MainTask",64,"Target","Go","speed_accuracy",1,0.292075236831806,"post_correct_inh",85.515873015873
249.915964569895,1.19207523683181,"ER05EL09","2022_Feb_28_1049","square","speed_accuracy_first","MainTask",64,"ITI","Go","speed_accuracy",1,0.292075236831806,"post_correct_inh",85.515873015873
250.106325078336,0,"ER05EL09","2022_Feb_28_1049","square","speed_accuracy_first","MainTask",64,"Response","Go","speed_accuracy",1,0.292075236831806,"post_correct_inh",85.515873015873
251.17043397079,0.5,"ER05EL09","2022_Feb_28_1049","square","speed_accuracy_first","MainTask",65,"Fixation","NoGo","speed_accuracy",1,NA,"post_correct_resp",85.515873015873
251.661734525813,0.1,"ER05EL09","2022_Feb_28_1049","square","speed_accuracy_first","MainTask",65,"Target","NoGo","speed_accuracy",1,NA,"post_correct_resp",85.515873015873
251.76343700496,1.5,"ER05EL09","2022_Feb_28_1049","square","speed_accuracy_first","MainTask",65,"ITI","NoGo","speed_accuracy",1,NA,"post_correct_resp",85.515873015873
253.323127728147,0.5,"ER05EL09","2022_Feb_28_1049","square","speed_accuracy_first","MainTask",66,"Fixation","Go","speed_accuracy",1,0.219530258111263,"post_correct_inh",85.515873015873
253.814217397565,0.1,"ER05EL09","2022_Feb_28_1049","square","speed_accuracy_first","MainTask",66,"Target","Go","speed_accuracy",1,0.219530258111263,"post_correct_inh",85.515873015873
253.915916235046,1.11953025811126,"ER05EL09","2022_Feb_28_1049","square","speed_accuracy_first","MainTask",66,"ITI","Go","speed_accuracy",1,0.219530258111263,"post_correct_inh",85.515873015873
254.033747655676,0,"ER05EL09","2022_Feb_28_1049","square","speed_accuracy_first","MainTask",66,"Response","Go","speed_accuracy",1,0.219530258111263,"post_correct_inh",85.515873015873
255.0855497013,0.5,"ER05EL09","2022_Feb_28_1049","square","speed_accuracy_first","MainTask",67,"Fixation","Go","speed_accuracy",1,0.349847629358919,"post_correct_resp",85.515873015873
255.56124306635,0.1,"ER05EL09","2022_Feb_28_1049","square","speed_accuracy_first","MainTask",67,"Target","Go","speed_accuracy",1,0.349847629358919,"post_correct_resp",85.515873015873
255.661688839451,1.24984762935892,"ER05EL09","2022_Feb_28_1049","square","speed_accuracy_first","MainTask",67,"ITI","Go","speed_accuracy",1,0.349847629358919,"post_correct_resp",85.515873015873
255.911090695709,0,"ER05EL09","2022_Feb_28_1049","square","speed_accuracy_first","MainTask",67,"Response","Go","speed_accuracy",1,0.349847629358919,"post_correct_resp",85.515873015873
256.966790648861,0.5,"ER05EL09","2022_Feb_28_1049","square","speed_accuracy_first","MainTask",68,"Fixation","NoGo","speed_accuracy",0,0.276695485490563,"post_correct_resp",85.515873015873
257.458591105395,0.1,"ER05EL09","2022_Feb_28_1049","square","speed_accuracy_first","MainTask",68,"Target","NoGo","speed_accuracy",0,0.276695485490563,"post_correct_resp",85.515873015873
257.560596504993,1.17669548549056,"ER05EL09","2022_Feb_28_1049","square","speed_accuracy_first","MainTask",68,"ITI","NoGo","speed_accuracy",0,0.276695485490563,"post_correct_resp",85.515873015873
257.735286590886,0,"ER05EL09","2022_Feb_28_1049","square","speed_accuracy_first","MainTask",68,"Response","NoGo","speed_accuracy",0,0.276695485490563,"post_correct_resp",85.515873015873
258.797589878815,0.5,"ER05EL09","2022_Feb_28_1049","square","speed_accuracy_first","MainTask",69,"Fixation","Go","speed_accuracy",1,0.265002756079411,"post_error_resp",85.515873015873
259.288924533081,0.1,"ER05EL09","2022_Feb_28_1049","square","speed_accuracy_first","MainTask",69,"Target","Go","speed_accuracy",1,0.265002756079411,"post_error_resp",85.515873015873
259.390604500106,1.16500275607941,"ER05EL09","2022_Feb_28_1049","square","speed_accuracy_first","MainTask",69,"ITI","Go","speed_accuracy",1,0.265002756079411,"post_error_resp",85.515873015873
259.55392728916,0,"ER05EL09","2022_Feb_28_1049","square","speed_accuracy_first","MainTask",69,"Response","Go","speed_accuracy",1,0.265002756079411,"post_error_resp",85.515873015873
260.611056430935,0.5,"ER05EL09","2022_Feb_28_1049","square","speed_accuracy_first","MainTask",70,"Fixation","NoGo","speed_accuracy",1,NA,"post_correct_resp",85.515873015873
261.102543042016,0.1,"ER05EL09","2022_Feb_28_1049","square","speed_accuracy_first","MainTask",70,"Target","NoGo","speed_accuracy",1,NA,"post_correct_resp",85.515873015873
261.204253466618,1.5,"ER05EL09","2022_Feb_28_1049","square","speed_accuracy_first","MainTask",70,"ITI","NoGo","speed_accuracy",1,NA,"post_correct_resp",85.515873015873
262.763995835257,0.5,"ER05EL09","2022_Feb_28_1049","square","speed_accuracy_first","MainTask",71,"Fixation","Go","speed_accuracy",1,0.22183510202558,"post_correct_inh",85.515873015873
263.254921960739,0.1,"ER05EL09","2022_Feb_28_1049","square","speed_accuracy_first","MainTask",71,"Target","Go","speed_accuracy",1,0.22183510202558,"post_correct_inh",85.515873015873
263.356730379279,1.12183510202558,"ER05EL09","2022_Feb_28_1049","square","speed_accuracy_first","MainTask",71,"ITI","Go","speed_accuracy",1,0.22183510202558,"post_correct_inh",85.515873015873
263.476757062765,0,"ER05EL09","2022_Feb_28_1049","square","speed_accuracy_first","MainTask",71,"Response","Go","speed_accuracy",1,0.22183510202558,"post_correct_inh",85.515873015873
264.54328633928,0.5,"ER05EL09","2022_Feb_28_1049","square","speed_accuracy_first","MainTask",72,"Fixation","Go","speed_accuracy",1,0.316010587317578,"post_correct_resp",85.515873015873
265.018661886152,0.1,"ER05EL09","2022_Feb_28_1049","square","speed_accuracy_first","MainTask",72,"Target","Go","speed_accuracy",1,0.316010587317578,"post_correct_resp",85.515873015873
265.119445341066,1.21601058731758,"ER05EL09","2022_Feb_28_1049","square","speed_accuracy_first","MainTask",72,"ITI","Go","speed_accuracy",1,0.316010587317578,"post_correct_resp",85.515873015873
265.33467247347,0,"ER05EL09","2022_Feb_28_1049","square","speed_accuracy_first","MainTask",72,"Response","Go","speed_accuracy",1,0.316010587317578,"post_correct_resp",85.515873015873
266.390598209955,0.5,"ER05EL09","2022_Feb_28_1049","square","speed_accuracy_first","MainTask",73,"Fixation","NoGo","speed_accuracy",1,NA,"post_correct_resp",85.515873015873
266.882431441487,0.1,"ER05EL09","2022_Feb_28_1049","square","speed_accuracy_first","MainTask",73,"Target","NoGo","speed_accuracy",1,NA,"post_correct_resp",85.515873015873
266.984509012296,1.5,"ER05EL09","2022_Feb_28_1049","square","speed_accuracy_first","MainTask",73,"ITI","NoGo","speed_accuracy",1,NA,"post_correct_resp",85.515873015873
268.543301237009,0.5,"ER05EL09","2022_Feb_28_1049","square","speed_accuracy_first","MainTask",74,"Fixation","NoGo","speed_accuracy",0,0.229372689816955,"post_correct_inh",85.515873015873
269.018333474034,0.1,"ER05EL09","2022_Feb_28_1049","square","speed_accuracy_first","MainTask",74,"Target","NoGo","speed_accuracy",0,0.229372689816955,"post_correct_inh",85.515873015873
269.119934979697,1.12937268981696,"ER05EL09","2022_Feb_28_1049","square","speed_accuracy_first","MainTask",74,"ITI","NoGo","speed_accuracy",0,0.229372689816955,"post_correct_inh",85.515873015873
269.247706163851,0,"ER05EL09","2022_Feb_28_1049","square","speed_accuracy_first","MainTask",74,"Response","NoGo","speed_accuracy",0,0.229372689816955,"post_correct_inh",85.515873015873
270.306082741976,0.5,"ER05EL09","2022_Feb_28_1049","square","speed_accuracy_first","MainTask",75,"Fixation","Go","speed_accuracy",1,0.306079431369653,"post_error_resp",85.515873015873
270.797658408359,0.1,"ER05EL09","2022_Feb_28_1049","square","speed_accuracy_first","MainTask",75,"Target","Go","speed_accuracy",1,0.306079431369653,"post_error_resp",85.515873015873
270.899377771597,1.20607943136965,"ER05EL09","2022_Feb_28_1049","square","speed_accuracy_first","MainTask",75,"ITI","Go","speed_accuracy",1,0.306079431369653,"post_error_resp",85.515873015873
271.103737839729,0,"ER05EL09","2022_Feb_28_1049","square","speed_accuracy_first","MainTask",75,"Response","Go","speed_accuracy",1,0.306079431369653,"post_error_resp",85.515873015873
272.154054085371,0.5,"ER05EL09","2022_Feb_28_1049","square","speed_accuracy_first","MainTask",76,"Fixation","NoGo","speed_accuracy",1,NA,"post_correct_resp",85.515873015873
272.645065293427,0.1,"ER05EL09","2022_Feb_28_1049","square","speed_accuracy_first","MainTask",76,"Target","NoGo","speed_accuracy",1,NA,"post_correct_resp",85.515873015873
272.746921053633,1.5,"ER05EL09","2022_Feb_28_1049","square","speed_accuracy_first","MainTask",76,"ITI","NoGo","speed_accuracy",1,NA,"post_correct_resp",85.515873015873
274.306656138939,0.5,"ER05EL09","2022_Feb_28_1049","square","speed_accuracy_first","MainTask",77,"Fixation","Go","speed_accuracy",1,0.316527041857626,"post_correct_inh",85.515873015873
274.797713033358,0.1,"ER05EL09","2022_Feb_28_1049","square","speed_accuracy_first","MainTask",77,"Target","Go","speed_accuracy",1,0.316527041857626,"post_correct_inh",85.515873015873
274.899473779173,1.21652704185763,"ER05EL09","2022_Feb_28_1049","square","speed_accuracy_first","MainTask",77,"ITI","Go","speed_accuracy",1,0.316527041857626,"post_correct_inh",85.515873015873
275.114240075216,0,"ER05EL09","2022_Feb_28_1049","square","speed_accuracy_first","MainTask",77,"Response","Go","speed_accuracy",1,0.316527041857626,"post_correct_inh",85.515873015873
276.170658760939,0.5,"ER05EL09","2022_Feb_28_1049","square","speed_accuracy_first","MainTask",78,"Fixation","Go","speed_accuracy",1,0.461568333392279,"post_correct_resp",85.515873015873
276.645134485092,0.1,"ER05EL09","2022_Feb_28_1049","square","speed_accuracy_first","MainTask",78,"Target","Go","speed_accuracy",1,0.461568333392279,"post_correct_resp",85.515873015873
276.7469028453,1.36156833339228,"ER05EL09","2022_Feb_28_1049","square","speed_accuracy_first","MainTask",78,"ITI","Go","speed_accuracy",1,0.461568333392279,"post_correct_resp",85.515873015873
277.106702818484,0,"ER05EL09","2022_Feb_28_1049","square","speed_accuracy_first","MainTask",78,"Response","Go","speed_accuracy",1,0.461568333392279,"post_correct_resp",85.515873015873
278.170705771545,0.5,"ER05EL09","2022_Feb_28_1049","square","speed_accuracy_first","MainTask",79,"Fixation","NoGo","speed_accuracy",1,NA,"post_correct_resp",85.515873015873
278.662708837166,0.1,"ER05EL09","2022_Feb_28_1049","square","speed_accuracy_first","MainTask",79,"Target","NoGo","speed_accuracy",1,NA,"post_correct_resp",85.515873015873
278.763846195865,1.5,"ER05EL09","2022_Feb_28_1049","square","speed_accuracy_first","MainTask",79,"ITI","NoGo","speed_accuracy",1,NA,"post_correct_resp",85.515873015873
280.323190629661,0.5,"ER05EL09","2022_Feb_28_1049","square","speed_accuracy_first","MainTask",80,"Fixation","Go","speed_accuracy",1,0.239122424556626,"post_correct_inh",85.515873015873
280.814829528619,0.1,"ER05EL09","2022_Feb_28_1049","square","speed_accuracy_first","MainTask",80,"Target","Go","speed_accuracy",1,0.239122424556626,"post_correct_inh",85.515873015873
280.916445269888,1.13912242455663,"ER05EL09","2022_Feb_28_1049","square","speed_accuracy_first","MainTask",80,"ITI","Go","speed_accuracy",1,0.239122424556626,"post_correct_inh",85.515873015873
281.053951953176,0,"ER05EL09","2022_Feb_28_1049","square","speed_accuracy_first","MainTask",80,"Response","Go","speed_accuracy",1,0.239122424556626,"post_correct_inh",85.515873015873
282.119878368334,0.5,"ER05EL09","2022_Feb_28_1049","square","speed_accuracy_first","MainTask",81,"Fixation","Go","speed_accuracy",1,0.532639430310155,"post_correct_resp",85.515873015873
282.594695084908,0.1,"ER05EL09","2022_Feb_28_1049","square","speed_accuracy_first","MainTask",81,"Target","Go","speed_accuracy",1,0.532639430310155,"post_correct_resp",85.515873015873
282.696735907992,1.43263943031016,"ER05EL09","2022_Feb_28_1049","square","speed_accuracy_first","MainTask",81,"ITI","Go","speed_accuracy",1,0.532639430310155,"post_correct_resp",85.515873015873
283.127334515218,0,"ER05EL09","2022_Feb_28_1049","square","speed_accuracy_first","MainTask",81,"Response","Go","speed_accuracy",1,0.532639430310155,"post_correct_resp",85.515873015873
284.18766534408,0.5,"ER05EL09","2022_Feb_28_1049","square","speed_accuracy_first","MainTask",82,"Fixation","Go","speed_accuracy",1,0.343805442305893,"post_correct_resp",85.515873015873
284.6624085652,0.1,"ER05EL09","2022_Feb_28_1049","square","speed_accuracy_first","MainTask",82,"Target","Go","speed_accuracy",1,0.343805442305893,"post_correct_resp",85.515873015873
284.764534470858,1.24380544230589,"ER05EL09","2022_Feb_28_1049","square","speed_accuracy_first","MainTask",82,"ITI","Go","speed_accuracy",1,0.343805442305893,"post_correct_resp",85.515873015873
285.006214007506,0,"ER05EL09","2022_Feb_28_1049","square","speed_accuracy_first","MainTask",82,"Response","Go","speed_accuracy",1,0.343805442305893,"post_correct_resp",85.515873015873
286.069058248457,0.5,"ER05EL09","2022_Feb_28_1049","square","speed_accuracy_first","MainTask",83,"Fixation","Go","speed_accuracy",1,0.350936156617536,"post_correct_resp",85.515873015873
286.543775977911,0.1,"ER05EL09","2022_Feb_28_1049","square","speed_accuracy_first","MainTask",83,"Target","Go","speed_accuracy",1,0.350936156617536,"post_correct_resp",85.515873015873
286.645428135847,1.25093615661754,"ER05EL09","2022_Feb_28_1049","square","speed_accuracy_first","MainTask",83,"ITI","Go","speed_accuracy",1,0.350936156617536,"post_correct_resp",85.515873015873
286.894712134529,0,"ER05EL09","2022_Feb_28_1049","square","speed_accuracy_first","MainTask",83,"Response","Go","speed_accuracy",1,0.350936156617536,"post_correct_resp",85.515873015873
287.951026536162,0.5,"ER05EL09","2022_Feb_28_1049","square","speed_accuracy_first","MainTask",84,"Fixation","NoGo","speed_accuracy",0,0.214087952870614,"post_correct_resp",85.515873015873
288.441995699523,0.1,"ER05EL09","2022_Feb_28_1049","square","speed_accuracy_first","MainTask",84,"Target","NoGo","speed_accuracy",0,0.214087952870614,"post_correct_resp",85.515873015873
288.543877613516,1.11408795287061,"ER05EL09","2022_Feb_28_1049","square","speed_accuracy_first","MainTask",84,"ITI","NoGo","speed_accuracy",0,0.214087952870614,"post_correct_resp",85.515873015873
288.656083652394,0,"ER05EL09","2022_Feb_28_1049","square","speed_accuracy_first","MainTask",84,"Response","NoGo","speed_accuracy",0,0.214087952870614,"post_correct_resp",85.515873015873
289.71334554947,0.5,"ER05EL09","2022_Feb_28_1049","square","speed_accuracy_first","MainTask",85,"Fixation","NoGo","speed_accuracy",1,NA,"post_error_resp",85.515873015873
290.188431418313,0.1,"ER05EL09","2022_Feb_28_1049","square","speed_accuracy_first","MainTask",85,"Target","NoGo","speed_accuracy",1,NA,"post_error_resp",85.515873015873
290.289465486105,1.5,"ER05EL09","2022_Feb_28_1049","square","speed_accuracy_first","MainTask",85,"ITI","NoGo","speed_accuracy",1,NA,"post_error_resp",85.515873015873
291.848959890352,0.5,"ER05EL09","2022_Feb_28_1049","square","speed_accuracy_first","MainTask",86,"Fixation","NoGo","speed_accuracy",1,NA,"post_correct_inh",85.515873015873
292.323659411473,0.1,"ER05EL09","2022_Feb_28_1049","square","speed_accuracy_first","MainTask",86,"Target","NoGo","speed_accuracy",1,NA,"post_correct_inh",85.515873015873
292.425128161836,1.5,"ER05EL09","2022_Feb_28_1049","square","speed_accuracy_first","MainTask",86,"ITI","NoGo","speed_accuracy",1,NA,"post_correct_inh",85.515873015873
293.984649381993,0.5,"ER05EL09","2022_Feb_28_1049","square","speed_accuracy_first","MainTask",87,"Fixation","NoGo","speed_accuracy",1,NA,"post_correct_inh",85.515873015873
294.459119809177,0.1,"ER05EL09","2022_Feb_28_1049","square","speed_accuracy_first","MainTask",87,"Target","NoGo","speed_accuracy",1,NA,"post_correct_inh",85.515873015873
294.560816991354,1.5,"ER05EL09","2022_Feb_28_1049","square","speed_accuracy_first","MainTask",87,"ITI","NoGo","speed_accuracy",1,NA,"post_correct_inh",85.515873015873
296.120271668329,0.5,"ER05EL09","2022_Feb_28_1049","square","speed_accuracy_first","MainTask",88,"Fixation","NoGo","speed_accuracy",1,NA,"post_correct_inh",85.515873015873
296.611727821835,0.1,"ER05EL09","2022_Feb_28_1049","square","speed_accuracy_first","MainTask",88,"Target","NoGo","speed_accuracy",1,NA,"post_correct_inh",85.515873015873
296.696525684509,1.5,"ER05EL09","2022_Feb_28_1049","square","speed_accuracy_first","MainTask",88,"ITI","NoGo","speed_accuracy",1,NA,"post_correct_inh",85.515873015873
298.272948210535,0.5,"ER05EL09","2022_Feb_28_1049","square","speed_accuracy_first","MainTask",89,"Fixation","Go","speed_accuracy",1,0.341705855966211,"post_correct_inh",85.515873015873
298.764430186768,0.1,"ER05EL09","2022_Feb_28_1049","square","speed_accuracy_first","MainTask",89,"Target","Go","speed_accuracy",1,0.341705855966211,"post_correct_inh",85.515873015873
298.866059832582,1.24170585596621,"ER05EL09","2022_Feb_28_1049","square","speed_accuracy_first","MainTask",89,"ITI","Go","speed_accuracy",1,0.341705855966211,"post_correct_inh",85.515873015873
299.106136042734,0,"ER05EL09","2022_Feb_28_1049","square","speed_accuracy_first","MainTask",89,"Response","Go","speed_accuracy",1,0.341705855966211,"post_correct_inh",85.515873015873
300.171271223053,0.5,"ER05EL09","2022_Feb_28_1049","square","speed_accuracy_first","MainTask",90,"Fixation","NoGo","speed_accuracy",1,NA,"post_correct_resp",85.515873015873
300.663369303067,0.1,"ER05EL09","2022_Feb_28_1049","square","speed_accuracy_first","MainTask",90,"Target","NoGo","speed_accuracy",1,NA,"post_correct_resp",85.515873015873
300.764422572374,1.5,"ER05EL09","2022_Feb_28_1049","square","speed_accuracy_first","MainTask",90,"ITI","NoGo","speed_accuracy",1,NA,"post_correct_resp",85.515873015873
302.323879235713,0.5,"ER05EL09","2022_Feb_28_1049","square","speed_accuracy_first","MainTask",91,"Fixation","Go","speed_accuracy",1,0.290562289881564,"post_correct_inh",85.515873015873
302.815406898309,0.1,"ER05EL09","2022_Feb_28_1049","square","speed_accuracy_first","MainTask",91,"Target","Go","speed_accuracy",1,0.290562289881564,"post_correct_inh",85.515873015873
302.917013038821,1.19056228988156,"ER05EL09","2022_Feb_28_1049","square","speed_accuracy_first","MainTask",91,"ITI","Go","speed_accuracy",1,0.290562289881564,"post_correct_inh",85.515873015873
303.105969188191,0,"ER05EL09","2022_Feb_28_1049","square","speed_accuracy_first","MainTask",91,"Response","Go","speed_accuracy",1,0.290562289881564,"post_correct_inh",85.515873015873
304.171169587449,0.5,"ER05EL09","2022_Feb_28_1049","square","speed_accuracy_first","MainTask",92,"Fixation","NoGo","speed_accuracy",1,NA,"post_correct_resp",85.515873015873
304.663377579582,0.1,"ER05EL09","2022_Feb_28_1049","square","speed_accuracy_first","MainTask",92,"Target","NoGo","speed_accuracy",1,NA,"post_correct_resp",85.515873015873
304.766340406442,1.5,"ER05EL09","2022_Feb_28_1049","square","speed_accuracy_first","MainTask",92,"ITI","NoGo","speed_accuracy",1,NA,"post_correct_resp",85.515873015873
306.323916314501,0.5,"ER05EL09","2022_Feb_28_1049","square","speed_accuracy_first","MainTask",93,"Fixation","Go","speed_accuracy",1,0.108102542710185,"post_correct_inh",85.515873015873
306.815940899061,0.1,"ER05EL09","2022_Feb_28_1049","square","speed_accuracy_first","MainTask",93,"Target","Go","speed_accuracy",1,0.108102542710185,"post_correct_inh",85.515873015873
306.918512081229,1.00810254271018,"ER05EL09","2022_Feb_28_1049","square","speed_accuracy_first","MainTask",93,"ITI","Go","speed_accuracy",1,0.108102542710185,"post_correct_inh",85.515873015873
306.924043441771,0,"ER05EL09","2022_Feb_28_1049","square","speed_accuracy_first","MainTask",93,"Response","Go","speed_accuracy",1,0.108102542710185,"post_correct_inh",85.515873015873
307.985855104705,0.5,"ER05EL09","2022_Feb_28_1049","square","speed_accuracy_first","MainTask",94,"Fixation","NoGo","speed_accuracy",1,NA,"post_correct_resp",85.515873015873
308.476483937768,0.1,"ER05EL09","2022_Feb_28_1049","square","speed_accuracy_first","MainTask",94,"Target","NoGo","speed_accuracy",1,NA,"post_correct_resp",85.515873015873
308.578179464641,1.5,"ER05EL09","2022_Feb_28_1049","square","speed_accuracy_first","MainTask",94,"ITI","NoGo","speed_accuracy",1,NA,"post_correct_resp",85.515873015873
310.1208593009,0.5,"ER05EL09","2022_Feb_28_1049","square","speed_accuracy_first","MainTask",95,"Fixation","Go","speed_accuracy",1,0.275773150653549,"post_correct_inh",85.515873015873
310.612162173345,0.1,"ER05EL09","2022_Feb_28_1049","square","speed_accuracy_first","MainTask",95,"Target","Go","speed_accuracy",1,0.275773150653549,"post_correct_inh",85.515873015873
310.713815324463,1.17577315065355,"ER05EL09","2022_Feb_28_1049","square","speed_accuracy_first","MainTask",95,"ITI","Go","speed_accuracy",1,0.275773150653549,"post_correct_inh",85.515873015873
310.887935323999,0,"ER05EL09","2022_Feb_28_1049","square","speed_accuracy_first","MainTask",95,"Response","Go","speed_accuracy",1,0.275773150653549,"post_correct_inh",85.515873015873
311.951269203584,0.5,"ER05EL09","2022_Feb_28_1049","square","speed_accuracy_first","MainTask",96,"Fixation","Go","speed_accuracy",1,0.417927924796459,"post_correct_resp",85.515873015873
312.442644578303,0.1,"ER05EL09","2022_Feb_28_1049","square","speed_accuracy_first","MainTask",96,"Target","Go","speed_accuracy",1,0.417927924796459,"post_correct_resp",85.515873015873
312.52739543037,1.31792792479646,"ER05EL09","2022_Feb_28_1049","square","speed_accuracy_first","MainTask",96,"ITI","Go","speed_accuracy",1,0.417927924796459,"post_correct_resp",85.515873015873
312.860572503099,0,"ER05EL09","2022_Feb_28_1049","square","speed_accuracy_first","MainTask",96,"Response","Go","speed_accuracy",1,0.417927924796459,"post_correct_resp",85.515873015873
313.917253719879,0.5,"ER05EL09","2022_Feb_28_1049","square","speed_accuracy_first","MainTask",97,"Fixation","Go","speed_accuracy",1,0.249711397920692,"post_correct_resp",85.515873015873
314.391747321306,0.1,"ER05EL09","2022_Feb_28_1049","square","speed_accuracy_first","MainTask",97,"Target","Go","speed_accuracy",1,0.249711397920692,"post_correct_resp",85.515873015873
314.493454435302,1.14971139792069,"ER05EL09","2022_Feb_28_1049","square","speed_accuracy_first","MainTask",97,"ITI","Go","speed_accuracy",1,0.249711397920692,"post_correct_resp",85.515873015873
314.641458719227,0,"ER05EL09","2022_Feb_28_1049","square","speed_accuracy_first","MainTask",97,"Response","Go","speed_accuracy",1,0.249711397920692,"post_correct_resp",85.515873015873
315.696852772384,0.5,"ER05EL09","2022_Feb_28_1049","square","speed_accuracy_first","MainTask",98,"Fixation","Go","speed_accuracy",1,0.288508720965183,"post_correct_resp",85.515873015873
316.171823101078,0.1,"ER05EL09","2022_Feb_28_1049","square","speed_accuracy_first","MainTask",98,"Target","Go","speed_accuracy",1,0.288508720965183,"post_correct_resp",85.515873015873
316.273619932497,1.18850872096518,"ER05EL09","2022_Feb_28_1049","square","speed_accuracy_first","MainTask",98,"ITI","Go","speed_accuracy",1,0.288508720965183,"post_correct_resp",85.515873015873
316.460331822043,0,"ER05EL09","2022_Feb_28_1049","square","speed_accuracy_first","MainTask",98,"Response","Go","speed_accuracy",1,0.288508720965183,"post_correct_resp",85.515873015873
317.527409997037,0.5,"ER05EL09","2022_Feb_28_1049","square","speed_accuracy_first","MainTask",99,"Fixation","Go","speed_accuracy",1,0.474762753696268,"post_correct_resp",85.515873015873
318.002099917399,0.1,"ER05EL09","2022_Feb_28_1049","square","speed_accuracy_first","MainTask",99,"Target","Go","speed_accuracy",1,0.474762753696268,"post_correct_resp",85.515873015873
318.103759027608,1.37476275369627,"ER05EL09","2022_Feb_28_1049","square","speed_accuracy_first","MainTask",99,"ITI","Go","speed_accuracy",1,0.474762753696268,"post_correct_resp",85.515873015873
318.476862671095,0,"ER05EL09","2022_Feb_28_1049","square","speed_accuracy_first","MainTask",99,"Response","Go","speed_accuracy",1,0.474762753696268,"post_correct_resp",85.515873015873
319.528212156876,0.5,"ER05EL09","2022_Feb_28_1049","square","speed_accuracy_first","MainTask",100,"Fixation","NoGo","speed_accuracy",0,0.32859850460045,"post_correct_resp",85.515873015873
320.019005527056,0.1,"ER05EL09","2022_Feb_28_1049","square","speed_accuracy_first","MainTask",100,"Target","NoGo","speed_accuracy",0,0.32859850460045,"post_correct_resp",85.515873015873
320.120692115295,1.22859850460045,"ER05EL09","2022_Feb_28_1049","square","speed_accuracy_first","MainTask",100,"ITI","NoGo","speed_accuracy",0,0.32859850460045,"post_correct_resp",85.515873015873
320.347604031656,0,"ER05EL09","2022_Feb_28_1049","square","speed_accuracy_first","MainTask",100,"Response","NoGo","speed_accuracy",0,0.32859850460045,"post_correct_resp",85.515873015873
321.409276318076,0.5,"ER05EL09","2022_Feb_28_1049","square","speed_accuracy_first","MainTask",101,"Fixation","NoGo","speed_accuracy",1,NA,"post_error_resp",85.515873015873
321.883613658898,0.1,"ER05EL09","2022_Feb_28_1049","square","speed_accuracy_first","MainTask",101,"Target","NoGo","speed_accuracy",1,NA,"post_error_resp",85.515873015873
321.985250588046,1.5,"ER05EL09","2022_Feb_28_1049","square","speed_accuracy_first","MainTask",101,"ITI","NoGo","speed_accuracy",1,NA,"post_error_resp",85.515873015873
323.545092274866,0.5,"ER05EL09","2022_Feb_28_1049","square","speed_accuracy_first","MainTask",102,"Fixation","Go","speed_accuracy",1,0.30203751247609,"post_correct_inh",85.515873015873
324.036003833682,0.1,"ER05EL09","2022_Feb_28_1049","square","speed_accuracy_first","MainTask",102,"Target","Go","speed_accuracy",1,0.30203751247609,"post_correct_inh",85.515873015873
324.137783118889,1.20203751247609,"ER05EL09","2022_Feb_28_1049","square","speed_accuracy_first","MainTask",102,"ITI","Go","speed_accuracy",1,0.30203751247609,"post_correct_inh",85.515873015873
324.338041346158,0,"ER05EL09","2022_Feb_28_1049","square","speed_accuracy_first","MainTask",102,"Response","Go","speed_accuracy",1,0.30203751247609,"post_correct_inh",85.515873015873
325.392062159939,0.5,"ER05EL09","2022_Feb_28_1049","square","speed_accuracy_first","MainTask",103,"Fixation","Go","speed_accuracy",1,0.286732580832904,"post_correct_resp",85.515873015873
325.866786841665,0.1,"ER05EL09","2022_Feb_28_1049","square","speed_accuracy_first","MainTask",103,"Target","Go","speed_accuracy",1,0.286732580832904,"post_correct_resp",85.515873015873
325.968255592026,1.1867325808329,"ER05EL09","2022_Feb_28_1049","square","speed_accuracy_first","MainTask",103,"ITI","Go","speed_accuracy",1,0.286732580832904,"post_correct_resp",85.515873015873
326.153519422498,0,"ER05EL09","2022_Feb_28_1049","square","speed_accuracy_first","MainTask",103,"Response","Go","speed_accuracy",1,0.286732580832904,"post_correct_resp",85.515873015873
327.205566784027,0.5,"ER05EL09","2022_Feb_28_1049","square","speed_accuracy_first","MainTask",104,"Fixation","Go","speed_accuracy",0,NA,"post_correct_resp",85.515873015873
327.680397736207,0.1,"ER05EL09","2022_Feb_28_1049","square","speed_accuracy_first","MainTask",104,"Target","Go","speed_accuracy",0,NA,"post_correct_resp",85.515873015873
327.782474975957,1.5,"ER05EL09","2022_Feb_28_1049","square","speed_accuracy_first","MainTask",104,"ITI","Go","speed_accuracy",0,NA,"post_correct_resp",85.515873015873
329.341174172638,0.5,"ER05EL09","2022_Feb_28_1049","square","speed_accuracy_first","MainTask",105,"Fixation","Go","speed_accuracy",1,0.481974908916527,"post_error_inh",85.515873015873
329.816319632389,0.1,"ER05EL09","2022_Feb_28_1049","square","speed_accuracy_first","MainTask",105,"Target","Go","speed_accuracy",1,0.481974908916527,"post_error_inh",85.515873015873
329.919745613033,1.38197490891653,"ER05EL09","2022_Feb_28_1049","square","speed_accuracy_first","MainTask",105,"ITI","Go","speed_accuracy",1,0.481974908916527,"post_error_inh",85.515873015873
330.298294541306,0,"ER05EL09","2022_Feb_28_1049","square","speed_accuracy_first","MainTask",105,"Response","Go","speed_accuracy",1,0.481974908916527,"post_error_inh",85.515873015873
331.358144339112,0.5,"ER05EL09","2022_Feb_28_1049","square","speed_accuracy_first","MainTask",106,"Fixation","NoGo","speed_accuracy",0,0.440369198782719,"post_correct_resp",85.515873015873
331.84989778504,0.1,"ER05EL09","2022_Feb_28_1049","square","speed_accuracy_first","MainTask",106,"Target","NoGo","speed_accuracy",0,0.440369198782719,"post_correct_resp",85.515873015873
331.951952512667,1.34036919878272,"ER05EL09","2022_Feb_28_1049","square","speed_accuracy_first","MainTask",106,"ITI","NoGo","speed_accuracy",0,0.440369198782719,"post_correct_resp",85.515873015873
332.290266983823,0,"ER05EL09","2022_Feb_28_1049","square","speed_accuracy_first","MainTask",106,"Response","NoGo","speed_accuracy",0,0.440369198782719,"post_correct_resp",85.515873015873
333.341214893091,0.5,"ER05EL09","2022_Feb_28_1049","square","speed_accuracy_first","MainTask",107,"Fixation","Go","speed_accuracy",1,0.307726788927539,"post_error_resp",85.515873015873
333.832874317808,0.1,"ER05EL09","2022_Feb_28_1049","square","speed_accuracy_first","MainTask",107,"Target","Go","speed_accuracy",1,0.307726788927539,"post_error_resp",85.515873015873
333.9346125515,1.20772678892754,"ER05EL09","2022_Feb_28_1049","square","speed_accuracy_first","MainTask",107,"ITI","Go","speed_accuracy",1,0.307726788927539,"post_error_resp",85.515873015873
334.140601106736,0,"ER05EL09","2022_Feb_28_1049","square","speed_accuracy_first","MainTask",107,"Response","Go","speed_accuracy",1,0.307726788927539,"post_error_resp",85.515873015873
335.207203878706,0.5,"ER05EL09","2022_Feb_28_1049","square","speed_accuracy_first","MainTask",108,"Fixation","Go","speed_accuracy",1,0.21158116198967,"post_correct_resp",85.515873015873
335.69732916859,0.1,"ER05EL09","2022_Feb_28_1049","square","speed_accuracy_first","MainTask",108,"Target","Go","speed_accuracy",1,0.21158116198967,"post_correct_resp",85.515873015873
335.782128355506,1.11158116198967,"ER05EL09","2022_Feb_28_1049","square","speed_accuracy_first","MainTask",108,"ITI","Go","speed_accuracy",1,0.21158116198967,"post_correct_resp",85.515873015873
335.90891033058,0,"ER05EL09","2022_Feb_28_1049","square","speed_accuracy_first","MainTask",108,"Response","Go","speed_accuracy",1,0.21158116198967,"post_correct_resp",85.515873015873
336.968535669297,0.5,"ER05EL09","2022_Feb_28_1049","square","speed_accuracy_first","MainTask",109,"Fixation","Go","speed_accuracy",1,0.271034018132923,"post_correct_resp",85.515873015873
337.443006758602,0.1,"ER05EL09","2022_Feb_28_1049","square","speed_accuracy_first","MainTask",109,"Target","Go","speed_accuracy",1,0.271034018132923,"post_correct_resp",85.515873015873
337.544761545325,1.17103401813292,"ER05EL09","2022_Feb_28_1049","square","speed_accuracy_first","MainTask",109,"ITI","Go","speed_accuracy",1,0.271034018132923,"post_correct_resp",85.515873015873
337.714040776735,0,"ER05EL09","2022_Feb_28_1049","square","speed_accuracy_first","MainTask",109,"Response","Go","speed_accuracy",1,0.271034018132923,"post_correct_resp",85.515873015873
338.765073106457,0.5,"ER05EL09","2022_Feb_28_1049","square","speed_accuracy_first","MainTask",110,"Fixation","Go","speed_accuracy",1,0.306236685157273,"post_correct_resp",85.515873015873
339.240079189696,0.1,"ER05EL09","2022_Feb_28_1049","square","speed_accuracy_first","MainTask",110,"Target","Go","speed_accuracy",1,0.306236685157273,"post_correct_resp",85.515873015873
339.341798883994,1.20623668515727,"ER05EL09","2022_Feb_28_1049","square","speed_accuracy_first","MainTask",110,"ITI","Go","speed_accuracy",1,0.306236685157273,"post_correct_resp",85.515873015873
339.546315874853,0,"ER05EL09","2022_Feb_28_1049","square","speed_accuracy_first","MainTask",110,"Response","Go","speed_accuracy",1,0.306236685157273,"post_correct_resp",85.515873015873
340.612588248341,0.5,"ER05EL09","2022_Feb_28_1049","square","speed_accuracy_first","MainTask",111,"Fixation","Go","speed_accuracy",1,0.388278468313729,"post_correct_resp",85.515873015873
341.08719871416,0.1,"ER05EL09","2022_Feb_28_1049","square","speed_accuracy_first","MainTask",111,"Target","Go","speed_accuracy",1,0.388278468313729,"post_correct_resp",85.515873015873
341.188929333459,1.28827846831373,"ER05EL09","2022_Feb_28_1049","square","speed_accuracy_first","MainTask",111,"ITI","Go","speed_accuracy",1,0.388278468313729,"post_correct_resp",85.515873015873
341.475477182474,0,"ER05EL09","2022_Feb_28_1049","square","speed_accuracy_first","MainTask",111,"Response","Go","speed_accuracy",1,0.388278468313729,"post_correct_resp",85.515873015873
342.546340042276,0.5,"ER05EL09","2022_Feb_28_1049","square","speed_accuracy_first","MainTask",112,"Fixation","NoGo","speed_accuracy",1,NA,"post_correct_resp",85.515873015873
343.036499100343,0.1,"ER05EL09","2022_Feb_28_1049","square","speed_accuracy_first","MainTask",112,"Target","NoGo","speed_accuracy",1,NA,"post_correct_resp",85.515873015873
343.137945007524,1.5,"ER05EL09","2022_Feb_28_1049","square","speed_accuracy_first","MainTask",112,"ITI","NoGo","speed_accuracy",1,NA,"post_correct_resp",85.515873015873
344.681440908165,0.5,"ER05EL09","2022_Feb_28_1049","square","speed_accuracy_first","MainTask",113,"Fixation","Go","speed_accuracy",1,0.296373727693208,"post_correct_inh",85.515873015873
345.172080335165,0.1,"ER05EL09","2022_Feb_28_1049","square","speed_accuracy_first","MainTask",113,"Target","Go","speed_accuracy",1,0.296373727693208,"post_correct_inh",85.515873015873
345.273733817343,1.19637372769321,"ER05EL09","2022_Feb_28_1049","square","speed_accuracy_first","MainTask",113,"ITI","Go","speed_accuracy",1,0.296373727693208,"post_correct_inh",85.515873015873
345.468454062858,0,"ER05EL09","2022_Feb_28_1049","square","speed_accuracy_first","MainTask",113,"Response","Go","speed_accuracy",1,0.296373727693208,"post_correct_inh",85.515873015873
346.528140978846,0.5,"ER05EL09","2022_Feb_28_1049","square","speed_accuracy_first","MainTask",114,"Fixation","Go","speed_accuracy",1,0.573434704088868,"post_correct_resp",85.515873015873
347.002573996182,0.1,"ER05EL09","2022_Feb_28_1049","square","speed_accuracy_first","MainTask",114,"Target","Go","speed_accuracy",1,0.573434704088868,"post_correct_resp",85.515873015873
347.104211587452,1.47343470408887,"ER05EL09","2022_Feb_28_1049","square","speed_accuracy_first","MainTask",114,"ITI","Go","speed_accuracy",1,0.573434704088868,"post_correct_resp",85.515873015873
347.576008700271,0,"ER05EL09","2022_Feb_28_1049","square","speed_accuracy_first","MainTask",114,"Response","Go","speed_accuracy",1,0.573434704088868,"post_correct_resp",85.515873015873
348.629899738296,0.5,"ER05EL09","2022_Feb_28_1049","square","speed_accuracy_first","MainTask",115,"Fixation","Go","speed_accuracy",1,0.331943871984549,"post_correct_resp",85.515873015873
349.104349308662,0.1,"ER05EL09","2022_Feb_28_1049","square","speed_accuracy_first","MainTask",115,"Target","Go","speed_accuracy",1,0.331943871984549,"post_correct_resp",85.515873015873
349.206032586295,1.23194387198455,"ER05EL09","2022_Feb_28_1049","square","speed_accuracy_first","MainTask",115,"ITI","Go","speed_accuracy",1,0.331943871984549,"post_correct_resp",85.515873015873
349.436293180647,0,"ER05EL09","2022_Feb_28_1049","square","speed_accuracy_first","MainTask",115,"Response","Go","speed_accuracy",1,0.331943871984549,"post_correct_resp",85.515873015873
350.494264209534,0.5,"ER05EL09","2022_Feb_28_1049","square","speed_accuracy_first","MainTask",116,"Fixation","NoGo","speed_accuracy",1,NA,"post_correct_resp",85.515873015873
350.986306340306,0.1,"ER05EL09","2022_Feb_28_1049","square","speed_accuracy_first","MainTask",116,"Target","NoGo","speed_accuracy",1,NA,"post_correct_resp",85.515873015873
351.087348022493,1.5,"ER05EL09","2022_Feb_28_1049","square","speed_accuracy_first","MainTask",116,"ITI","NoGo","speed_accuracy",1,NA,"post_correct_resp",85.515873015873
352.646719934317,0.5,"ER05EL09","2022_Feb_28_1049","square","speed_accuracy_first","MainTask",117,"Fixation","Go","speed_accuracy",1,0.293986780750856,"post_correct_inh",85.515873015873
353.138178074187,0.1,"ER05EL09","2022_Feb_28_1049","square","speed_accuracy_first","MainTask",117,"Target","Go","speed_accuracy",1,0.293986780750856,"post_correct_inh",85.515873015873
353.23998318212,1.19398678075086,"ER05EL09","2022_Feb_28_1049","square","speed_accuracy_first","MainTask",117,"ITI","Go","speed_accuracy",1,0.293986780750856,"post_correct_inh",85.515873015873
353.432164854938,0,"ER05EL09","2022_Feb_28_1049","square","speed_accuracy_first","MainTask",117,"Response","Go","speed_accuracy",1,0.293986780750856,"post_correct_inh",85.515873015873
354.494230441353,0.5,"ER05EL09","2022_Feb_28_1049","square","speed_accuracy_first","MainTask",118,"Fixation","Go","speed_accuracy",1,0.324290081920481,"post_correct_resp",85.515873015873
354.969294460197,0.1,"ER05EL09","2022_Feb_28_1049","square","speed_accuracy_first","MainTask",118,"Target","Go","speed_accuracy",1,0.324290081920481,"post_correct_resp",85.515873015873
355.070874777983,1.22429008192048,"ER05EL09","2022_Feb_28_1049","square","speed_accuracy_first","MainTask",118,"ITI","Go","speed_accuracy",1,0.324290081920481,"post_correct_resp",85.515873015873
355.293584542117,0,"ER05EL09","2022_Feb_28_1049","square","speed_accuracy_first","MainTask",118,"Response","Go","speed_accuracy",1,0.324290081920481,"post_correct_resp",85.515873015873
356.35871541865,0.5,"ER05EL09","2022_Feb_28_1049","square","speed_accuracy_first","MainTask",119,"Fixation","Go","speed_accuracy",1,0.334231500746682,"post_correct_resp",85.515873015873
356.833365280681,0.1,"ER05EL09","2022_Feb_28_1049","square","speed_accuracy_first","MainTask",119,"Target","Go","speed_accuracy",1,0.334231500746682,"post_correct_resp",85.515873015873
356.935082657556,1.23423150074668,"ER05EL09","2022_Feb_28_1049","square","speed_accuracy_first","MainTask",119,"ITI","Go","speed_accuracy",1,0.334231500746682,"post_correct_resp",85.515873015873
357.167596781428,0,"ER05EL09","2022_Feb_28_1049","square","speed_accuracy_first","MainTask",119,"Response","Go","speed_accuracy",1,0.334231500746682,"post_correct_resp",85.515873015873
358.241783158615,0.5,"ER05EL09","2022_Feb_28_1049","square","speed_accuracy_first","MainTask",120,"Fixation","Go","speed_accuracy",1,0.266819285605379,"post_correct_resp",85.515873015873
358.731709150019,0.1,"ER05EL09","2022_Feb_28_1049","square","speed_accuracy_first","MainTask",120,"Target","Go","speed_accuracy",1,0.266819285605379,"post_correct_resp",85.515873015873
358.816492446025,1.16681928560538,"ER05EL09","2022_Feb_28_1049","square","speed_accuracy_first","MainTask",120,"ITI","Go","speed_accuracy",1,0.266819285605379,"post_correct_resp",85.515873015873
358.998528435624,0,"ER05EL09","2022_Feb_28_1049","square","speed_accuracy_first","MainTask",120,"Response","Go","speed_accuracy",1,0.266819285605379,"post_correct_resp",85.515873015873
360.053749344086,0.5,"ER05EL09","2022_Feb_28_1049","square","speed_accuracy_first","MainTask",121,"Fixation","Go","speed_accuracy",1,0.333295592425202,"post_correct_resp",85.515873015873
360.545274689259,0.1,"ER05EL09","2022_Feb_28_1049","square","speed_accuracy_first","MainTask",121,"Target","Go","speed_accuracy",1,0.333295592425202,"post_correct_resp",85.515873015873
360.629963301932,1.2332955924252,"ER05EL09","2022_Feb_28_1049","square","speed_accuracy_first","MainTask",121,"ITI","Go","speed_accuracy",1,0.333295592425202,"post_correct_resp",85.515873015873
360.878570281684,0,"ER05EL09","2022_Feb_28_1049","square","speed_accuracy_first","MainTask",121,"Response","Go","speed_accuracy",1,0.333295592425202,"post_correct_resp",85.515873015873
361.935025053011,0.5,"ER05EL09","2022_Feb_28_1049","square","speed_accuracy_first","MainTask",122,"Fixation","Go","speed_accuracy",1,0.244613064645819,"post_correct_resp",85.515873015873
362.410037757461,0.1,"ER05EL09","2022_Feb_28_1049","square","speed_accuracy_first","MainTask",122,"Target","Go","speed_accuracy",1,0.244613064645819,"post_correct_resp",85.515873015873
362.512078249483,1.14461306464582,"ER05EL09","2022_Feb_28_1049","square","speed_accuracy_first","MainTask",122,"ITI","Go","speed_accuracy",1,0.244613064645819,"post_correct_resp",85.515873015873
362.654650822107,0,"ER05EL09","2022_Feb_28_1049","square","speed_accuracy_first","MainTask",122,"Response","Go","speed_accuracy",1,0.244613064645819,"post_correct_resp",85.515873015873
363.714777386574,0.5,"ER05EL09","2022_Feb_28_1049","square","speed_accuracy_first","MainTask",123,"Fixation","Go","speed_accuracy",1,0.0817312483140995,"post_correct_resp",85.515873015873
364.189524249361,0.1,"ER05EL09","2022_Feb_28_1049","square","speed_accuracy_first","MainTask",123,"Target","Go","speed_accuracy",1,0.0817312483140995,"post_correct_resp",85.515873015873
364.271255497675,0,"ER05EL09","2022_Feb_28_1049","square","speed_accuracy_first","MainTask",123,"Response","Go","speed_accuracy",1,0.0817312483140995,"post_correct_resp",85.515873015873
364.291231098509,1.0817312483141,"ER05EL09","2022_Feb_28_1049","square","speed_accuracy_first","MainTask",123,"ITI","Go","speed_accuracy",1,0.0817312483140995,"post_correct_resp",85.515873015873
365.325059135699,0.5,"ER05EL09","2022_Feb_28_1049","square","speed_accuracy_first","MainTask",124,"Fixation","Go","speed_accuracy",1,0.271254504494209,"post_correct_resp",85.515873015873
365.799540487884,0.1,"ER05EL09","2022_Feb_28_1049","square","speed_accuracy_first","MainTask",124,"Target","Go","speed_accuracy",1,0.271254504494209,"post_correct_resp",85.515873015873
365.901220785971,1.17125450449421,"ER05EL09","2022_Feb_28_1049","square","speed_accuracy_first","MainTask",124,"ITI","Go","speed_accuracy",1,0.271254504494209,"post_correct_resp",85.515873015873
366.070794992378,0,"ER05EL09","2022_Feb_28_1049","square","speed_accuracy_first","MainTask",124,"Response","Go","speed_accuracy",1,0.271254504494209,"post_correct_resp",85.515873015873
367.12167900695,0.5,"ER05EL09","2022_Feb_28_1049","square","speed_accuracy_first","MainTask",125,"Fixation","NoGo","speed_accuracy",1,NA,"post_correct_resp",85.515873015873
367.613710212723,0.1,"ER05EL09","2022_Feb_28_1049","square","speed_accuracy_first","MainTask",125,"Target","NoGo","speed_accuracy",1,NA,"post_correct_resp",85.515873015873
367.71613870777,1.5,"ER05EL09","2022_Feb_28_1049","square","speed_accuracy_first","MainTask",125,"ITI","NoGo","speed_accuracy",1,NA,"post_correct_resp",85.515873015873
369.324834345551,25.5079558828656,"ER05EL09","2022_Feb_28_1049","square","speed_accuracy_first","MainTask",125,"Break",NA,NA,NA,NA,NA,85.515873015873
396.815425768764,0.5,"ER05EL09","2022_Feb_28_1049","square","speed_accuracy_first","MainTask",126,"Fixation","Go","speed_accuracy",0,NA,"post_break",85.515873015873
397.274535315062,0.1,"ER05EL09","2022_Feb_28_1049","square","speed_accuracy_first","MainTask",126,"Target","Go","speed_accuracy",0,NA,"post_break",85.515873015873
397.376231835118,1.5,"ER05EL09","2022_Feb_28_1049","square","speed_accuracy_first","MainTask",126,"ITI","Go","speed_accuracy",0,NA,"post_break",85.515873015873
398.935813308304,0.5,"ER05EL09","2022_Feb_28_1049","square","speed_accuracy_first","MainTask",127,"Fixation","Go","speed_accuracy",1,0.199459378036408,"post_error_inh",85.515873015873
399.427232714084,0.1,"ER05EL09","2022_Feb_28_1049","square","speed_accuracy_first","MainTask",127,"Target","Go","speed_accuracy",1,0.199459378036408,"post_error_inh",85.515873015873
399.511983566152,1.09945937803641,"ER05EL09","2022_Feb_28_1049","square","speed_accuracy_first","MainTask",127,"ITI","Go","speed_accuracy",1,0.199459378036408,"post_error_inh",85.515873015873
399.62669209212,0,"ER05EL09","2022_Feb_28_1049","square","speed_accuracy_first","MainTask",127,"Response","Go","speed_accuracy",1,0.199459378036408,"post_error_inh",85.515873015873
400.681527646044,0.5,"ER05EL09","2022_Feb_28_1049","square","speed_accuracy_first","MainTask",128,"Fixation","Go","speed_accuracy",1,0.252448606979669,"post_correct_resp",85.515873015873
401.156650924735,0.1,"ER05EL09","2022_Feb_28_1049","square","speed_accuracy_first","MainTask",128,"Target","Go","speed_accuracy",1,0.252448606979669,"post_correct_resp",85.515873015873
401.259273752357,1.15244860697967,"ER05EL09","2022_Feb_28_1049","square","speed_accuracy_first","MainTask",128,"ITI","Go","speed_accuracy",1,0.252448606979669,"post_correct_resp",85.515873015873
401.409099531715,0,"ER05EL09","2022_Feb_28_1049","square","speed_accuracy_first","MainTask",128,"Response","Go","speed_accuracy",1,0.252448606979669,"post_correct_resp",85.515873015873
402.461190924305,0.5,"ER05EL09","2022_Feb_28_1049","square","speed_accuracy_first","MainTask",129,"Fixation","NoGo","speed_accuracy",1,NA,"post_correct_resp",85.515873015873
402.935849393911,0.1,"ER05EL09","2022_Feb_28_1049","square","speed_accuracy_first","MainTask",129,"Target","NoGo","speed_accuracy",1,NA,"post_correct_resp",85.515873015873
403.037561142755,1.5,"ER05EL09","2022_Feb_28_1049","square","speed_accuracy_first","MainTask",129,"ITI","NoGo","speed_accuracy",1,NA,"post_correct_resp",85.515873015873
404.596810893217,0.5,"ER05EL09","2022_Feb_28_1049","square","speed_accuracy_first","MainTask",130,"Fixation","Go","speed_accuracy",1,0.197054553820635,"post_correct_inh",85.515873015873
405.088419996722,0.1,"ER05EL09","2022_Feb_28_1049","square","speed_accuracy_first","MainTask",130,"Target","Go","speed_accuracy",1,0.197054553820635,"post_correct_inh",85.515873015873
405.190137373596,1.09705455382064,"ER05EL09","2022_Feb_28_1049","square","speed_accuracy_first","MainTask",130,"ITI","Go","speed_accuracy",1,0.197054553820635,"post_correct_inh",85.515873015873
405.285474550543,0,"ER05EL09","2022_Feb_28_1049","square","speed_accuracy_first","MainTask",130,"Response","Go","speed_accuracy",1,0.197054553820635,"post_correct_inh",85.515873015873
406.343129747616,0.5,"ER05EL09","2022_Feb_28_1049","square","speed_accuracy_first","MainTask",131,"Fixation","Go","speed_accuracy",1,0.359376546673957,"post_correct_resp",85.515873015873
406.817269114197,0.1,"ER05EL09","2022_Feb_28_1049","square","speed_accuracy_first","MainTask",131,"Target","Go","speed_accuracy",1,0.359376546673957,"post_correct_resp",85.515873015873
406.918967620617,1.25937654667396,"ER05EL09","2022_Feb_28_1049","square","speed_accuracy_first","MainTask",131,"ITI","Go","speed_accuracy",1,0.359376546673957,"post_correct_resp",85.515873015873
407.176645660871,0,"ER05EL09","2022_Feb_28_1049","square","speed_accuracy_first","MainTask",131,"Response","Go","speed_accuracy",1,0.359376546673957,"post_correct_resp",85.515873015873
408.241033306351,0.5,"ER05EL09","2022_Feb_28_1049","square","speed_accuracy_first","MainTask",132,"Fixation","Go","speed_accuracy",1,0.333148601517678,"post_correct_resp",85.515873015873
408.715521610808,0.1,"ER05EL09","2022_Feb_28_1049","square","speed_accuracy_first","MainTask",132,"Target","Go","speed_accuracy",1,0.333148601517678,"post_correct_resp",85.515873015873
408.817212833896,1.23314860151768,"ER05EL09","2022_Feb_28_1049","square","speed_accuracy_first","MainTask",132,"ITI","Go","speed_accuracy",1,0.333148601517678,"post_correct_resp",85.515873015873
409.048670212326,0,"ER05EL09","2022_Feb_28_1049","square","speed_accuracy_first","MainTask",132,"Response","Go","speed_accuracy",1,0.333148601517678,"post_correct_resp",85.515873015873
410.105388838954,0.5,"ER05EL09","2022_Feb_28_1049","square","speed_accuracy_first","MainTask",133,"Fixation","NoGo","speed_accuracy",0,0.270153065868726,"post_correct_resp",85.515873015873
