Instruction_Condition,MarkCondition,Type,Letter,CorrectResponse,Condition,RandomizeBlocks.thisRepN,RandomizeBlocks.thisTrialN,RandomizeBlocks.thisN,RandomizeBlocks.thisIndex,Practice.thisRepN,Practice.thisTrialN,Practice.thisN,Practice.thisIndex,Trials.thisRepN,Trials.thisTrialN,Trials.thisN,Trials.thisIndex,Target_Mapping,Fixation_practice.started,Fixation_practice.stopped,Target_practice.started,Target_practice.stopped,Target_resp_practice.keys,Target_resp_practice.corr,Target_resp_practice.rt,Target_resp_practice.started,Target_resp_practice.stopped,ITI_resp_practice.started,ITI_resp_practice.stopped,ITI_Duration,ITI.started,ITI.stopped,square2.started,square2.stopped,Instr_Repe.started,Instr_Repe.stopped,Trigger_Target,TriggerResp,Fixation.started,Fixation.stopped,Target.started,Target.stopped,Target_resp.keys,Target_resp.corr,Target_resp.rt,Target_resp.started,Target_resp.stopped,ITI_resp.started,ITI_resp.stopped,square1.started,square1.stopped,showReminder,ReminderErrors.started,ReminderErrors.stopped,ReminderErrorsResp.keys,ReminderErrorsResp.started,ReminderErrorsResp.stopped,break_block.started,break_block.stopped,break_block_resp.keys,break_block_resp.rt,SelfReport.started,SelfReport.stopped,anxious.response,anxious.rt,peppy.response,peppy.rt,peeved.response,peeved.rt,happy.response,happy.rt,tired.response,tired.rt,relaxed.response,relaxed.rt,sad.response,sad.rt,calm.response,calm.rt,exhausted.response,exhausted.rt,irritated.response,irritated.rt,break_cond.started,break_cond.stopped,break_cond_resp.keys,break_cond_resp.rt,participant,session,EEGPort,LogFilesFolder,date,expName,psychopyVersion,frameRate,
DRÜCKEN SIE IM FOLGENDEN BITTE SO SCHNELL SIE KÖNNEN. BITTE ZEIGEN SIE IHRE MAXIMAL MÖGLICHE LEISTUNG!,200,NoGo,nogo,None,0,0,0,0,1,0,0,0,2,,,,,square,88.4891801118647,88.9975292947247,88.96359823147395,89.06531792577243,4,0,0.35884420122511074,88.96359823147395,None,89.06531792577243,None,1,89.35452750203149,None,89.35452750203149,None,,,,,,,,,,,,,,,,,,,,,,,,,,,,,,,,,,,,,,,,,,,,,,,,,,,,,,ER05EL09,1,0xE000,C:\Users\Administrator\Desktop\Labor\ExperimenteVARIO\Variotest\Hamburg\HamburgTasks\Logfiles\,2022_Feb_28_1049,GoNoGo,2020.1.3,58.930160055610145,
DRÜCKEN SIE IM FOLGENDEN BITTE SO SCHNELL SIE KÖNNEN. BITTE ZEIGEN SIE IHRE MAXIMAL MÖGLICHE LEISTUNG!,200,Go,go,4,0,0,0,0,1,0,1,1,0,,,,,,90.37054123442522,90.87944196424814,90.84577806690413,90.94834858695049,None,0,,90.84577806690413,None,90.94834858695049,None,0.9,91.55715943381983,None,91.55715943381983,None,,,,,,,,,,,,,,,,,,,,,,,,,,,,,,,,,,,,,,,,,,,,,,,,,,,,,,ER05EL09,1,0xE000,C:\Users\Administrator\Desktop\Labor\ExperimenteVARIO\Variotest\Hamburg\HamburgTasks\Logfiles\,2022_Feb_28_1049,GoNoGo,2020.1.3,58.930160055610145,
DRÜCKEN SIE IM FOLGENDEN BITTE SO SCHNELL SIE KÖNNEN. BITTE ZEIGEN SIE IHRE MAXIMAL MÖGLICHE LEISTUNG!,200,NoGo,nogo,None,0,0,0,0,1,0,2,2,2,,,,,,92.47263270978056,92.9811398085476,92.96433715873809,93.06653291818293,None,1,,92.96433715873809,None,93.04986103731153,93.65886224402766,0.9,93.67584134913795,None,93.67584134913795,None,,,,,,,,,,,,,,,,,,,,,,,,,,,,,,,,,,,,,,,,,,,,,,,,,,,,,,ER05EL09,1,0xE000,C:\Users\Administrator\Desktop\Labor\ExperimenteVARIO\Variotest\Hamburg\HamburgTasks\Logfiles\,2022_Feb_28_1049,GoNoGo,2020.1.3,58.930160055610145,
DRÜCKEN SIE IM FOLGENDEN BITTE SO SCHNELL SIE KÖNNEN. BITTE ZEIGEN SIE IHRE MAXIMAL MÖGLICHE LEISTUNG!,200,Go,go,4,0,0,0,0,1,1,0,3,1,,,,,,94.59145764327877,95.10127342460692,95.08283500436119,95.18492747289838,None,0,,95.08283500436119,None,95.16828307005744,95.7775127085888,0.9,95.7945219402136,None,95.7945219402136,None,,,,,,,,,,,,,,,,,,,,,,,,,,,,,,,,,,,,,,,,,,,,,,,,,,,,,,ER05EL09,1,0xE000,C:\Users\Administrator\Desktop\Labor\ExperimenteVARIO\Variotest\Hamburg\HamburgTasks\Logfiles\,2022_Feb_28_1049,GoNoGo,2020.1.3,58.930160055610145,
DRÜCKEN SIE IM FOLGENDEN BITTE SO SCHNELL SIE KÖNNEN. BITTE ZEIGEN SIE IHRE MAXIMAL MÖGLICHE LEISTUNG!,200,NoGo,nogo,None,0,0,0,0,1,1,1,4,2,,,,,,96.7097654601157,97.21981033538032,97.20292823102682,97.3033269935222,None,1,,97.20292823102682,None,97.28658161719795,97.89618071936093,0.9,97.91316776992608,None,97.91316776992608,None,,,,,,,,,,,,,,,,,,,,,,,,,,,,,,,,,,,,,,,,,,,,,,,,,,,,,,ER05EL09,1,0xE000,C:\Users\Administrator\Desktop\Labor\ExperimenteVARIO\Variotest\Hamburg\HamburgTasks\Logfiles\,2022_Feb_28_1049,GoNoGo,2020.1.3,58.930160055610145,
DRÜCKEN SIE IM FOLGENDEN BITTE SO SCHNELL SIE KÖNNEN. BITTE ZEIGEN SIE IHRE MAXIMAL MÖGLICHE LEISTUNG!,200,NoGo,nogo,None,0,0,0,0,1,1,2,5,2,,,,,,98.82844207846483,99.33821051812629,99.30460852911438,99.40500464312481,None,1,,99.30460852911438,None,99.40500464312481,None,0.9,100.01484343316406,None,100.01484343316406,None,,,,,,,,,,,,,,,,,,,,,,,,,,,,,,,,,,,,,,,,,,,,,,,,,,,,,,ER05EL09,1,0xE000,C:\Users\Administrator\Desktop\Labor\ExperimenteVARIO\Variotest\Hamburg\HamburgTasks\Logfiles\,2022_Feb_28_1049,GoNoGo,2020.1.3,58.930160055610145,
DRÜCKEN SIE IM FOLGENDEN BITTE SO SCHNELL SIE KÖNNEN. BITTE ZEIGEN SIE IHRE MAXIMAL MÖGLICHE LEISTUNG!,200,Go,go,4,0,0,0,0,1,2,0,6,1,,,,,,100.93014422655142,101.43987095257671,101.40643614916917,101.5066839480296,None,0,,101.40643614916917,None,101.5066839480296,None,0.9,102.1166117933717,None,102.1166117933717,None,,,,,,,,,,,,,,,,,,,,,,,,,,,,,,,,,,,,,,,,,,,,,,,,,,,,,,ER05EL09,1,0xE000,C:\Users\Administrator\Desktop\Labor\ExperimenteVARIO\Variotest\Hamburg\HamburgTasks\Logfiles\,2022_Feb_28_1049,GoNoGo,2020.1.3,58.930160055610145,
DRÜCKEN SIE IM FOLGENDEN BITTE SO SCHNELL SIE KÖNNEN. BITTE ZEIGEN SIE IHRE MAXIMAL MÖGLICHE LEISTUNG!,200,Go,go,4,0,0,0,0,1,2,1,7,0,,,,,,103.03190033751616,103.54151086127058,103.50812505483191,103.60841721581346,4,1,0.19864728637912776,103.50812505483191,None,103.60841721581346,None,1,103.72683494477042,None,103.72683494477042,None,,,,,,,,,,,,,,,,,,,,,,,,,,,,,,,,,,,,,,,,,,,,,,,,,,,,,,ER05EL09,1,0xE000,C:\Users\Administrator\Desktop\Labor\ExperimenteVARIO\Variotest\Hamburg\HamburgTasks\Logfiles\,2022_Feb_28_1049,GoNoGo,2020.1.3,58.930160055610145,
DRÜCKEN SIE IM FOLGENDEN BITTE SO SCHNELL SIE KÖNNEN. BITTE ZEIGEN SIE IHRE MAXIMAL MÖGLICHE LEISTUNG!,200,NoGo,nogo,None,0,0,0,0,1,2,2,8,2,,,,,,104.72687798264906,105.23535627914316,105.2183847884271,105.32010448272558,4,0,0.17363400257181638,105.2183847884271,None,105.32010448272558,None,1,105.42191720505343,None,105.42191720505343,None,,,,,,,,,,,,,,,,,,,,,,,,,,,,,,,,,,,,,,,,,,,,,,,,,,,,,,ER05EL09,1,0xE000,C:\Users\Administrator\Desktop\Labor\ExperimenteVARIO\Variotest\Hamburg\HamburgTasks\Logfiles\,2022_Feb_28_1049,GoNoGo,2020.1.3,58.930160055610145,
DRÜCKEN SIE IM FOLGENDEN BITTE SO SCHNELL SIE KÖNNEN. BITTE ZEIGEN SIE IHRE MAXIMAL MÖGLICHE LEISTUNG!,200,Go,go,4,0,0,0,0,1,3,0,9,0,,,,,,106.42222873308037,106.93031008791331,106.91328099265229,107.01498314073888,None,0,,106.91328099265229,None,107.01498314073888,None,0.9,107.62573433379839,None,107.62573433379839,None,,,,,,,,,,,,,,,,,,,,,,,,,,,,,,,,,,,,,,,,,,,,,,,,,,,,,,ER05EL09,1,0xE000,C:\Users\Administrator\Desktop\Labor\ExperimenteVARIO\Variotest\Hamburg\HamburgTasks\Logfiles\,2022_Feb_28_1049,GoNoGo,2020.1.3,58.930160055610145,
DRÜCKEN SIE IM FOLGENDEN BITTE SO SCHNELL SIE KÖNNEN. BITTE ZEIGEN SIE IHRE MAXIMAL MÖGLICHE LEISTUNG!,200,Go,go,4,0,0,0,0,1,3,1,10,1,,,,,,108.54063851658339,109.04895062065589,109.0150172399808,109.11673594109743,4,1,0.17394486847842927,109.0150172399808,None,109.11673594109743,None,1,109.21858309372783,None,109.21858309372783,None,,,,,,,,,,,,,,,,,,,,,,,,,,,,,,,,,,,,,,,,,,,,,,,,,,,,,,ER05EL09,1,0xE000,C:\Users\Administrator\Desktop\Labor\ExperimenteVARIO\Variotest\Hamburg\HamburgTasks\Logfiles\,2022_Feb_28_1049,GoNoGo,2020.1.3,58.930160055610145,
DRÜCKEN SIE IM FOLGENDEN BITTE SO SCHNELL SIE KÖNNEN. BITTE ZEIGEN SIE IHRE MAXIMAL MÖGLICHE LEISTUNG!,200,Go,go,4,0,0,0,0,1,3,2,11,1,,,,,,110.21854634600095,110.72750898415688,110.6934819133312,110.7950943439946,4,1,0.26792668331927416,110.6934819133312,None,110.7950943439946,None,1,110.98124806536453,None,110.98124806536453,None,,,,,,,,,,,,,,,,,,,,,,,,,,,,,,,,,,,,,,,,,,,,,,,,,,,,,,ER05EL09,1,0xE000,C:\Users\Administrator\Desktop\Labor\ExperimenteVARIO\Variotest\Hamburg\HamburgTasks\Logfiles\,2022_Feb_28_1049,GoNoGo,2020.1.3,58.930160055610145,
DRÜCKEN SIE IM FOLGENDEN BITTE SO SCHNELL SIE KÖNNEN. BITTE ZEIGEN SIE IHRE MAXIMAL MÖGLICHE LEISTUNG!,200,Go,go,4,0,0,0,0,1,4,0,12,0,,,,,,111.98162348808728,112.48981806564552,112.45586117966832,112.55755538230005,4,1,0.2269122474217511,112.45586117966832,None,112.55755538230005,None,1,112.71008062980945,None,112.71008062980945,None,,,,,,,,,,,,,,,,,,,,,,,,,,,,,,,,,,,,,,,,,,,,,,,,,,,,,,ER05EL09,1,0xE000,C:\Users\Administrator\Desktop\Labor\ExperimenteVARIO\Variotest\Hamburg\HamburgTasks\Logfiles\,2022_Feb_28_1049,GoNoGo,2020.1.3,58.930160055610145,
DRÜCKEN SIE IM FOLGENDEN BITTE SO SCHNELL SIE KÖNNEN. BITTE ZEIGEN SIE IHRE MAXIMAL MÖGLICHE LEISTUNG!,200,Go,go,4,0,0,0,0,1,4,1,13,1,,,,,,113.71015280102074,114.21854104903105,114.18465037517399,114.28635484068491,4,1,0.21668015738578106,114.18465037517399,None,114.28635484068491,None,1,114.42258561640938,None,114.42258561640938,None,,,,,,,,,,,,,,,,,,,,,,,,,,,,,,,,,,,,,,,,,,,,,,,,,,,,,,ER05EL09,1,0xE000,C:\Users\Administrator\Desktop\Labor\ExperimenteVARIO\Variotest\Hamburg\HamburgTasks\Logfiles\,2022_Feb_28_1049,GoNoGo,2020.1.3,58.930160055610145,
DRÜCKEN SIE IM FOLGENDEN BITTE SO SCHNELL SIE KÖNNEN. BITTE ZEIGEN SIE IHRE MAXIMAL MÖGLICHE LEISTUNG!,200,Go,go,4,0,0,0,0,1,4,2,14,0,,,,,,115.42206684444591,115.93124864472065,115.89672961783981,115.99879957425583,4,1,0.2465507623492158,115.89672961783981,None,115.99879957425583,None,1,116.16783216551721,None,116.16783216551721,None,,,,,,,,,,,,,,,,,,,,,,,,,,,,,,,,,,,,,,,,,,,,,,,,,,,,,,ER05EL09,1,0xE000,C:\Users\Administrator\Desktop\Labor\ExperimenteVARIO\Variotest\Hamburg\HamburgTasks\Logfiles\,2022_Feb_28_1049,GoNoGo,2020.1.3,58.930160055610145,
DRÜCKEN SIE IM FOLGENDEN BITTE SO SCHNELL SIE KÖNNEN. BITTE ZEIGEN SIE IHRE MAXIMAL MÖGLICHE LEISTUNG!,200,Go,go,4,1,0,0,0,1,,,,,0,0,0,0,,,,,,,,,,,,,1,126.71037792223069,None,126.71037792223069,None,117.2189128300879,None,201,211,125.9305961242735,126.43963689273096,126.4226759959538,126.5242530031328,4,1,0.24617070477779635,126.4226759959538,None,126.5242530031328,None,126.4226759959538,None,False,None,None,None,None,None,None,None,None,,,,,,,,,,,,,,,,,,,,,,,,,,,,ER05EL09,1,0xE000,C:\Users\Administrator\Desktop\Labor\ExperimenteVARIO\Variotest\Hamburg\HamburgTasks\Logfiles\,2022_Feb_28_1049,GoNoGo,2020.1.3,58.930160055610145,
DRÜCKEN SIE IM FOLGENDEN BITTE SO SCHNELL SIE KÖNNEN. BITTE ZEIGEN SIE IHRE MAXIMAL MÖGLICHE LEISTUNG!,200,Go,go,4,1,0,0,0,1,,,,,0,1,1,0,,,,,,,,,,,,,0.9,128.9646056488864,None,128.9646056488864,None,,,201,0,127.76102489741243,128.2696862704197,128.2357558692902,128.33745967267987,None,0,,128.2357558692902,None,128.33745967267987,None,128.2357558692902,None,False,None,None,None,None,None,None,None,None,,,,,,,,,,,,,,,,,,,,,,,,,,,,ER05EL09,1,0xE000,C:\Users\Administrator\Desktop\Labor\ExperimenteVARIO\Variotest\Hamburg\HamburgTasks\Logfiles\,2022_Feb_28_1049,GoNoGo,2020.1.3,58.930160055610145,
DRÜCKEN SIE IM FOLGENDEN BITTE SO SCHNELL SIE KÖNNEN. BITTE ZEIGEN SIE IHRE MAXIMAL MÖGLICHE LEISTUNG!,200,Go,go,4,1,0,0,0,1,,,,,0,2,2,0,,,,,,,,,,,,,0.9,131.10023521855783,None,131.10023521855783,None,,,201,0,129.89683257768684,130.40607694841583,130.37153077456605,130.4732233218947,None,0,,130.37153077456605,None,130.4732233218947,None,130.37153077456605,None,False,None,None,None,None,None,None,None,None,,,,,,,,,,,,,,,,,,,,,,,,,,,,ER05EL09,1,0xE000,C:\Users\Administrator\Desktop\Labor\ExperimenteVARIO\Variotest\Hamburg\HamburgTasks\Logfiles\,2022_Feb_28_1049,GoNoGo,2020.1.3,58.930160055610145,
DRÜCKEN SIE IM FOLGENDEN BITTE SO SCHNELL SIE KÖNNEN. BITTE ZEIGEN SIE IHRE MAXIMAL MÖGLICHE LEISTUNG!,200,NoGo,nogo,None,2,0,0,0,1,,,,,1,0,3,2,,,,,,,,,,,,,0.9,133.25281376682415,None,133.25281376682415,None,,,202,0,132.032464133722,132.5411384180925,132.52427021828498,132.62601043834093,None,1,,132.52427021828498,None,132.62601043834093,None,132.52427021828498,None,False,None,None,None,None,None,None,None,None,,,,,,,,,,,,,,,,,,,,,,,,,,,,ER05EL09,1,0xE000,C:\Users\Administrator\Desktop\Labor\ExperimenteVARIO\Variotest\Hamburg\HamburgTasks\Logfiles\,2022_Feb_28_1049,GoNoGo,2020.1.3,58.930160055610145,
DRÜCKEN SIE IM FOLGENDEN BITTE SO SCHNELL SIE KÖNNEN. BITTE ZEIGEN SIE IHRE MAXIMAL MÖGLICHE LEISTUNG!,200,NoGo,nogo,None,2,0,0,0,1,,,,,1,1,4,2,,,,,,,,,,,,,1,134.91452876006224,None,134.91452876006224,None,,,202,220,134.1688140912629,134.67672230140033,134.6597246568972,134.7615277784671,4,0,0.20665498022754036,134.6597246568972,None,134.7615277784671,None,134.6597246568972,None,False,None,None,None,None,None,None,None,None,,,,,,,,,,,,,,,,,,,,,,,,,,,,ER05EL09,1,0xE000,C:\Users\Administrator\Desktop\Labor\ExperimenteVARIO\Variotest\Hamburg\HamburgTasks\Logfiles\,2022_Feb_28_1049,GoNoGo,2020.1.3,58.930160055610145,
DRÜCKEN SIE IM FOLGENDEN BITTE SO SCHNELL SIE KÖNNEN. BITTE ZEIGEN SIE IHRE MAXIMAL MÖGLICHE LEISTUNG!,200,Go,go,4,1,0,0,0,1,,,,,1,2,5,0,,,,,,,,,,,,,1,136.79538170459728,None,136.79538170459728,None,,,201,211,135.91752783805805,136.42242306565367,136.40555089311874,136.50719808514532,4,1,0.3554895641418625,136.40555089311874,None,136.50719808514532,None,136.40555089311874,None,False,None,None,None,None,None,None,None,None,,,,,,,,,,,,,,,,,,,,,,,,,,,,ER05EL09,1,0xE000,C:\Users\Administrator\Desktop\Labor\ExperimenteVARIO\Variotest\Hamburg\HamburgTasks\Logfiles\,2022_Feb_28_1049,GoNoGo,2020.1.3,58.930160055610145,
DRÜCKEN SIE IM FOLGENDEN BITTE SO SCHNELL SIE KÖNNEN. BITTE ZEIGEN SIE IHRE MAXIMAL MÖGLICHE LEISTUNG!,200,Go,go,4,1,0,0,0,1,,,,,2,0,6,1,,,,,,,,,,,,,1,138.60890089535314,None,138.60890089535314,None,,,201,211,137.79674501215777,138.30380570715351,138.2867891921951,138.38856715315978,4,1,0.2824556089108228,138.2867891921951,None,138.38856715315978,None,138.2867891921951,None,False,None,None,None,None,None,None,None,None,,,,,,,,,,,,,,,,,,,,,,,,,,,,ER05EL09,1,0xE000,C:\Users\Administrator\Desktop\Labor\ExperimenteVARIO\Variotest\Hamburg\HamburgTasks\Logfiles\,2022_Feb_28_1049,GoNoGo,2020.1.3,58.930160055610145,
DRÜCKEN SIE IM FOLGENDEN BITTE SO SCHNELL SIE KÖNNEN. BITTE ZEIGEN SIE IHRE MAXIMAL MÖGLICHE LEISTUNG!,200,NoGo,nogo,None,2,0,0,0,1,,,,,2,1,7,2,,,,,,,,,,,,,1,140.4053664923631,None,140.4053664923631,None,,,202,220,139.61156957486855,140.1178761138117,140.10090462309563,140.20355360450503,4,0,0.2615491318765635,140.10090462309563,None,140.20355360450503,None,140.10090462309563,None,False,None,None,None,None,None,None,None,None,,,,,,,,,,,,,,,,,,,,,,,,,,,,ER05EL09,1,0xE000,C:\Users\Administrator\Desktop\Labor\ExperimenteVARIO\Variotest\Hamburg\HamburgTasks\Logfiles\,2022_Feb_28_1049,GoNoGo,2020.1.3,58.930160055610145,
DRÜCKEN SIE IM FOLGENDEN BITTE SO SCHNELL SIE KÖNNEN. BITTE ZEIGEN SIE IHRE MAXIMAL MÖGLICHE LEISTUNG!,200,Go,go,4,1,0,0,0,1,,,,,2,2,8,0,,,,,,,,,,,,,1,142.21966202023032,None,142.21966202023032,None,,,201,211,141.42243465277534,141.9310304757837,141.9140828214313,142.0157886111847,4,1,0.25628559936012607,141.9140828214313,None,142.0157886111847,None,141.9140828214313,None,False,None,None,None,None,None,None,None,None,,,,,,,,,,,,,,,,,,,,,,,,,,,,ER05EL09,1,0xE000,C:\Users\Administrator\Desktop\Labor\ExperimenteVARIO\Variotest\Hamburg\HamburgTasks\Logfiles\,2022_Feb_28_1049,GoNoGo,2020.1.3,58.930160055610145,
DRÜCKEN SIE IM FOLGENDEN BITTE SO SCHNELL SIE KÖNNEN. BITTE ZEIGEN SIE IHRE MAXIMAL MÖGLICHE LEISTUNG!,200,Go,go,4,1,0,0,0,1,,,,,3,0,9,1,,,,,,,,,,,,,1,144.0497243092832,None,144.0497243092832,None,,,201,211,143.23664145640214,143.74628508621572,143.71064078434938,143.81241709001006,4,1,0.305378245015163,143.71064078434938,None,143.81241709001006,None,143.71064078434938,None,False,None,None,None,None,None,None,None,None,,,,,,,,,,,,,,,,,,,,,,,,,,,,ER05EL09,1,0xE000,C:\Users\Administrator\Desktop\Labor\ExperimenteVARIO\Variotest\Hamburg\HamburgTasks\Logfiles\,2022_Feb_28_1049,GoNoGo,2020.1.3,58.930160055610145,
DRÜCKEN SIE IM FOLGENDEN BITTE SO SCHNELL SIE KÖNNEN. BITTE ZEIGEN SIE IHRE MAXIMAL MÖGLICHE LEISTUNG!,200,NoGo,nogo,None,2,0,0,0,1,,,,,3,1,10,2,,,,,,,,,,,,,1,145.84634848432142,None,145.84634848432142,None,,,202,220,145.06671533257577,145.57509033816132,145.5582605413838,145.65980378038148,4,0,0.24114884650225576,145.5582605413838,None,145.65980378038148,None,145.5582605413838,None,False,None,None,None,None,None,None,None,None,,,,,,,,,,,,,,,,,,,,,,,,,,,,ER05EL09,1,0xE000,C:\Users\Administrator\Desktop\Labor\ExperimenteVARIO\Variotest\Hamburg\HamburgTasks\Logfiles\,2022_Feb_28_1049,GoNoGo,2020.1.3,58.930160055610145,
DRÜCKEN SIE IM FOLGENDEN BITTE SO SCHNELL SIE KÖNNEN. BITTE ZEIGEN SIE IHRE MAXIMAL MÖGLICHE LEISTUNG!,200,Go,go,4,1,0,0,0,1,,,,,3,2,11,1,,,,,,,,,,,,,1,147.69358917696627,None,147.69358917696627,None,,,201,211,146.8632001310998,147.372050870772,147.35503071414678,147.45701492586704,4,1,0.2952014421007334,147.35503071414678,None,147.45701492586704,None,147.35503071414678,None,False,None,None,None,None,None,None,None,None,,,,,,,,,,,,,,,,,,,,,,,,,,,,ER05EL09,1,0xE000,C:\Users\Administrator\Desktop\Labor\ExperimenteVARIO\Variotest\Hamburg\HamburgTasks\Logfiles\,2022_Feb_28_1049,GoNoGo,2020.1.3,58.930160055610145,
DRÜCKEN SIE IM FOLGENDEN BITTE SO SCHNELL SIE KÖNNEN. BITTE ZEIGEN SIE IHRE MAXIMAL MÖGLICHE LEISTUNG!,200,Go,go,4,1,0,0,0,1,,,,,4,0,12,0,,,,,,,,,,,,,0.9,149.91421127294416,None,149.91421127294416,None,,,201,0,148.71071990783275,149.22033473537522,149.18545187289237,149.28713846112987,None,0,,149.18545187289237,None,149.28713846112987,None,149.18545187289237,None,False,None,None,None,None,None,None,None,None,,,,,,,,,,,,,,,,,,,,,,,,,,,,ER05EL09,1,0xE000,C:\Users\Administrator\Desktop\Labor\ExperimenteVARIO\Variotest\Hamburg\HamburgTasks\Logfiles\,2022_Feb_28_1049,GoNoGo,2020.1.3,58.930160055610145,
DRÜCKEN SIE IM FOLGENDEN BITTE SO SCHNELL SIE KÖNNEN. BITTE ZEIGEN SIE IHRE MAXIMAL MÖGLICHE LEISTUNG!,200,Go,go,4,1,0,0,0,1,,,,,4,1,13,1,,,,,,,,,,,,,1,151.66050827734216,None,151.66050827734216,None,,,201,211,150.84638026613902,151.35548890202153,151.32109269862303,151.42278590807473,4,1,0.2986212981213612,151.32109269862303,None,151.42278590807473,None,151.32109269862303,None,False,None,None,None,None,None,None,None,None,,,,,,,,,,,,,,,,,,,,,,,,,,,,ER05EL09,1,0xE000,C:\Users\Administrator\Desktop\Labor\ExperimenteVARIO\Variotest\Hamburg\HamburgTasks\Logfiles\,2022_Feb_28_1049,GoNoGo,2020.1.3,58.930160055610145,
DRÜCKEN SIE IM FOLGENDEN BITTE SO SCHNELL SIE KÖNNEN. BITTE ZEIGEN SIE IHRE MAXIMAL MÖGLICHE LEISTUNG!,200,NoGo,nogo,None,2,0,0,0,1,,,,,4,2,14,2,,,,,,,,,,,,,1,153.43968588969983,None,153.43968588969983,None,,,202,220,152.67741521124117,153.18546544637684,153.16843899960077,153.2702603295038,4,0,0.23737939048442058,153.16843899960077,None,153.2702603295038,None,153.16843899960077,None,False,None,None,None,None,None,None,None,None,,,,,,,,,,,,,,,,,,,,,,,,,,,,ER05EL09,1,0xE000,C:\Users\Administrator\Desktop\Labor\ExperimenteVARIO\Variotest\Hamburg\HamburgTasks\Logfiles\,2022_Feb_28_1049,GoNoGo,2020.1.3,58.930160055610145,
DRÜCKEN SIE IM FOLGENDEN BITTE SO SCHNELL SIE KÖNNEN. BITTE ZEIGEN SIE IHRE MAXIMAL MÖGLICHE LEISTUNG!,200,NoGo,nogo,None,2,0,0,0,1,,,,,5,0,15,2,,,,,,,,,,,,,0.9,155.66021628189083,None,155.66021628189083,None,,,202,0,154.4567861629912,154.9666386920453,154.93191573183321,155.03294086098867,None,1,,154.93191573183321,None,155.03294086098867,None,154.93191573183321,None,False,None,None,None,None,None,None,None,None,,,,,,,,,,,,,,,,,,,,,,,,,,,,ER05EL09,1,0xE000,C:\Users\Administrator\Desktop\Labor\ExperimenteVARIO\Variotest\Hamburg\HamburgTasks\Logfiles\,2022_Feb_28_1049,GoNoGo,2020.1.3,58.930160055610145,
DRÜCKEN SIE IM FOLGENDEN BITTE SO SCHNELL SIE KÖNNEN. BITTE ZEIGEN SIE IHRE MAXIMAL MÖGLICHE LEISTUNG!,200,Go,go,4,1,0,0,0,1,,,,,5,1,16,1,,,,,,,,,,,,,1,157.32111190013893,None,157.32111190013893,None,,,201,211,156.5924259955409,157.10077054355133,157.08397981192502,157.18553728652842,4,1,0.19754982048289094,157.08397981192502,None,157.18553728652842,None,157.08397981192502,None,False,None,None,None,None,None,None,None,None,,,,,,,,,,,,,,,,,,,,,,,,,,,,ER05EL09,1,0xE000,C:\Users\Administrator\Desktop\Labor\ExperimenteVARIO\Variotest\Hamburg\HamburgTasks\Logfiles\,2022_Feb_28_1049,GoNoGo,2020.1.3,58.930160055610145,
DRÜCKEN SIE IM FOLGENDEN BITTE SO SCHNELL SIE KÖNNEN. BITTE ZEIGEN SIE IHRE MAXIMAL MÖGLICHE LEISTUNG!,200,NoGo,nogo,None,2,0,0,0,1,,,,,5,2,17,2,,,,,,,,,,,,,1,159.15194390509168,None,159.15194390509168,None,,,202,220,158.33808670146027,158.84667987598368,158.8296971292075,158.93191209016732,4,0,0.2772063120009989,158.8296971292075,None,158.93191209016732,None,158.8296971292075,None,False,None,None,None,None,None,None,None,None,,,,,,,,,,,,,,,,,,,,,,,,,,,,ER05EL09,1,0xE000,C:\Users\Administrator\Desktop\Labor\ExperimenteVARIO\Variotest\Hamburg\HamburgTasks\Logfiles\,2022_Feb_28_1049,GoNoGo,2020.1.3,58.930160055610145,
DRÜCKEN SIE IM FOLGENDEN BITTE SO SCHNELL SIE KÖNNEN. BITTE ZEIGEN SIE IHRE MAXIMAL MÖGLICHE LEISTUNG!,200,Go,go,4,1,0,0,0,1,,,,,6,0,18,0,,,,,,,,,,,,,1,160.98225018580706,None,160.98225018580706,None,,,201,211,160.16941927004336,160.67720664306216,160.6602526985571,160.76194657013002,4,1,0.2865756581068126,160.6602526985571,None,160.76194657013002,None,160.6602526985571,None,False,None,None,None,None,None,None,None,None,,,,,,,,,,,,,,,,,,,,,,,,,,,,ER05EL09,1,0xE000,C:\Users\Administrator\Desktop\Labor\ExperimenteVARIO\Variotest\Hamburg\HamburgTasks\Logfiles\,2022_Feb_28_1049,GoNoGo,2020.1.3,58.930160055610145,
DRÜCKEN SIE IM FOLGENDEN BITTE SO SCHNELL SIE KÖNNEN. BITTE ZEIGEN SIE IHRE MAXIMAL MÖGLICHE LEISTUNG!,200,Go,go,4,1,0,0,0,1,,,,,6,1,19,1,,,,,,,,,,,,,0.9,163.20314474466068,None,163.20314474466068,None,,,201,0,161.99937429546117,162.5103501131398,162.47389736128207,162.57547999649069,None,0,,162.47389736128207,None,162.57547999649069,None,162.47389736128207,None,False,None,None,None,None,None,None,None,None,,,,,,,,,,,,,,,,,,,,,,,,,,,,ER05EL09,1,0xE000,C:\Users\Administrator\Desktop\Labor\ExperimenteVARIO\Variotest\Hamburg\HamburgTasks\Logfiles\,2022_Feb_28_1049,GoNoGo,2020.1.3,58.930160055610145,
DRÜCKEN SIE IM FOLGENDEN BITTE SO SCHNELL SIE KÖNNEN. BITTE ZEIGEN SIE IHRE MAXIMAL MÖGLICHE LEISTUNG!,200,Go,go,4,1,0,0,0,1,,,,,6,2,20,0,,,,,,,,,,,,,1,164.93173199319972,None,164.93173199319972,None,,,201,211,164.1351240401309,164.64535464039363,164.60947296807353,164.7111780957057,4,1,0.2881859368753794,164.60947296807353,None,164.7111780957057,None,164.60947296807353,None,False,None,None,None,None,None,None,None,None,,,,,,,,,,,,,,,,,,,,,,,,,,,,ER05EL09,1,0xE000,C:\Users\Administrator\Desktop\Labor\ExperimenteVARIO\Variotest\Hamburg\HamburgTasks\Logfiles\,2022_Feb_28_1049,GoNoGo,2020.1.3,58.930160055610145,
DRÜCKEN SIE IM FOLGENDEN BITTE SO SCHNELL SIE KÖNNEN. BITTE ZEIGEN SIE IHRE MAXIMAL MÖGLICHE LEISTUNG!,200,NoGo,nogo,None,2,0,0,0,1,,,,,7,0,21,2,,,,,,,,,,,,,0.9,167.1688458730805,None,167.1688458730805,None,,,202,0,165.94849756422082,166.45770684252602,166.44102536089667,166.54167970217713,None,1,,166.44102536089667,None,166.54167970217713,None,166.44102536089667,None,False,None,None,None,None,None,None,None,None,,,,,,,,,,,,,,,,,,,,,,,,,,,,ER05EL09,1,0xE000,C:\Users\Administrator\Desktop\Labor\ExperimenteVARIO\Variotest\Hamburg\HamburgTasks\Logfiles\,2022_Feb_28_1049,GoNoGo,2020.1.3,58.930160055610145,
DRÜCKEN SIE IM FOLGENDEN BITTE SO SCHNELL SIE KÖNNEN. BITTE ZEIGEN SIE IHRE MAXIMAL MÖGLICHE LEISTUNG!,200,Go,go,4,1,0,0,0,1,,,,,7,1,22,1,,,,,,,,,,,,,1,168.88053909908376,None,168.88053909908376,None,,,201,211,168.10102678445764,168.60948554837705,168.5927772508403,168.69409404438557,4,1,0.24456539191669435,168.5927772508403,None,168.69409404438557,None,168.5927772508403,None,False,None,None,None,None,None,None,None,None,,,,,,,,,,,,,,,,,,,,,,,,,,,,ER05EL09,1,0xE000,C:\Users\Administrator\Desktop\Labor\ExperimenteVARIO\Variotest\Hamburg\HamburgTasks\Logfiles\,2022_Feb_28_1049,GoNoGo,2020.1.3,58.930160055610145,
DRÜCKEN SIE IM FOLGENDEN BITTE SO SCHNELL SIE KÖNNEN. BITTE ZEIGEN SIE IHRE MAXIMAL MÖGLICHE LEISTUNG!,200,Go,go,4,1,0,0,0,1,,,,,7,2,23,0,,,,,,,,,,,,,0.9,171.1011072321835,None,171.1011072321835,None,,,201,0,169.8976337443455,170.40715157113118,170.37232333364773,170.47445685369894,None,0,,170.37232333364773,None,170.47445685369894,None,170.37232333364773,None,False,None,None,None,None,None,None,None,None,,,,,,,,,,,,,,,,,,,,,,,,,,,,ER05EL09,1,0xE000,C:\Users\Administrator\Desktop\Labor\ExperimenteVARIO\Variotest\Hamburg\HamburgTasks\Logfiles\,2022_Feb_28_1049,GoNoGo,2020.1.3,58.930160055610145,
DRÜCKEN SIE IM FOLGENDEN BITTE SO SCHNELL SIE KÖNNEN. BITTE ZEIGEN SIE IHRE MAXIMAL MÖGLICHE LEISTUNG!,200,Go,go,4,1,0,0,0,1,,,,,8,0,24,1,,,,,,,,,,,,,1,173.01626997329913,None,173.01626997329913,None,,,201,211,172.03325172689438,172.54325290216002,172.50806347756043,172.61007384306686,4,1,0.4696879257226101,172.50806347756043,None,172.61007384306686,None,172.50806347756043,None,False,None,None,None,None,None,None,None,None,,,,,,,,,,,,,,,,,,,,,,,,,,,,ER05EL09,1,0xE000,C:\Users\Administrator\Desktop\Labor\ExperimenteVARIO\Variotest\Hamburg\HamburgTasks\Logfiles\,2022_Feb_28_1049,GoNoGo,2020.1.3,58.930160055610145,
DRÜCKEN SIE IM FOLGENDEN BITTE SO SCHNELL SIE KÖNNEN. BITTE ZEIGEN SIE IHRE MAXIMAL MÖGLICHE LEISTUNG!,200,NoGo,nogo,None,2,0,0,0,1,,,,,8,1,25,2,,,,,,,,,,,,,0.9,175.25371425166122,None,175.25371425166122,None,,,202,0,174.03326496931913,174.54186145444874,174.5249220766109,174.62672586030203,None,1,,174.5249220766109,None,174.62672586030203,None,174.5249220766109,None,False,None,None,None,None,None,None,None,None,,,,,,,,,,,,,,,,,,,,,,,,,,,,ER05EL09,1,0xE000,C:\Users\Administrator\Desktop\Labor\ExperimenteVARIO\Variotest\Hamburg\HamburgTasks\Logfiles\,2022_Feb_28_1049,GoNoGo,2020.1.3,58.930160055610145,
DRÜCKEN SIE IM FOLGENDEN BITTE SO SCHNELL SIE KÖNNEN. BITTE ZEIGEN SIE IHRE MAXIMAL MÖGLICHE LEISTUNG!,200,Go,go,4,1,0,0,0,1,,,,,8,2,26,1,,,,,,,,,,,,,1,176.9660043799322,None,176.9660043799322,None,,,201,211,176.18584020697926,176.6944972761994,176.6774863892715,176.7795897828073,4,1,0.2535891107545467,176.6774863892715,None,176.76265206027347,None,176.6774863892715,None,False,None,None,None,None,None,None,None,None,,,,,,,,,,,,,,,,,,,,,,,,,,,,ER05EL09,1,0xE000,C:\Users\Administrator\Desktop\Labor\ExperimenteVARIO\Variotest\Hamburg\HamburgTasks\Logfiles\,2022_Feb_28_1049,GoNoGo,2020.1.3,58.930160055610145,
DRÜCKEN SIE IM FOLGENDEN BITTE SO SCHNELL SIE KÖNNEN. BITTE ZEIGEN SIE IHRE MAXIMAL MÖGLICHE LEISTUNG!,200,Go,go,4,1,0,0,0,1,,,,,9,0,27,0,,,,,,,,,,,,,1,178.9488981475497,None,178.9488981475497,None,,,201,211,177.98343968655172,178.49102610578302,178.47408904537042,178.57575179724518,4,1,0.4273737459006952,178.47408904537042,None,178.55881870955818,None,178.47408904537042,None,False,None,None,None,None,None,None,None,None,,,,,,,,,,,,,,,,,,,,,,,,,,,,ER05EL09,1,0xE000,C:\Users\Administrator\Desktop\Labor\ExperimenteVARIO\Variotest\Hamburg\HamburgTasks\Logfiles\,2022_Feb_28_1049,GoNoGo,2020.1.3,58.930160055610145,
DRÜCKEN SIE IM FOLGENDEN BITTE SO SCHNELL SIE KÖNNEN. BITTE ZEIGEN SIE IHRE MAXIMAL MÖGLICHE LEISTUNG!,200,NoGo,nogo,None,2,0,0,0,1,,,,,9,1,28,2,,,,,,,,,,,,,1,180.728219109149,None,180.728219109149,None,,,202,220,179.9661192579606,180.47414234612734,180.4571589372299,180.55883724895284,4,0,0.2307293761659821,180.4571589372299,None,180.55883724895284,None,180.4571589372299,None,False,None,None,None,None,None,None,None,None,,,,,,,,,,,,,,,,,,,,,,,,,,,,ER05EL09,1,0xE000,C:\Users\Administrator\Desktop\Labor\ExperimenteVARIO\Variotest\Hamburg\HamburgTasks\Logfiles\,2022_Feb_28_1049,GoNoGo,2020.1.3,58.930160055610145,
DRÜCKEN SIE IM FOLGENDEN BITTE SO SCHNELL SIE KÖNNEN. BITTE ZEIGEN SIE IHRE MAXIMAL MÖGLICHE LEISTUNG!,200,Go,go,4,1,0,0,0,1,,,,,9,2,29,0,,,,,,,,,,,,,1,182.5758282722436,None,182.5758282722436,None,,,201,211,181.74520880819728,182.2538463448418,182.23702912836598,182.33846543479012,4,1,0.30391197760764044,182.23702912836598,None,182.33846543479012,None,182.23702912836598,None,False,None,None,None,None,None,None,None,None,,,,,,,,,,,,,,,,,,,,,,,,,,,,ER05EL09,1,0xE000,C:\Users\Administrator\Desktop\Labor\ExperimenteVARIO\Variotest\Hamburg\HamburgTasks\Logfiles\,2022_Feb_28_1049,GoNoGo,2020.1.3,58.930160055610145,
DRÜCKEN SIE IM FOLGENDEN BITTE SO SCHNELL SIE KÖNNEN. BITTE ZEIGEN SIE IHRE MAXIMAL MÖGLICHE LEISTUNG!,200,NoGo,nogo,None,2,0,0,0,1,,,,,10,0,30,2,,,,,,,,,,,,,0.9,184.8131682665171,None,184.8131682665171,None,,,202,0,183.59268654023435,184.10172399808653,184.08466212782514,184.18631925167028,None,1,,184.08466212782514,None,184.18631925167028,None,184.08466212782514,None,False,None,None,None,None,None,None,None,None,,,,,,,,,,,,,,,,,,,,,,,,,,,,ER05EL09,1,0xE000,C:\Users\Administrator\Desktop\Labor\ExperimenteVARIO\Variotest\Hamburg\HamburgTasks\Logfiles\,2022_Feb_28_1049,GoNoGo,2020.1.3,58.930160055610145,
DRÜCKEN SIE IM FOLGENDEN BITTE SO SCHNELL SIE KÖNNEN. BITTE ZEIGEN SIE IHRE MAXIMAL MÖGLICHE LEISTUNG!,200,Go,go,4,1,0,0,0,1,,,,,10,1,31,0,,,,,,,,,,,,,1,186.50793833665193,None,186.50793833665193,None,,,201,211,185.7452922354696,186.2543104918077,186.23737872836318,186.3400541946212,4,1,0.22505764592824562,186.23737872836318,None,186.3400541946212,None,186.23737872836318,None,False,None,None,None,None,None,None,None,None,,,,,,,,,,,,,,,,,,,,,,,,,,,,ER05EL09,1,0xE000,C:\Users\Administrator\Desktop\Labor\ExperimenteVARIO\Variotest\Hamburg\HamburgTasks\Logfiles\,2022_Feb_28_1049,GoNoGo,2020.1.3,58.930160055610145,
DRÜCKEN SIE IM FOLGENDEN BITTE SO SCHNELL SIE KÖNNEN. BITTE ZEIGEN SIE IHRE MAXIMAL MÖGLICHE LEISTUNG!,200,Go,go,4,1,0,0,0,1,,,,,10,2,32,1,,,,,,,,,,,,,1,188.33906630978345,None,188.33906630978345,None,,,201,211,187.52501642888274,188.03417902764158,187.99967655379078,188.10135056172658,4,1,0.30514716471407155,187.99967655379078,None,188.10135056172658,None,187.99967655379078,None,False,None,None,None,None,None,None,None,None,,,,,,,,,,,,,,,,,,,,,,,,,,,,ER05EL09,1,0xE000,C:\Users\Administrator\Desktop\Labor\ExperimenteVARIO\Variotest\Hamburg\HamburgTasks\Logfiles\,2022_Feb_28_1049,GoNoGo,2020.1.3,58.930160055610145,
DRÜCKEN SIE IM FOLGENDEN BITTE SO SCHNELL SIE KÖNNEN. BITTE ZEIGEN SIE IHRE MAXIMAL MÖGLICHE LEISTUNG!,200,Go,go,4,1,0,0,0,1,,,,,11,0,33,1,,,,,,,,,,,,,1,190.1862222509135,None,190.1862222509135,None,,,201,211,189.35611626186255,189.86412809396825,189.84706225097943,189.94894250967081,4,1,0.30593012303870637,189.84706225097943,None,189.93200412501574,None,189.84706225097943,None,False,None,None,None,None,None,None,None,None,,,,,,,,,,,,,,,,,,,,,,,,,,,,ER05EL09,1,0xE000,C:\Users\Administrator\Desktop\Labor\ExperimenteVARIO\Variotest\Hamburg\HamburgTasks\Logfiles\,2022_Feb_28_1049,GoNoGo,2020.1.3,58.930160055610145,
DRÜCKEN SIE IM FOLGENDEN BITTE SO SCHNELL SIE KÖNNEN. BITTE ZEIGEN SIE IHRE MAXIMAL MÖGLICHE LEISTUNG!,200,NoGo,nogo,None,2,0,0,0,1,,,,,11,1,34,2,,,,,,,,,,,,,0.9,192.42376121260895,None,192.42376121260895,None,,,202,0,191.20322552344805,191.71159622524647,191.69466611710595,191.79644970610025,None,1,,191.69466611710595,None,191.79644970610025,None,191.69466611710595,None,False,None,None,None,None,None,None,None,None,,,,,,,,,,,,,,,,,,,,,,,,,,,,ER05EL09,1,0xE000,C:\Users\Administrator\Desktop\Labor\ExperimenteVARIO\Variotest\Hamburg\HamburgTasks\Logfiles\,2022_Feb_28_1049,GoNoGo,2020.1.3,58.930160055610145,
DRÜCKEN SIE IM FOLGENDEN BITTE SO SCHNELL SIE KÖNNEN. BITTE ZEIGEN SIE IHRE MAXIMAL MÖGLICHE LEISTUNG!,200,NoGo,nogo,None,2,0,0,0,1,,,,,11,2,35,2,,,,,,,,,,,,,1,194.1862401281869,None,194.1862401281869,None,,,202,220,193.35583055656207,193.86732779468912,193.83029336935215,193.93206835077217,4,0,0.32203291073528817,193.83029336935215,None,193.93206835077217,None,193.83029336935215,None,False,None,None,None,None,None,None,None,None,,,,,,,,,,,,,,,,,,,,,,,,,,,,ER05EL09,1,0xE000,C:\Users\Administrator\Desktop\Labor\ExperimenteVARIO\Variotest\Hamburg\HamburgTasks\Logfiles\,2022_Feb_28_1049,GoNoGo,2020.1.3,58.930160055610145,
DRÜCKEN SIE IM FOLGENDEN BITTE SO SCHNELL SIE KÖNNEN. BITTE ZEIGEN SIE IHRE MAXIMAL MÖGLICHE LEISTUNG!,200,NoGo,nogo,None,2,0,0,0,1,,,,,12,0,36,2,,,,,,,,,,,,,1,196.01669604829476,None,196.01669604829476,None,,,202,220,195.2032030113278,195.71317703962268,195.6783444983521,195.78075312976398,4,0,0.29853853297208843,195.6783444983521,None,195.78075312976398,None,195.6783444983521,None,False,None,None,None,None,None,None,None,None,,,,,,,,,,,,,,,,,,,,,,,,,,,,ER05EL09,1,0xE000,C:\Users\Administrator\Desktop\Labor\ExperimenteVARIO\Variotest\Hamburg\HamburgTasks\Logfiles\,2022_Feb_28_1049,GoNoGo,2020.1.3,58.930160055610145,
DRÜCKEN SIE IM FOLGENDEN BITTE SO SCHNELL SIE KÖNNEN. BITTE ZEIGEN SIE IHRE MAXIMAL MÖGLICHE LEISTUNG!,200,Go,go,4,1,0,0,0,1,,,,,12,1,37,0,,,,,,,,,,,,,0.9,198.25411913877906,None,198.25411913877906,None,,,201,0,197.0337466624951,197.54234380974594,197.52542893039208,197.6270519549962,None,0,,197.52542893039208,None,197.6270519549962,None,197.52542893039208,None,False,None,None,None,None,None,None,None,None,,,,,,,,,,,,,,,,,,,,,,,,,,,,ER05EL09,1,0xE000,C:\Users\Administrator\Desktop\Labor\ExperimenteVARIO\Variotest\Hamburg\HamburgTasks\Logfiles\,2022_Feb_28_1049,GoNoGo,2020.1.3,58.930160055610145,
DRÜCKEN SIE IM FOLGENDEN BITTE SO SCHNELL SIE KÖNNEN. BITTE ZEIGEN SIE IHRE MAXIMAL MÖGLICHE LEISTUNG!,200,Go,go,4,1,0,0,0,1,,,,,12,2,38,0,,,,,,,,,,,,,1,199.98408988957453,None,199.98408988957453,None,,,201,211,199.18639274712405,199.69543980573326,199.66100387506413,199.76283348148354,4,1,0.2857562831159157,199.66100387506413,None,199.76283348148354,None,199.66100387506413,None,False,None,None,None,None,None,None,None,None,,,,,,,,,,,,,,,,,,,,,,,,,,,,ER05EL09,1,0xE000,C:\Users\Administrator\Desktop\Labor\ExperimenteVARIO\Variotest\Hamburg\HamburgTasks\Logfiles\,2022_Feb_28_1049,GoNoGo,2020.1.3,58.930160055610145,
DRÜCKEN SIE IM FOLGENDEN BITTE SO SCHNELL SIE KÖNNEN. BITTE ZEIGEN SIE IHRE MAXIMAL MÖGLICHE LEISTUNG!,200,Go,go,4,1,0,0,0,1,,,,,13,0,39,1,,,,,,,,,,,,,1,201.8645650939634,None,201.8645650939634,None,,,201,211,201.0015821386187,201.5084428730097,201.49148925956615,201.59321954780353,4,1,0.32501411145858583,201.49148925956615,None,201.57625269193704,None,201.49148925956615,None,False,None,None,None,None,None,None,None,None,,,,,,,,,,,,,,,,,,,,,,,,,,,,ER05EL09,1,0xE000,C:\Users\Administrator\Desktop\Labor\ExperimenteVARIO\Variotest\Hamburg\HamburgTasks\Logfiles\,2022_Feb_28_1049,GoNoGo,2020.1.3,58.930160055610145,
DRÜCKEN SIE IM FOLGENDEN BITTE SO SCHNELL SIE KÖNNEN. BITTE ZEIGEN SIE IHRE MAXIMAL MÖGLICHE LEISTUNG!,200,Go,go,4,1,0,0,0,1,,,,,13,1,40,1,,,,,,,,,,,,,1,203.6271224709035,None,203.6271224709035,None,,,201,211,202.88140945740815,203.3897559917823,203.37288646773231,203.4744879733953,4,1,0.2155244248224335,203.37288646773231,None,203.45764195464835,None,203.37288646773231,None,False,None,None,None,None,None,None,None,None,,,,,,,,,,,,,,,,,,,,,,,,,,,,ER05EL09,1,0xE000,C:\Users\Administrator\Desktop\Labor\ExperimenteVARIO\Variotest\Hamburg\HamburgTasks\Logfiles\,2022_Feb_28_1049,GoNoGo,2020.1.3,58.930160055610145,
DRÜCKEN SIE IM FOLGENDEN BITTE SO SCHNELL SIE KÖNNEN. BITTE ZEIGEN SIE IHRE MAXIMAL MÖGLICHE LEISTUNG!,200,Go,go,4,1,0,0,0,1,,,,,13,2,41,1,,,,,,,,,,,,,1,205.57633049117794,None,205.57633049117794,None,,,201,211,204.6440151691968,205.15349889673962,205.11919174864488,205.22154476187643,4,1,0.41727076950155606,205.11919174864488,None,205.22154476187643,None,205.11919174864488,None,False,None,None,None,None,None,None,None,None,,,,,,,,,,,,,,,,,,,,,,,,,,,,ER05EL09,1,0xE000,C:\Users\Administrator\Desktop\Labor\ExperimenteVARIO\Variotest\Hamburg\HamburgTasks\Logfiles\,2022_Feb_28_1049,GoNoGo,2020.1.3,58.930160055610145,
DRÜCKEN SIE IM FOLGENDEN BITTE SO SCHNELL SIE KÖNNEN. BITTE ZEIGEN SIE IHRE MAXIMAL MÖGLICHE LEISTUNG!,200,NoGo,nogo,None,2,0,0,0,1,,,,,14,0,42,2,,,,,,,,,,,,,1,207.37332115030222,None,207.37332115030222,None,,,202,220,206.59321325765268,207.1019282624784,207.0849441914579,207.1870945956016,4,0,0.24464418434217805,207.0849441914579,None,207.1870945956016,None,207.0849441914579,None,False,None,None,None,None,None,None,None,None,,,,,,,,,,,,,,,,,,,,,,,,,,,,ER05EL09,1,0xE000,C:\Users\Administrator\Desktop\Labor\ExperimenteVARIO\Variotest\Hamburg\HamburgTasks\Logfiles\,2022_Feb_28_1049,GoNoGo,2020.1.3,58.930160055610145,
DRÜCKEN SIE IM FOLGENDEN BITTE SO SCHNELL SIE KÖNNEN. BITTE ZEIGEN SIE IHRE MAXIMAL MÖGLICHE LEISTUNG!,200,Go,go,4,1,0,0,0,1,,,,,14,1,43,0,,,,,,,,,,,,,0.9,209.6101857415506,None,209.6101857415506,None,,,201,0,208.39075480161955,208.89846603069964,208.88150016801228,208.98319271534274,None,0,,208.88150016801228,None,208.98319271534274,None,208.88150016801228,None,False,None,None,None,None,None,None,None,None,,,,,,,,,,,,,,,,,,,,,,,,,,,,ER05EL09,1,0xE000,C:\Users\Administrator\Desktop\Labor\ExperimenteVARIO\Variotest\Hamburg\HamburgTasks\Logfiles\,2022_Feb_28_1049,GoNoGo,2020.1.3,58.930160055610145,
DRÜCKEN SIE IM FOLGENDEN BITTE SO SCHNELL SIE KÖNNEN. BITTE ZEIGEN SIE IHRE MAXIMAL MÖGLICHE LEISTUNG!,200,Go,go,4,1,0,0,0,1,,,,,14,2,44,0,,,,,,,,,,,,,1,211.28831273308788,None,211.28831273308788,None,,,201,211,210.52582090614487,211.03464416778843,211.00017248257427,211.1018345723278,4,1,0.2499345327669289,211.00017248257427,None,211.1018345723278,None,211.00017248257427,None,False,None,None,None,None,None,None,None,None,,,,,,,,,,,,,,,,,,,,,,,,,,,,ER05EL09,1,0xE000,C:\Users\Administrator\Desktop\Labor\ExperimenteVARIO\Variotest\Hamburg\HamburgTasks\Logfiles\,2022_Feb_28_1049,GoNoGo,2020.1.3,58.930160055610145,
DRÜCKEN SIE IM FOLGENDEN BITTE SO SCHNELL SIE KÖNNEN. BITTE ZEIGEN SIE IHRE MAXIMAL MÖGLICHE LEISTUNG!,200,NoGo,nogo,None,2,0,0,0,1,,,,,15,0,45,2,,,,,,,,,,,,,1,213.10186436778167,None,213.10186436778167,None,,,202,220,212.3052481381983,212.81365492560144,212.79660000761396,212.89827202918605,4,0,0.2635987280646077,212.79660000761396,None,212.89827202918605,None,212.79660000761396,None,False,None,None,None,None,None,None,None,None,,,,,,,,,,,,,,,,,,,,,,,,,,,,ER05EL09,1,0xE000,C:\Users\Administrator\Desktop\Labor\ExperimenteVARIO\Variotest\Hamburg\HamburgTasks\Logfiles\,2022_Feb_28_1049,GoNoGo,2020.1.3,58.930160055610145,
DRÜCKEN SIE IM FOLGENDEN BITTE SO SCHNELL SIE KÖNNEN. BITTE ZEIGEN SIE IHRE MAXIMAL MÖGLICHE LEISTUNG!,200,Go,go,4,1,0,0,0,1,,,,,15,1,46,1,,,,,,,,,,,,,0.9,215.3392209150843,None,215.3392209150843,None,,,201,0,214.11874117516527,214.62882610876295,214.61194234910727,214.71231264038943,None,0,,214.61194234910727,None,214.71231264038943,None,214.61194234910727,None,False,None,None,None,None,None,None,None,None,,,,,,,,,,,,,,,,,,,,,,,,,,,,ER05EL09,1,0xE000,C:\Users\Administrator\Desktop\Labor\ExperimenteVARIO\Variotest\Hamburg\HamburgTasks\Logfiles\,2022_Feb_28_1049,GoNoGo,2020.1.3,58.930160055610145,
DRÜCKEN SIE IM FOLGENDEN BITTE SO SCHNELL SIE KÖNNEN. BITTE ZEIGEN SIE IHRE MAXIMAL MÖGLICHE LEISTUNG!,200,Go,go,4,1,0,0,0,1,,,,,15,2,47,0,,,,,,,,,,,,,1,217.05091910699775,None,217.05091910699775,None,,,201,211,216.27128761055246,216.7819456100533,216.74735904681074,216.84768596915455,4,1,0.25986668189580087,216.74735904681074,None,216.84768596915455,None,216.74735904681074,None,False,None,None,None,None,None,None,None,None,,,,,,,,,,,,,,,,,,,,,,,,,,,,ER05EL09,1,0xE000,C:\Users\Administrator\Desktop\Labor\ExperimenteVARIO\Variotest\Hamburg\HamburgTasks\Logfiles\,2022_Feb_28_1049,GoNoGo,2020.1.3,58.930160055610145,
DRÜCKEN SIE IM FOLGENDEN BITTE SO SCHNELL SIE KÖNNEN. BITTE ZEIGEN SIE IHRE MAXIMAL MÖGLICHE LEISTUNG!,200,Go,go,4,1,0,0,0,1,,,,,16,0,48,0,,,,,,,,,,,,,1,218.84887249035273,None,218.84887249035273,None,,,201,211,218.0679097992288,218.576846945718,218.54260700292434,218.644435616161,4,1,0.26462302956861095,218.54260700292434,None,218.644435616161,None,218.54260700292434,None,False,None,None,None,None,None,None,None,None,,,,,,,,,,,,,,,,,,,,,,,,,,,,ER05EL09,1,0xE000,C:\Users\Administrator\Desktop\Labor\ExperimenteVARIO\Variotest\Hamburg\HamburgTasks\Logfiles\,2022_Feb_28_1049,GoNoGo,2020.1.3,58.930160055610145,
DRÜCKEN SIE IM FOLGENDEN BITTE SO SCHNELL SIE KÖNNEN. BITTE ZEIGEN SIE IHRE MAXIMAL MÖGLICHE LEISTUNG!,200,Go,go,4,1,0,0,0,1,,,,,16,1,49,0,,,,,,,,,,,,,1,220.64435185782895,None,220.64435185782895,None,,,201,211,219.8663809613663,220.37416601695986,220.33930765296282,220.44095451392786,4,1,0.2653434174389986,220.33930765296282,None,220.44095451392786,None,220.33930765296282,None,False,None,None,None,None,None,None,None,None,,,,,,,,,,,,,,,,,,,,,,,,,,,,ER05EL09,1,0xE000,C:\Users\Administrator\Desktop\Labor\ExperimenteVARIO\Variotest\Hamburg\HamburgTasks\Logfiles\,2022_Feb_28_1049,GoNoGo,2020.1.3,58.930160055610145,
DRÜCKEN SIE IM FOLGENDEN BITTE SO SCHNELL SIE KÖNNEN. BITTE ZEIGEN SIE IHRE MAXIMAL MÖGLICHE LEISTUNG!,200,Go,go,4,1,0,0,0,1,,,,,16,2,50,0,,,,,,,,,,,,,1,222.5257010622081,None,222.5257010622081,None,,,201,211,221.6612875940009,222.1703008844288,222.1357894719422,222.2375131389672,4,1,0.3491361801243329,222.1357894719422,None,222.2375131389672,None,222.1357894719422,None,False,None,None,None,None,None,None,None,None,,,,,,,,,,,,,,,,,,,,,,,,,,,,ER05EL09,1,0xE000,C:\Users\Administrator\Desktop\Labor\ExperimenteVARIO\Variotest\Hamburg\HamburgTasks\Logfiles\,2022_Feb_28_1049,GoNoGo,2020.1.3,58.930160055610145,
DRÜCKEN SIE IM FOLGENDEN BITTE SO SCHNELL SIE KÖNNEN. BITTE ZEIGEN SIE IHRE MAXIMAL MÖGLICHE LEISTUNG!,200,Go,go,4,1,0,0,0,1,,,,,17,0,51,0,,,,,,,,,,,,,1,224.40706384007171,None,224.40706384007171,None,,,201,211,223.54259078095492,224.0540777562037,224.01766042782947,224.1198843274251,4,1,0.3397251203805354,224.01766042782947,None,224.1198843274251,None,224.01766042782947,None,False,None,None,None,None,None,None,None,None,,,,,,,,,,,,,,,,,,,,,,,,,,,,ER05EL09,1,0xE000,C:\Users\Administrator\Desktop\Labor\ExperimenteVARIO\Variotest\Hamburg\HamburgTasks\Logfiles\,2022_Feb_28_1049,GoNoGo,2020.1.3,58.930160055610145,
DRÜCKEN SIE IM FOLGENDEN BITTE SO SCHNELL SIE KÖNNEN. BITTE ZEIGEN SIE IHRE MAXIMAL MÖGLICHE LEISTUNG!,200,NoGo,nogo,None,2,0,0,0,1,,,,,17,1,52,2,,,,,,,,,,,,,0.9,226.64442402904024,None,226.64442402904024,None,,,202,0,225.42387708382012,225.93255004394814,225.91565966308008,226.0177124043439,None,1,,225.91565966308008,None,226.0177124043439,None,225.91565966308008,None,False,None,None,None,None,None,None,None,None,,,,,,,,,,,,,,,,,,,,,,,,,,,,ER05EL09,1,0xE000,C:\Users\Administrator\Desktop\Labor\ExperimenteVARIO\Variotest\Hamburg\HamburgTasks\Logfiles\,2022_Feb_28_1049,GoNoGo,2020.1.3,58.930160055610145,
DRÜCKEN SIE IM FOLGENDEN BITTE SO SCHNELL SIE KÖNNEN. BITTE ZEIGEN SIE IHRE MAXIMAL MÖGLICHE LEISTUNG!,200,Go,go,4,1,0,0,0,1,,,,,17,2,53,0,,,,,,,,,,,,,1,228.3397314105332,None,228.3397314105332,None,,,201,211,227.57651754041763,228.08528385963655,228.06827595225332,228.17034921927552,4,1,0.22638255045785627,228.06827595225332,None,228.17034921927552,None,228.06827595225332,None,False,None,None,None,None,None,None,None,None,,,,,,,,,,,,,,,,,,,,,,,,,,,,ER05EL09,1,0xE000,C:\Users\Administrator\Desktop\Labor\ExperimenteVARIO\Variotest\Hamburg\HamburgTasks\Logfiles\,2022_Feb_28_1049,GoNoGo,2020.1.3,58.930160055610145,
DRÜCKEN SIE IM FOLGENDEN BITTE SO SCHNELL SIE KÖNNEN. BITTE ZEIGEN SIE IHRE MAXIMAL MÖGLICHE LEISTUNG!,200,Go,go,4,1,0,0,0,1,,,,,18,0,54,0,,,,,,,,,,,,,1,230.20405185071104,None,230.20405185071104,None,,,201,211,229.35721703836498,229.866114126522,229.83089523752824,229.9326096348559,4,1,0.3307609924540884,229.83089523752824,None,229.9326096348559,None,229.83089523752824,None,False,None,None,None,None,None,None,None,None,,,,,,,,,,,,,,,,,,,,,,,,,,,,ER05EL09,1,0xE000,C:\Users\Administrator\Desktop\Labor\ExperimenteVARIO\Variotest\Hamburg\HamburgTasks\Logfiles\,2022_Feb_28_1049,GoNoGo,2020.1.3,58.930160055610145,
DRÜCKEN SIE IM FOLGENDEN BITTE SO SCHNELL SIE KÖNNEN. BITTE ZEIGEN SIE IHRE MAXIMAL MÖGLICHE LEISTUNG!,200,Go,go,4,1,0,0,0,1,,,,,18,1,55,1,,,,,,,,,,,,,1,232.03432634960882,None,232.03432634960882,None,,,201,211,231.2208803232479,231.7314936295661,231.6953289004323,231.79694464170097,4,1,0.2917690057765867,231.6953289004323,None,231.79694464170097,None,231.6953289004323,None,False,None,None,None,None,None,None,None,None,,,,,,,,,,,,,,,,,,,,,,,,,,,,ER05EL09,1,0xE000,C:\Users\Administrator\Desktop\Labor\ExperimenteVARIO\Variotest\Hamburg\HamburgTasks\Logfiles\,2022_Feb_28_1049,GoNoGo,2020.1.3,58.930160055610145,
DRÜCKEN SIE IM FOLGENDEN BITTE SO SCHNELL SIE KÖNNEN. BITTE ZEIGEN SIE IHRE MAXIMAL MÖGLICHE LEISTUNG!,200,Go,go,4,1,0,0,0,1,,,,,18,2,56,0,,,,,,,,,,,,,1,233.84775151915346,None,233.84775151915346,None,,,201,211,233.0512624168423,233.56129603604495,233.52712958870688,233.62752636483856,4,1,0.2839039990467427,233.52712958870688,None,233.62752636483856,None,233.52712958870688,None,False,None,None,None,None,None,None,None,None,,,,,,,,,,,,,,,,,,,,,,,,,,,,ER05EL09,1,0xE000,C:\Users\Administrator\Desktop\Labor\ExperimenteVARIO\Variotest\Hamburg\HamburgTasks\Logfiles\,2022_Feb_28_1049,GoNoGo,2020.1.3,58.930160055610145,
DRÜCKEN SIE IM FOLGENDEN BITTE SO SCHNELL SIE KÖNNEN. BITTE ZEIGEN SIE IHRE MAXIMAL MÖGLICHE LEISTUNG!,200,NoGo,nogo,None,2,0,0,0,1,,,,,19,0,57,2,,,,,,,,,,,,,0.9,236.08526068539504,None,236.08526068539504,None,,,202,0,234.86477631062735,235.3733790859078,235.35639931867627,235.45846530236486,None,1,,235.35639931867627,None,235.45846530236486,None,235.35639931867627,None,False,None,None,None,None,None,None,None,None,,,,,,,,,,,,,,,,,,,,,,,,,,,,ER05EL09,1,0xE000,C:\Users\Administrator\Desktop\Labor\ExperimenteVARIO\Variotest\Hamburg\HamburgTasks\Logfiles\,2022_Feb_28_1049,GoNoGo,2020.1.3,58.930160055610145,
DRÜCKEN SIE IM FOLGENDEN BITTE SO SCHNELL SIE KÖNNEN. BITTE ZEIGEN SIE IHRE MAXIMAL MÖGLICHE LEISTUNG!,200,NoGo,nogo,None,2,0,0,0,1,,,,,19,1,58,2,,,,,,,,,,,,,0.9,238.22083099521842,None,238.22083099521842,None,,,202,0,237.0173253944995,237.52747587809608,237.4920166391057,237.5941706849153,None,1,,237.4920166391057,None,237.5941706849153,None,237.4920166391057,None,False,None,None,None,None,None,None,None,None,,,,,,,,,,,,,,,,,,,,,,,,,,,,ER05EL09,1,0xE000,C:\Users\Administrator\Desktop\Labor\ExperimenteVARIO\Variotest\Hamburg\HamburgTasks\Logfiles\,2022_Feb_28_1049,GoNoGo,2020.1.3,58.930160055610145,
DRÜCKEN SIE IM FOLGENDEN BITTE SO SCHNELL SIE KÖNNEN. BITTE ZEIGEN SIE IHRE MAXIMAL MÖGLICHE LEISTUNG!,200,Go,go,4,1,0,0,0,1,,,,,19,2,59,0,,,,,,,,,,,,,1,239.98349133200463,None,239.98349133200463,None,,,201,211,239.15297648311025,239.6620013606589,239.6448861896406,239.74673930136305,4,1,0.29417647847549233,239.6448861896406,None,239.74673930136305,None,239.6448861896406,None,False,None,None,None,None,None,None,None,None,,,,,,,,,,,,,,,,,,,,,,,,,,,,ER05EL09,1,0xE000,C:\Users\Administrator\Desktop\Labor\ExperimenteVARIO\Variotest\Hamburg\HamburgTasks\Logfiles\,2022_Feb_28_1049,GoNoGo,2020.1.3,58.930160055610145,
DRÜCKEN SIE IM FOLGENDEN BITTE SO SCHNELL SIE KÖNNEN. BITTE ZEIGEN SIE IHRE MAXIMAL MÖGLICHE LEISTUNG!,200,Go,go,4,1,0,0,0,1,,,,,20,0,60,0,,,,,,,,,,,,,0.9,242.2038303711688,None,242.2038303711688,None,,,201,0,241.000417136358,241.50929303663725,241.4750722953595,241.57680523208182,None,0,,241.4750722953595,None,241.57680523208182,None,241.4750722953595,None,False,None,None,None,None,None,None,None,None,,,,,,,,,,,,,,,,,,,,,,,,,,,,ER05EL09,1,0xE000,C:\Users\Administrator\Desktop\Labor\ExperimenteVARIO\Variotest\Hamburg\HamburgTasks\Logfiles\,2022_Feb_28_1049,GoNoGo,2020.1.3,58.930160055610145,
DRÜCKEN SIE IM FOLGENDEN BITTE SO SCHNELL SIE KÖNNEN. BITTE ZEIGEN SIE IHRE MAXIMAL MÖGLICHE LEISTUNG!,200,NoGo,nogo,None,2,0,0,0,1,,,,,20,1,61,2,,,,,,,,,,,,,0.9,244.35637448913258,None,244.35637448913258,None,,,202,0,243.13605763102896,243.64461008509898,243.62767070726113,243.72938742201404,None,1,,243.62767070726113,None,243.72938742201404,None,243.62767070726113,None,False,None,None,None,None,None,None,None,None,,,,,,,,,,,,,,,,,,,,,,,,,,,,ER05EL09,1,0xE000,C:\Users\Administrator\Desktop\Labor\ExperimenteVARIO\Variotest\Hamburg\HamburgTasks\Logfiles\,2022_Feb_28_1049,GoNoGo,2020.1.3,58.930160055610145,
DRÜCKEN SIE IM FOLGENDEN BITTE SO SCHNELL SIE KÖNNEN. BITTE ZEIGEN SIE IHRE MAXIMAL MÖGLICHE LEISTUNG!,200,Go,go,4,1,0,0,0,1,,,,,20,2,62,1,,,,,,,,,,,,,1,246.17048958897067,None,246.17048958897067,None,,,201,211,245.28865008384128,245.79721842881918,245.7802572009823,245.8820232437647,4,1,0.35027602177797235,245.7802572009823,None,245.8820232437647,None,245.7802572009823,None,False,None,None,None,None,None,None,None,None,,,,,,,,,,,,,,,,,,,,,,,,,,,,ER05EL09,1,0xE000,C:\Users\Administrator\Desktop\Labor\ExperimenteVARIO\Variotest\Hamburg\HamburgTasks\Logfiles\,2022_Feb_28_1049,GoNoGo,2020.1.3,58.930160055610145,
DRÜCKEN SIE IM FOLGENDEN BITTE SO SCHNELL SIE KÖNNEN. BITTE ZEIGEN SIE IHRE MAXIMAL MÖGLICHE LEISTUNG!,200,NoGo,nogo,None,2,0,0,0,1,,,,,21,0,63,2,,,,,,,,,,,,,0.9,248.40726810446176,None,248.40726810446176,None,,,202,0,247.1879831622573,247.69553680649005,247.67858219986374,247.78028964492114,None,1,,247.67858219986374,None,247.78028964492114,None,247.67858219986374,None,False,None,None,None,None,None,None,None,None,,,,,,,,,,,,,,,,,,,,,,,,,,,,ER05EL09,1,0xE000,C:\Users\Administrator\Desktop\Labor\ExperimenteVARIO\Variotest\Hamburg\HamburgTasks\Logfiles\,2022_Feb_28_1049,GoNoGo,2020.1.3,58.930160055610145,
DRÜCKEN SIE IM FOLGENDEN BITTE SO SCHNELL SIE KÖNNEN. BITTE ZEIGEN SIE IHRE MAXIMAL MÖGLICHE LEISTUNG!,200,Go,go,4,1,0,0,0,1,,,,,21,1,64,0,,,,,,,,,,,,,1,250.15371706567748,None,250.15371706567748,None,,,201,211,249.32323300541793,249.83117961858443,249.81424984150362,249.91596456989464,4,1,0.29207523683180625,249.81424984150362,None,249.91596456989464,None,249.81424984150362,None,False,None,None,None,None,None,None,None,None,,,,,,,,,,,,,,,,,,,,,,,,,,,,ER05EL09,1,0xE000,C:\Users\Administrator\Desktop\Labor\ExperimenteVARIO\Variotest\Hamburg\HamburgTasks\Logfiles\,2022_Feb_28_1049,GoNoGo,2020.1.3,58.930160055610145,
DRÜCKEN SIE IM FOLGENDEN BITTE SO SCHNELL SIE KÖNNEN. BITTE ZEIGEN SIE IHRE MAXIMAL MÖGLICHE LEISTUNG!,200,NoGo,nogo,None,2,0,0,0,1,,,,,21,2,65,2,,,,,,,,,,,,,0.9,252.3920303781215,None,252.3920303781215,None,,,202,0,251.17043397079033,251.67867589001435,251.6617345258128,251.76343700496,None,1,,251.6617345258128,None,251.76343700496,None,251.6617345258128,None,False,None,None,None,None,None,None,None,None,,,,,,,,,,,,,,,,,,,,,,,,,,,,ER05EL09,1,0xE000,C:\Users\Administrator\Desktop\Labor\ExperimenteVARIO\Variotest\Hamburg\HamburgTasks\Logfiles\,2022_Feb_28_1049,GoNoGo,2020.1.3,58.930160055610145,
DRÜCKEN SIE IM FOLGENDEN BITTE SO SCHNELL SIE KÖNNEN. BITTE ZEIGEN SIE IHRE MAXIMAL MÖGLICHE LEISTUNG!,200,Go,go,4,1,0,0,0,1,,,,,22,0,66,1,,,,,,,,,,,,,1,254.0685755620998,None,254.0685755620998,None,,,201,211,253.32312772814657,253.83119749585785,253.8142173975648,253.9159162350461,4,1,0.2195302581112628,253.8142173975648,None,253.9159162350461,None,253.8142173975648,None,False,None,None,None,None,None,None,None,None,,,,,,,,,,,,,,,,,,,,,,,,,,,,ER05EL09,1,0xE000,C:\Users\Administrator\Desktop\Labor\ExperimenteVARIO\Variotest\Hamburg\HamburgTasks\Logfiles\,2022_Feb_28_1049,GoNoGo,2020.1.3,58.930160055610145,
DRÜCKEN SIE IM FOLGENDEN BITTE SO SCHNELL SIE KÖNNEN. BITTE ZEIGEN SIE IHRE MAXIMAL MÖGLICHE LEISTUNG!,200,Go,go,4,1,0,0,0,1,,,,,22,1,67,1,,,,,,,,,,,,,1,255.94996217632615,None,255.94996217632615,None,,,201,211,255.0855497012999,255.59567634853374,255.56124306634956,255.66168883945102,4,1,0.3498476293589192,255.56124306634956,None,255.66168883945102,None,255.56124306634956,None,False,None,None,None,None,None,None,None,None,,,,,,,,,,,,,,,,,,,,,,,,,,,,ER05EL09,1,0xE000,C:\Users\Administrator\Desktop\Labor\ExperimenteVARIO\Variotest\Hamburg\HamburgTasks\Logfiles\,2022_Feb_28_1049,GoNoGo,2020.1.3,58.930160055610145,
DRÜCKEN SIE IM FOLGENDEN BITTE SO SCHNELL SIE KÖNNEN. BITTE ZEIGEN SIE IHRE MAXIMAL MÖGLICHE LEISTUNG!,200,NoGo,nogo,None,2,0,0,0,1,,,,,22,2,68,2,,,,,,,,,,,,,1,257.7803565191625,None,257.7803565191625,None,,,202,220,256.9667906488612,257.4756552930794,257.4585911053946,257.56059650499265,4,0,0.27669548549056344,257.4585911053946,None,257.56059650499265,None,257.4585911053946,None,False,None,None,None,None,None,None,None,None,,,,,,,,,,,,,,,,,,,,,,,,,,,,ER05EL09,1,0xE000,C:\Users\Administrator\Desktop\Labor\ExperimenteVARIO\Variotest\Hamburg\HamburgTasks\Logfiles\,2022_Feb_28_1049,GoNoGo,2020.1.3,58.930160055610145,
DRÜCKEN SIE IM FOLGENDEN BITTE SO SCHNELL SIE KÖNNEN. BITTE ZEIGEN SIE IHRE MAXIMAL MÖGLICHE LEISTUNG!,200,Go,go,4,1,0,0,0,1,,,,,23,0,69,1,,,,,,,,,,,,,1,259.59451796748544,None,259.59451796748544,None,,,201,211,258.7975898788154,259.30588344349417,259.2889245330807,259.39060450010584,4,1,0.2650027560794115,259.2889245330807,None,259.39060450010584,None,259.2889245330807,None,False,None,None,None,None,None,None,None,None,,,,,,,,,,,,,,,,,,,,,,,,,,,,ER05EL09,1,0xE000,C:\Users\Administrator\Desktop\Labor\ExperimenteVARIO\Variotest\Hamburg\HamburgTasks\Logfiles\,2022_Feb_28_1049,GoNoGo,2020.1.3,58.930160055610145,
DRÜCKEN SIE IM FOLGENDEN BITTE SO SCHNELL SIE KÖNNEN. BITTE ZEIGEN SIE IHRE MAXIMAL MÖGLICHE LEISTUNG!,200,NoGo,nogo,None,2,0,0,0,1,,,,,23,1,70,2,,,,,,,,,,,,,0.9,261.8328236655361,None,261.8328236655361,None,,,202,0,260.6110564309347,261.11941686985483,261.1025430420159,261.20425346661796,None,1,,261.1025430420159,None,261.20425346661796,None,261.1025430420159,None,False,None,None,None,None,None,None,None,None,,,,,,,,,,,,,,,,,,,,,,,,,,,,ER05EL09,1,0xE000,C:\Users\Administrator\Desktop\Labor\ExperimenteVARIO\Variotest\Hamburg\HamburgTasks\Logfiles\,2022_Feb_28_1049,GoNoGo,2020.1.3,58.930160055610145,
DRÜCKEN SIE IM FOLGENDEN BITTE SO SCHNELL SIE KÖNNEN. BITTE ZEIGEN SIE IHRE MAXIMAL MÖGLICHE LEISTUNG!,200,Go,go,4,1,0,0,0,1,,,,,23,2,71,0,,,,,,,,,,,,,1,263.52629763341247,None,263.52629763341247,None,,,201,211,262.76399583525745,263.27197456130307,263.254921960739,263.3567303792788,4,1,0.22183510202557954,263.254921960739,None,263.3567303792788,None,263.254921960739,None,False,None,None,None,None,None,None,None,None,,,,,,,,,,,,,,,,,,,,,,,,,,,,ER05EL09,1,0xE000,C:\Users\Administrator\Desktop\Labor\ExperimenteVARIO\Variotest\Hamburg\HamburgTasks\Logfiles\,2022_Feb_28_1049,GoNoGo,2020.1.3,58.930160055610145,
DRÜCKEN SIE IM FOLGENDEN BITTE SO SCHNELL SIE KÖNNEN. BITTE ZEIGEN SIE IHRE MAXIMAL MÖGLICHE LEISTUNG!,200,Go,go,4,1,0,0,0,1,,,,,24,0,72,1,,,,,,,,,,,,,1,265.3736207601487,None,265.3736207601487,None,,,201,211,264.5432863392798,265.0529915463667,265.0186618861517,265.11944534106624,4,1,0.31601058731757803,265.0186618861517,None,265.11944534106624,None,265.0186618861517,None,False,None,None,None,None,None,None,None,None,,,,,,,,,,,,,,,,,,,,,,,,,,,,ER05EL09,1,0xE000,C:\Users\Administrator\Desktop\Labor\ExperimenteVARIO\Variotest\Hamburg\HamburgTasks\Logfiles\,2022_Feb_28_1049,GoNoGo,2020.1.3,58.930160055610145,
DRÜCKEN SIE IM FOLGENDEN BITTE SO SCHNELL SIE KÖNNEN. BITTE ZEIGEN SIE IHRE MAXIMAL MÖGLICHE LEISTUNG!,200,NoGo,nogo,None,2,0,0,0,1,,,,,24,1,73,2,,,,,,,,,,,,,0.9,267.6111146976,None,267.6111146976,None,,,202,0,266.390598209955,266.8994224647795,266.8824314414869,266.98450901229626,None,1,,266.8824314414869,None,266.98450901229626,None,266.8824314414869,None,False,None,None,None,None,None,None,None,None,,,,,,,,,,,,,,,,,,,,,,,,,,,,ER05EL09,1,0xE000,C:\Users\Administrator\Desktop\Labor\ExperimenteVARIO\Variotest\Hamburg\HamburgTasks\Logfiles\,2022_Feb_28_1049,GoNoGo,2020.1.3,58.930160055610145,
DRÜCKEN SIE IM FOLGENDEN BITTE SO SCHNELL SIE KÖNNEN. BITTE ZEIGEN SIE IHRE MAXIMAL MÖGLICHE LEISTUNG!,200,NoGo,nogo,None,2,0,0,0,1,,,,,24,2,74,2,,,,,,,,,,,,,1,269.2890937050488,None,269.2890937050488,None,,,202,220,268.54330123700856,269.05319250015236,269.0183334740341,269.11993497969706,4,0,0.22937268981695524,269.0183334740341,None,269.11993497969706,None,269.0183334740341,None,False,None,None,None,None,None,None,None,None,,,,,,,,,,,,,,,,,,,,,,,,,,,,ER05EL09,1,0xE000,C:\Users\Administrator\Desktop\Labor\ExperimenteVARIO\Variotest\Hamburg\HamburgTasks\Logfiles\,2022_Feb_28_1049,GoNoGo,2020.1.3,58.930160055610145,
DRÜCKEN SIE IM FOLGENDEN BITTE SO SCHNELL SIE KÖNNEN. BITTE ZEIGEN SIE IHRE MAXIMAL MÖGLICHE LEISTUNG!,200,Go,go,4,1,0,0,0,1,,,,,25,0,75,1,,,,,,,,,,,,,1,271.13702664541233,None,271.13702664541233,None,,,201,211,270.30608274197584,270.8146202983189,270.797658408359,270.89937777159685,4,1,0.3060794313696533,270.797658408359,None,270.89937777159685,None,270.797658408359,None,False,None,None,None,None,None,None,None,None,,,,,,,,,,,,,,,,,,,,,,,,,,,,ER05EL09,1,0xE000,C:\Users\Administrator\Desktop\Labor\ExperimenteVARIO\Variotest\Hamburg\HamburgTasks\Logfiles\,2022_Feb_28_1049,GoNoGo,2020.1.3,58.930160055610145,
DRÜCKEN SIE IM FOLGENDEN BITTE SO SCHNELL SIE KÖNNEN. BITTE ZEIGEN SIE IHRE MAXIMAL MÖGLICHE LEISTUNG!,200,NoGo,nogo,None,2,0,0,0,1,,,,,25,1,76,2,,,,,,,,,,,,,0.9,273.3752105131607,None,273.3752105131607,None,,,202,0,272.1540540853712,272.66211160383864,272.64506529342725,272.74692105363283,None,1,,272.64506529342725,None,272.74692105363283,None,272.64506529342725,None,False,None,None,None,None,None,None,None,None,,,,,,,,,,,,,,,,,,,,,,,,,,,,ER05EL09,1,0xE000,C:\Users\Administrator\Desktop\Labor\ExperimenteVARIO\Variotest\Hamburg\HamburgTasks\Logfiles\,2022_Feb_28_1049,GoNoGo,2020.1.3,58.930160055610145,
DRÜCKEN SIE IM FOLGENDEN BITTE SO SCHNELL SIE KÖNNEN. BITTE ZEIGEN SIE IHRE MAXIMAL MÖGLICHE LEISTUNG!,200,Go,go,4,1,0,0,0,1,,,,,25,2,77,1,,,,,,,,,,,,,1,275.15360682249593,None,275.15360682249593,None,,,201,211,274.3066561389387,274.81474643240836,274.7977130333584,274.8994737791727,4,1,0.3165270418576256,274.7977130333584,None,274.8994737791727,None,274.7977130333584,None,False,None,None,None,None,None,None,None,None,,,,,,,,,,,,,,,,,,,,,,,,,,,,ER05EL09,1,0xE000,C:\Users\Administrator\Desktop\Labor\ExperimenteVARIO\Variotest\Hamburg\HamburgTasks\Logfiles\,2022_Feb_28_1049,GoNoGo,2020.1.3,58.930160055610145,
DRÜCKEN SIE IM FOLGENDEN BITTE SO SCHNELL SIE KÖNNEN. BITTE ZEIGEN SIE IHRE MAXIMAL MÖGLICHE LEISTUNG!,200,Go,go,4,1,0,0,0,1,,,,,26,0,78,1,,,,,,,,,,,,,1,277.15375149598003,None,277.15375149598003,None,,,201,211,276.17065876093875,276.6820056975521,276.64513448509206,276.7469028452997,4,1,0.4615683333922789,276.64513448509206,None,276.7469028452997,None,276.64513448509206,None,False,None,None,None,None,None,None,None,None,,,,,,,,,,,,,,,,,,,,,,,,,,,,ER05EL09,1,0xE000,C:\Users\Administrator\Desktop\Labor\ExperimenteVARIO\Variotest\Hamburg\HamburgTasks\Logfiles\,2022_Feb_28_1049,GoNoGo,2020.1.3,58.930160055610145,
DRÜCKEN SIE IM FOLGENDEN BITTE SO SCHNELL SIE KÖNNEN. BITTE ZEIGEN SIE IHRE MAXIMAL MÖGLICHE LEISTUNG!,200,NoGo,nogo,None,2,0,0,0,1,,,,,26,1,79,2,,,,,,,,,,,,,0.9,279.391091159192,None,279.391091159192,None,,,202,0,278.1707057715448,278.6794965892477,278.66270883716606,278.76384619586497,None,1,,278.66270883716606,None,278.76384619586497,None,278.66270883716606,None,False,None,None,None,None,None,None,None,None,,,,,,,,,,,,,,,,,,,,,,,,,,,,ER05EL09,1,0xE000,C:\Users\Administrator\Desktop\Labor\ExperimenteVARIO\Variotest\Hamburg\HamburgTasks\Logfiles\,2022_Feb_28_1049,GoNoGo,2020.1.3,58.930160055610145,
DRÜCKEN SIE IM FOLGENDEN BITTE SO SCHNELL SIE KÖNNEN. BITTE ZEIGEN SIE IHRE MAXIMAL MÖGLICHE LEISTUNG!,200,Go,go,4,1,0,0,0,1,,,,,26,2,80,0,,,,,,,,,,,,,1,281.1029724276177,None,281.1029724276177,None,,,201,211,280.32319062966053,280.83166561554935,280.81482952861916,280.91644526988784,4,1,0.23912242455662636,280.81482952861916,None,280.91644526988784,None,280.81482952861916,None,False,None,None,None,None,None,None,None,None,,,,,,,,,,,,,,,,,,,,,,,,,,,,ER05EL09,1,0xE000,C:\Users\Administrator\Desktop\Labor\ExperimenteVARIO\Variotest\Hamburg\HamburgTasks\Logfiles\,2022_Feb_28_1049,GoNoGo,2020.1.3,58.930160055610145,
DRÜCKEN SIE IM FOLGENDEN BITTE SO SCHNELL SIE KÖNNEN. BITTE ZEIGEN SIE IHRE MAXIMAL MÖGLICHE LEISTUNG!,200,Go,go,4,1,0,0,0,1,,,,,27,0,81,1,,,,,,,,,,,,,1,283.17076138972516,None,283.17076138972516,None,,,201,211,282.11987836833396,282.62954616557363,282.5946950849084,282.69673590799175,4,1,0.5326394303101551,282.5946950849084,None,282.69673590799175,None,282.5946950849084,None,False,None,None,None,None,None,None,None,None,,,,,,,,,,,,,,,,,,,,,,,,,,,,ER05EL09,1,0xE000,C:\Users\Administrator\Desktop\Labor\ExperimenteVARIO\Variotest\Hamburg\HamburgTasks\Logfiles\,2022_Feb_28_1049,GoNoGo,2020.1.3,58.930160055610145,
DRÜCKEN SIE IM FOLGENDEN BITTE SO SCHNELL SIE KÖNNEN. BITTE ZEIGEN SIE IHRE MAXIMAL MÖGLICHE LEISTUNG!,200,Go,go,4,1,0,0,0,1,,,,,27,1,82,0,,,,,,,,,,,,,1,285.052102979711,None,285.052102979711,None,,,201,211,284.1876653440795,284.69755329661893,284.66240856520017,284.76453447085805,4,1,0.34380544230589294,284.66240856520017,None,284.76453447085805,None,284.66240856520017,None,False,None,None,None,None,None,None,None,None,,,,,,,,,,,,,,,,,,,,,,,,,,,,ER05EL09,1,0xE000,C:\Users\Administrator\Desktop\Labor\ExperimenteVARIO\Variotest\Hamburg\HamburgTasks\Logfiles\,2022_Feb_28_1049,GoNoGo,2020.1.3,58.930160055610145,
DRÜCKEN SIE IM FOLGENDEN BITTE SO SCHNELL SIE KÖNNEN. BITTE ZEIGEN SIE IHRE MAXIMAL MÖGLICHE LEISTUNG!,200,Go,go,4,1,0,0,0,1,,,,,27,2,83,1,,,,,,,,,,,,,1,286.93384978787253,None,286.93384978787253,None,,,201,211,286.0690582484567,286.5781387441875,286.5437759779106,286.6454281358474,4,1,0.35093615661753574,286.5437759779106,None,286.6454281358474,None,286.5437759779106,None,False,None,None,None,None,None,None,None,None,,,,,,,,,,,,,,,,,,,,,,,,,,,,ER05EL09,1,0xE000,C:\Users\Administrator\Desktop\Labor\ExperimenteVARIO\Variotest\Hamburg\HamburgTasks\Logfiles\,2022_Feb_28_1049,GoNoGo,2020.1.3,58.930160055610145,
DRÜCKEN SIE IM FOLGENDEN BITTE SO SCHNELL SIE KÖNNEN. BITTE ZEIGEN SIE IHRE MAXIMAL MÖGLICHE LEISTUNG!,200,NoGo,nogo,None,2,0,0,0,1,,,,,28,0,84,2,,,,,,,,,,,,,1,288.69628732087585,None,288.69628732087585,None,,,202,220,287.9510265361623,288.45901784251146,288.4419956995225,288.5438776135161,4,0,0.21408795287061366,288.4419956995225,None,288.5438776135161,None,288.4419956995225,None,False,None,None,None,None,None,None,None,None,,,,,,,,,,,,,,,,,,,,,,,,,,,,ER05EL09,1,0xE000,C:\Users\Administrator\Desktop\Labor\ExperimenteVARIO\Variotest\Hamburg\HamburgTasks\Logfiles\,2022_Feb_28_1049,GoNoGo,2020.1.3,58.930160055610145,
DRÜCKEN SIE IM FOLGENDEN BITTE SO SCHNELL SIE KÖNNEN. BITTE ZEIGEN SIE IHRE MAXIMAL MÖGLICHE LEISTUNG!,200,NoGo,nogo,None,2,0,0,0,1,,,,,28,1,85,2,,,,,,,,,,,,,0.9,290.9167716956417,None,290.9167716956417,None,,,202,0,289.7133455494695,290.22334473837145,290.1884314183135,290.28946548610475,None,1,,290.1884314183135,None,290.28946548610475,None,290.1884314183135,None,False,None,None,None,None,None,None,None,None,,,,,,,,,,,,,,,,,,,,,,,,,,,,ER05EL09,1,0xE000,C:\Users\Administrator\Desktop\Labor\ExperimenteVARIO\Variotest\Hamburg\HamburgTasks\Logfiles\,2022_Feb_28_1049,GoNoGo,2020.1.3,58.930160055610145,
DRÜCKEN SIE IM FOLGENDEN BITTE SO SCHNELL SIE KÖNNEN. BITTE ZEIGEN SIE IHRE MAXIMAL MÖGLICHE LEISTUNG!,200,NoGo,nogo,None,2,0,0,0,1,,,,,28,2,86,2,,,,,,,,,,,,,0.9,293.0523837191013,None,293.0523837191013,None,,,202,0,291.8489598903525,292.3585916019856,292.3236594114733,292.42512816183626,None,1,,292.3236594114733,None,292.42512816183626,None,292.3236594114733,None,False,None,None,None,None,None,None,None,None,,,,,,,,,,,,,,,,,,,,,,,,,,,,ER05EL09,1,0xE000,C:\Users\Administrator\Desktop\Labor\ExperimenteVARIO\Variotest\Hamburg\HamburgTasks\Logfiles\,2022_Feb_28_1049,GoNoGo,2020.1.3,58.930160055610145,
DRÜCKEN SIE IM FOLGENDEN BITTE SO SCHNELL SIE KÖNNEN. BITTE ZEIGEN SIE IHRE MAXIMAL MÖGLICHE LEISTUNG!,200,NoGo,nogo,None,2,0,0,0,1,,,,,29,0,87,2,,,,,,,,,,,,,0.9,295.1881884198301,None,295.1881884198301,None,,,202,0,293.9846493819932,294.4937242496926,294.4591198091766,294.56081699135393,None,1,,294.4591198091766,None,294.56081699135393,None,294.4591198091766,None,False,None,None,None,None,None,None,None,None,,,,,,,,,,,,,,,,,,,,,,,,,,,,ER05EL09,1,0xE000,C:\Users\Administrator\Desktop\Labor\ExperimenteVARIO\Variotest\Hamburg\HamburgTasks\Logfiles\,2022_Feb_28_1049,GoNoGo,2020.1.3,58.930160055610145,
DRÜCKEN SIE IM FOLGENDEN BITTE SO SCHNELL SIE KÖNNEN. BITTE ZEIGEN SIE IHRE MAXIMAL MÖGLICHE LEISTUNG!,200,NoGo,nogo,None,2,0,0,0,1,,,,,29,1,88,2,,,,,,,,,,,,,0.9,297.34117119309303,None,297.34117119309303,None,,,202,0,296.1202716683292,296.6287423504309,296.6117278218353,296.7134604274979,None,1,,296.6117278218353,None,296.69652568450874,297.3071858359035,296.6117278218353,None,False,None,None,None,None,None,None,None,None,,,,,,,,,,,,,,,,,,,,,,,,,,,,ER05EL09,1,0xE000,C:\Users\Administrator\Desktop\Labor\ExperimenteVARIO\Variotest\Hamburg\HamburgTasks\Logfiles\,2022_Feb_28_1049,GoNoGo,2020.1.3,58.930160055610145,
DRÜCKEN SIE IM FOLGENDEN BITTE SO SCHNELL SIE KÖNNEN. BITTE ZEIGEN SIE IHRE MAXIMAL MÖGLICHE LEISTUNG!,200,Go,go,4,1,0,0,0,1,,,,,29,2,89,0,,,,,,,,,,,,,1,299.15427059900503,None,299.15427059900503,None,,,201,211,298.2729482105351,298.7813235471822,298.76443018676764,298.8660598325823,4,1,0.34170585596621095,298.76443018676764,None,298.8660598325823,None,298.76443018676764,None,False,None,None,None,None,None,None,None,None,,,,,,,,,,,,,,,,,,,,,,,,,,,,ER05EL09,1,0xE000,C:\Users\Administrator\Desktop\Labor\ExperimenteVARIO\Variotest\Hamburg\HamburgTasks\Logfiles\,2022_Feb_28_1049,GoNoGo,2020.1.3,58.930160055610145,
DRÜCKEN SIE IM FOLGENDEN BITTE SO SCHNELL SIE KÖNNEN. BITTE ZEIGEN SIE IHRE MAXIMAL MÖGLICHE LEISTUNG!,200,NoGo,nogo,None,2,0,0,0,1,,,,,30,0,90,2,,,,,,,,,,,,,0.9,301.39167481903314,None,301.39167481903314,None,,,202,0,300.1712712230528,300.680174270301,300.66336930306716,300.7644225723743,None,1,,300.66336930306716,None,300.7644225723743,None,300.66336930306716,None,False,None,None,None,None,None,None,None,None,,,,,,,,,,,,,,,,,,,,,,,,,,,,ER05EL09,1,0xE000,C:\Users\Administrator\Desktop\Labor\ExperimenteVARIO\Variotest\Hamburg\HamburgTasks\Logfiles\,2022_Feb_28_1049,GoNoGo,2020.1.3,58.930160055610145,
DRÜCKEN SIE IM FOLGENDEN BITTE SO SCHNELL SIE KÖNNEN. BITTE ZEIGEN SIE IHRE MAXIMAL MÖGLICHE LEISTUNG!,200,Go,go,4,1,0,0,0,1,,,,,30,1,91,1,,,,,,,,,,,,,1,303.154369255064,None,303.154369255064,None,,,201,211,302.3238792357133,302.8322489443308,302.81540689830945,302.9170130388211,4,1,0.29056228988156363,302.81540689830945,None,302.9170130388211,None,302.81540689830945,None,False,None,None,None,None,None,None,None,None,,,,,,,,,,,,,,,,,,,,,,,,,,,,ER05EL09,1,0xE000,C:\Users\Administrator\Desktop\Labor\ExperimenteVARIO\Variotest\Hamburg\HamburgTasks\Logfiles\,2022_Feb_28_1049,GoNoGo,2020.1.3,58.930160055610145,
DRÜCKEN SIE IM FOLGENDEN BITTE SO SCHNELL SIE KÖNNEN. BITTE ZEIGEN SIE IHRE MAXIMAL MÖGLICHE LEISTUNG!,200,NoGo,nogo,None,2,0,0,0,1,,,,,30,2,92,2,,,,,,,,,,,,,0.9,305.3917059387295,None,305.3917059387295,None,,,202,0,304.1711695874492,304.68033748317794,304.6633775795817,304.7663404064424,None,1,,304.6633775795817,None,304.7663404064424,None,304.6633775795817,None,False,None,None,None,None,None,None,None,None,,,,,,,,,,,,,,,,,,,,,,,,,,,,ER05EL09,1,0xE000,C:\Users\Administrator\Desktop\Labor\ExperimenteVARIO\Variotest\Hamburg\HamburgTasks\Logfiles\,2022_Feb_28_1049,GoNoGo,2020.1.3,58.930160055610145,
DRÜCKEN SIE IM FOLGENDEN BITTE SO SCHNELL SIE KÖNNEN. BITTE ZEIGEN SIE IHRE MAXIMAL MÖGLICHE LEISTUNG!,200,Go,go,4,1,0,0,0,1,,,,,31,0,93,1,,,,,,,,,,,,,1,306.96835623445077,None,306.96835623445077,None,,,201,211,306.3239163145008,306.8328266450808,306.8159408990614,306.918512081229,4,1,0.10810254271018493,306.8159408990614,None,306.918512081229,None,306.8159408990614,None,False,None,None,None,None,None,None,None,None,,,,,,,,,,,,,,,,,,,,,,,,,,,,ER05EL09,1,0xE000,C:\Users\Administrator\Desktop\Labor\ExperimenteVARIO\Variotest\Hamburg\HamburgTasks\Logfiles\,2022_Feb_28_1049,GoNoGo,2020.1.3,58.930160055610145,
DRÜCKEN SIE IM FOLGENDEN BITTE SO SCHNELL SIE KÖNNEN. BITTE ZEIGEN SIE IHRE MAXIMAL MÖGLICHE LEISTUNG!,200,NoGo,nogo,None,2,0,0,0,1,,,,,31,1,94,2,,,,,,,,,,,,,0.9,309.2051721597891,None,309.2051721597891,None,,,202,0,307.9858551047055,308.4934398686346,308.4764839377676,308.5781794646409,None,1,,308.4764839377676,None,308.5781794646409,None,308.4764839377676,None,False,None,None,None,None,None,None,None,None,,,,,,,,,,,,,,,,,,,,,,,,,,,,ER05EL09,1,0xE000,C:\Users\Administrator\Desktop\Labor\ExperimenteVARIO\Variotest\Hamburg\HamburgTasks\Logfiles\,2022_Feb_28_1049,GoNoGo,2020.1.3,58.930160055610145,
DRÜCKEN SIE IM FOLGENDEN BITTE SO SCHNELL SIE KÖNNEN. BITTE ZEIGEN SIE IHRE MAXIMAL MÖGLICHE LEISTUNG!,200,Go,go,4,1,0,0,0,1,,,,,31,2,95,0,,,,,,,,,,,,,1,310.93446820907775,None,310.93446820907775,None,,,201,211,310.1208593008996,310.6290479193667,310.6121621733455,310.7138153244632,4,1,0.27577315065354924,310.6121621733455,None,310.7138153244632,None,310.6121621733455,None,False,None,None,None,None,None,None,None,None,,,,,,,,,,,,,,,,,,,,,,,,,,,,ER05EL09,1,0xE000,C:\Users\Administrator\Desktop\Labor\ExperimenteVARIO\Variotest\Hamburg\HamburgTasks\Logfiles\,2022_Feb_28_1049,GoNoGo,2020.1.3,58.930160055610145,
DRÜCKEN SIE IM FOLGENDEN BITTE SO SCHNELL SIE KÖNNEN. BITTE ZEIGEN SIE IHRE MAXIMAL MÖGLICHE LEISTUNG!,200,Go,go,4,1,0,0,0,1,,,,,32,0,96,1,,,,,,,,,,,,,1,312.9001077602261,None,312.9001077602261,None,,,201,211,311.95126920358416,312.45951410235466,312.44264457830286,312.54429342563344,4,1,0.4179279247964587,312.44264457830286,None,312.52739543037023,None,312.44264457830286,None,False,None,None,None,None,None,None,None,None,,,,,,,,,,,,,,,,,,,,,,,,,,,,ER05EL09,1,0xE000,C:\Users\Administrator\Desktop\Labor\ExperimenteVARIO\Variotest\Hamburg\HamburgTasks\Logfiles\,2022_Feb_28_1049,GoNoGo,2020.1.3,58.930160055610145,
DRÜCKEN SIE IM FOLGENDEN BITTE SO SCHNELL SIE KÖNNEN. BITTE ZEIGEN SIE IHRE MAXIMAL MÖGLICHE LEISTUNG!,200,Go,go,4,1,0,0,0,1,,,,,32,1,97,1,,,,,,,,,,,,,1,314.6800405218182,None,314.6800405218182,None,,,201,211,313.9172537198792,314.42698474969256,314.39174732130596,314.4934544353018,4,1,0.24971139792069152,314.39174732130596,None,314.4934544353018,None,314.39174732130596,None,False,None,None,None,None,None,None,None,None,,,,,,,,,,,,,,,,,,,,,,,,,,,,ER05EL09,1,0xE000,C:\Users\Administrator\Desktop\Labor\ExperimenteVARIO\Variotest\Hamburg\HamburgTasks\Logfiles\,2022_Feb_28_1049,GoNoGo,2020.1.3,58.930160055610145,
DRÜCKEN SIE IM FOLGENDEN BITTE SO SCHNELL SIE KÖNNEN. BITTE ZEIGEN SIE IHRE MAXIMAL MÖGLICHE LEISTUNG!,200,Go,go,4,1,0,0,0,1,,,,,32,2,98,0,,,,,,,,,,,,,1,316.5104567146536,None,316.5104567146536,None,,,201,211,315.69685277238386,316.20700292492074,316.1718231010782,316.27361993249724,4,1,0.2885087209651829,316.1718231010782,None,316.27361993249724,None,316.1718231010782,None,False,None,None,None,None,None,None,None,None,,,,,,,,,,,,,,,,,,,,,,,,,,,,ER05EL09,1,0xE000,C:\Users\Administrator\Desktop\Labor\ExperimenteVARIO\Variotest\Hamburg\HamburgTasks\Logfiles\,2022_Feb_28_1049,GoNoGo,2020.1.3,58.930160055610145,
DRÜCKEN SIE IM FOLGENDEN BITTE SO SCHNELL SIE KÖNNEN. BITTE ZEIGEN SIE IHRE MAXIMAL MÖGLICHE LEISTUNG!,200,Go,go,4,1,0,0,0,1,,,,,33,0,99,0,,,,,,,,,,,,,1,318.51072686010593,None,318.51072686010593,None,,,201,211,317.52740999703747,318.0367079995831,318.0020999173994,318.10375902760825,4,1,0.4747627536962682,318.0020999173994,None,318.10375902760825,None,318.0020999173994,None,False,None,None,None,None,None,None,None,None,,,,,,,,,,,,,,,,,,,,,,,,,,,,ER05EL09,1,0xE000,C:\Users\Administrator\Desktop\Labor\ExperimenteVARIO\Variotest\Hamburg\HamburgTasks\Logfiles\,2022_Feb_28_1049,GoNoGo,2020.1.3,58.930160055610145,
DRÜCKEN SIE IM FOLGENDEN BITTE SO SCHNELL SIE KÖNNEN. BITTE ZEIGEN SIE IHRE MAXIMAL MÖGLICHE LEISTUNG!,200,NoGo,nogo,None,2,0,0,0,1,,,,,33,1,100,2,,,,,,,,,,,,,1,320.39235845917756,None,320.39235845917756,None,,,202,220,319.5282121568762,320.0359366283792,320.0190055270559,320.12069211529524,4,0,0.3285985046004498,320.0190055270559,None,320.12069211529524,None,320.0190055270559,None,False,None,None,None,None,None,None,None,None,,,,,,,,,,,,,,,,,,,,,,,,,,,,ER05EL09,1,0xE000,C:\Users\Administrator\Desktop\Labor\ExperimenteVARIO\Variotest\Hamburg\HamburgTasks\Logfiles\,2022_Feb_28_1049,GoNoGo,2020.1.3,58.930160055610145,
DRÜCKEN SIE IM FOLGENDEN BITTE SO SCHNELL SIE KÖNNEN. BITTE ZEIGEN SIE IHRE MAXIMAL MÖGLICHE LEISTUNG!,200,NoGo,nogo,None,2,0,0,0,1,,,,,33,2,101,2,,,,,,,,,,,,,0.9,322.6140071740829,None,322.6140071740829,None,,,202,0,321.4092763180761,321.919449975916,321.88361365889796,321.98525058804626,None,1,,321.88361365889796,None,321.98525058804626,None,321.88361365889796,None,False,None,None,None,None,None,None,None,None,,,,,,,,,,,,,,,,,,,,,,,,,,,,ER05EL09,1,0xE000,C:\Users\Administrator\Desktop\Labor\ExperimenteVARIO\Variotest\Hamburg\HamburgTasks\Logfiles\,2022_Feb_28_1049,GoNoGo,2020.1.3,58.930160055610145,
DRÜCKEN SIE IM FOLGENDEN BITTE SO SCHNELL SIE KÖNNEN. BITTE ZEIGEN SIE IHRE MAXIMAL MÖGLICHE LEISTUNG!,200,Go,go,4,1,0,0,0,1,,,,,34,0,102,1,,,,,,,,,,,,,1,324.3751092086168,None,324.3751092086168,None,,,201,211,323.54509227486597,324.0530468334873,324.0360038336821,324.1377831188893,4,1,0.30203751247609034,324.0360038336821,None,324.1377831188893,None,324.0360038336821,None,False,None,None,None,None,None,None,None,None,,,,,,,,,,,,,,,,,,,,,,,,,,,,ER05EL09,1,0xE000,C:\Users\Administrator\Desktop\Labor\ExperimenteVARIO\Variotest\Hamburg\HamburgTasks\Logfiles\,2022_Feb_28_1049,GoNoGo,2020.1.3,58.930160055610145,
DRÜCKEN SIE IM FOLGENDEN BITTE SO SCHNELL SIE KÖNNEN. BITTE ZEIGEN SIE IHRE MAXIMAL MÖGLICHE LEISTUNG!,200,Go,go,4,1,0,0,0,1,,,,,34,1,103,0,,,,,,,,,,,,,1,326.18855821452416,None,326.18855821452416,None,,,201,211,325.3920621599391,325.9013475821812,325.8667868416651,325.96825559202625,4,1,0.2867325808329042,325.8667868416651,None,325.96825559202625,None,325.8667868416651,None,False,None,None,None,None,None,None,None,None,,,,,,,,,,,,,,,,,,,,,,,,,,,,ER05EL09,1,0xE000,C:\Users\Administrator\Desktop\Labor\ExperimenteVARIO\Variotest\Hamburg\HamburgTasks\Logfiles\,2022_Feb_28_1049,GoNoGo,2020.1.3,58.930160055610145,
DRÜCKEN SIE IM FOLGENDEN BITTE SO SCHNELL SIE KÖNNEN. BITTE ZEIGEN SIE IHRE MAXIMAL MÖGLICHE LEISTUNG!,200,Go,go,4,1,0,0,0,1,,,,,34,2,104,1,,,,,,,,,,,,,0.9,328.40895088550496,None,328.40895088550496,None,,,201,0,327.2055667840268,327.71550042292984,327.68039773620694,327.7824749759566,None,0,,327.68039773620694,None,327.7824749759566,None,327.68039773620694,None,False,None,None,None,None,None,None,None,None,,,,,,,,,,,,,,,,,,,,,,,,,,,,ER05EL09,1,0xE000,C:\Users\Administrator\Desktop\Labor\ExperimenteVARIO\Variotest\Hamburg\HamburgTasks\Logfiles\,2022_Feb_28_1049,GoNoGo,2020.1.3,58.930160055610145,
DRÜCKEN SIE IM FOLGENDEN BITTE SO SCHNELL SIE KÖNNEN. BITTE ZEIGEN SIE IHRE MAXIMAL MÖGLICHE LEISTUNG!,200,Go,go,4,1,0,0,0,1,,,,,35,0,105,0,,,,,,,,,,,,,1,330.3412807741515,None,330.3412807741515,None,,,201,211,329.3411741726377,329.85123526987263,329.8163196323894,329.91974561303323,4,1,0.48197490891652706,329.8163196323894,None,329.91974561303323,None,329.8163196323894,None,False,None,None,None,None,None,None,None,None,,,,,,,,,,,,,,,,,,,,,,,,,,,,ER05EL09,1,0xE000,C:\Users\Administrator\Desktop\Labor\ExperimenteVARIO\Variotest\Hamburg\HamburgTasks\Logfiles\,2022_Feb_28_1049,GoNoGo,2020.1.3,58.930160055610145,
DRÜCKEN SIE IM FOLGENDEN BITTE SO SCHNELL SIE KÖNNEN. BITTE ZEIGEN SIE IHRE MAXIMAL MÖGLICHE LEISTUNG!,200,NoGo,nogo,None,2,0,0,0,1,,,,,35,1,106,2,,,,,,,,,,,,,1,332.32425399631575,None,332.32425399631575,None,,,202,220,331.3581443391122,331.86686596514846,331.8498977850395,331.95195251266705,4,0,0.44036919878271874,331.8498977850395,None,331.95195251266705,None,331.8498977850395,None,False,None,None,None,None,None,None,None,None,,,,,,,,,,,,,,,,,,,,,,,,,,,,ER05EL09,1,0xE000,C:\Users\Administrator\Desktop\Labor\ExperimenteVARIO\Variotest\Hamburg\HamburgTasks\Logfiles\,2022_Feb_28_1049,GoNoGo,2020.1.3,58.930160055610145,
DRÜCKEN SIE IM FOLGENDEN BITTE SO SCHNELL SIE KÖNNEN. BITTE ZEIGEN SIE IHRE MAXIMAL MÖGLICHE LEISTUNG!,200,Go,go,4,1,0,0,0,1,,,,,35,2,107,1,,,,,,,,,,,,,1,334.18981194102525,None,334.18981194102525,None,,,201,211,333.3412148930911,333.8498077365548,333.8328743178081,333.9346125515003,4,1,0.307726788927539,333.8328743178081,None,333.9346125515003,None,333.8328743178081,None,False,None,None,None,None,None,None,None,None,,,,,,,,,,,,,,,,,,,,,,,,,,,,ER05EL09,1,0xE000,C:\Users\Administrator\Desktop\Labor\ExperimenteVARIO\Variotest\Hamburg\HamburgTasks\Logfiles\,2022_Feb_28_1049,GoNoGo,2020.1.3,58.930160055610145,
DRÜCKEN SIE IM FOLGENDEN BITTE SO SCHNELL SIE KÖNNEN. BITTE ZEIGEN SIE IHRE MAXIMAL MÖGLICHE LEISTUNG!,200,Go,go,4,1,0,0,0,1,,,,,36,0,108,1,,,,,,,,,,,,,1,335.95156020585273,None,335.95156020585273,None,,,201,211,335.2072038787064,335.7142615941557,335.69732916858993,335.79903528940486,4,1,0.21158116198967036,335.69732916858993,None,335.78212835550585,None,335.69732916858993,None,False,None,None,None,None,None,None,None,None,,,,,,,,,,,,,,,,,,,,,,,,,,,,ER05EL09,1,0xE000,C:\Users\Administrator\Desktop\Labor\ExperimenteVARIO\Variotest\Hamburg\HamburgTasks\Logfiles\,2022_Feb_28_1049,GoNoGo,2020.1.3,58.930160055610145,
DRÜCKEN SIE IM FOLGENDEN BITTE SO SCHNELL SIE KÖNNEN. BITTE ZEIGEN SIE IHRE MAXIMAL MÖGLICHE LEISTUNG!,200,Go,go,4,1,0,0,0,1,,,,,36,1,109,1,,,,,,,,,,,,,1,337.74825986270844,None,337.74825986270844,None,,,201,211,336.9685356692971,337.47758140366386,337.44300675860177,337.54476154532495,4,1,0.27103401813292294,337.44300675860177,None,337.54476154532495,None,337.44300675860177,None,False,None,None,None,None,None,None,None,None,,,,,,,,,,,,,,,,,,,,,,,,,,,,ER05EL09,1,0xE000,C:\Users\Administrator\Desktop\Labor\ExperimenteVARIO\Variotest\Hamburg\HamburgTasks\Logfiles\,2022_Feb_28_1049,GoNoGo,2020.1.3,58.930160055610145,
DRÜCKEN SIE IM FOLGENDEN BITTE SO SCHNELL SIE KÖNNEN. BITTE ZEIGEN SIE IHRE MAXIMAL MÖGLICHE LEISTUNG!,200,Go,go,4,1,0,0,0,1,,,,,36,2,110,1,,,,,,,,,,,,,1,339.59545255156627,None,339.59545255156627,None,,,201,211,338.76507310645684,339.2754089839909,339.2400791896962,339.34179888399376,4,1,0.3062366851572733,339.2400791896962,None,339.34179888399376,None,339.2400791896962,None,False,None,None,None,None,None,None,None,None,,,,,,,,,,,,,,,,,,,,,,,,,,,,ER05EL09,1,0xE000,C:\Users\Administrator\Desktop\Labor\ExperimenteVARIO\Variotest\Hamburg\HamburgTasks\Logfiles\,2022_Feb_28_1049,GoNoGo,2020.1.3,58.930160055610145,
DRÜCKEN SIE IM FOLGENDEN BITTE SO SCHNELL SIE KÖNNEN. BITTE ZEIGEN SIE IHRE MAXIMAL MÖGLICHE LEISTUNG!,200,Go,go,4,1,0,0,0,1,,,,,37,0,111,0,,,,,,,,,,,,,1,341.5122894661472,None,341.5122894661472,None,,,201,211,340.6125882483411,341.1221623554302,341.08719871415997,341.1889293334589,4,1,0.3882784683137288,341.08719871415997,None,341.1889293334589,None,341.08719871415997,None,False,None,None,None,None,None,None,None,None,,,,,,,,,,,,,,,,,,,,,,,,,,,,ER05EL09,1,0xE000,C:\Users\Administrator\Desktop\Labor\ExperimenteVARIO\Variotest\Hamburg\HamburgTasks\Logfiles\,2022_Feb_28_1049,GoNoGo,2020.1.3,58.930160055610145,
DRÜCKEN SIE IM FOLGENDEN BITTE SO SCHNELL SIE KÖNNEN. BITTE ZEIGEN SIE IHRE MAXIMAL MÖGLICHE LEISTUNG!,200,NoGo,nogo,None,2,0,0,0,1,,,,,37,1,112,2,,,,,,,,,,,,,0.9,343.7654909049379,None,343.7654909049379,None,,,202,0,342.5463400422759,343.0532656645464,343.03649910034255,343.13794500752374,None,1,,343.03649910034255,None,343.13794500752374,None,343.03649910034255,None,False,None,None,None,None,None,None,None,None,,,,,,,,,,,,,,,,,,,,,,,,,,,,ER05EL09,1,0xE000,C:\Users\Administrator\Desktop\Labor\ExperimenteVARIO\Variotest\Hamburg\HamburgTasks\Logfiles\,2022_Feb_28_1049,GoNoGo,2020.1.3,58.930160055610145,
DRÜCKEN SIE IM FOLGENDEN BITTE SO SCHNELL SIE KÖNNEN. BITTE ZEIGEN SIE IHRE MAXIMAL MÖGLICHE LEISTUNG!,200,Go,go,4,1,0,0,0,1,,,,,37,2,113,0,,,,,,,,,,,,,1,345.51106818358676,None,345.51106818358676,None,,,201,211,344.6814409081653,345.18903295542805,345.17208033516545,345.2737338173429,4,1,0.2963737276932079,345.17208033516545,None,345.2737338173429,None,345.17208033516545,None,False,None,None,None,None,None,None,None,None,,,,,,,,,,,,,,,,,,,,,,,,,,,,ER05EL09,1,0xE000,C:\Users\Administrator\Desktop\Labor\ExperimenteVARIO\Variotest\Hamburg\HamburgTasks\Logfiles\,2022_Feb_28_1049,GoNoGo,2020.1.3,58.930160055610145,
DRÜCKEN SIE IM FOLGENDEN BITTE SO SCHNELL SIE KÖNNEN. BITTE ZEIGEN SIE IHRE MAXIMAL MÖGLICHE LEISTUNG!,200,Go,go,4,1,0,0,0,1,,,,,38,0,114,0,,,,,,,,,,,,,1,347.6128828922774,None,347.6128828922774,None,,,201,211,346.52814097884584,347.0389406722843,347.00257399618204,347.1042115874516,4,1,0.5734347040888679,347.00257399618204,None,347.1042115874516,None,347.00257399618204,None,False,None,None,None,None,None,None,None,None,,,,,,,,,,,,,,,,,,,,,,,,,,,,ER05EL09,1,0xE000,C:\Users\Administrator\Desktop\Labor\ExperimenteVARIO\Variotest\Hamburg\HamburgTasks\Logfiles\,2022_Feb_28_1049,GoNoGo,2020.1.3,58.930160055610145,
DRÜCKEN SIE IM FOLGENDEN BITTE SO SCHNELL SIE KÖNNEN. BITTE ZEIGEN SIE IHRE MAXIMAL MÖGLICHE LEISTUNG!,200,Go,go,4,1,0,0,0,1,,,,,38,1,115,1,,,,,,,,,,,,,1,349.47727550366653,None,349.47727550366653,None,,,201,211,348.62989973829644,349.1403200362838,349.10434930866177,349.2060325862949,4,1,0.33194387198454933,349.10434930866177,None,349.2060325862949,None,349.10434930866177,None,False,None,None,None,None,None,None,None,None,,,,,,,,,,,,,,,,,,,,,,,,,,,,ER05EL09,1,0xE000,C:\Users\Administrator\Desktop\Labor\ExperimenteVARIO\Variotest\Hamburg\HamburgTasks\Logfiles\,2022_Feb_28_1049,GoNoGo,2020.1.3,58.930160055610145,
DRÜCKEN SIE IM FOLGENDEN BITTE SO SCHNELL SIE KÖNNEN. BITTE ZEIGEN SIE IHRE MAXIMAL MÖGLICHE LEISTUNG!,200,NoGo,nogo,None,2,0,0,0,1,,,,,38,2,116,2,,,,,,,,,,,,,0.9,351.71454862369865,None,351.71454862369865,None,,,202,0,350.49426420953387,351.00303483254174,350.9863063403063,351.08734802249273,None,1,,350.9863063403063,None,351.08734802249273,None,350.9863063403063,None,False,None,None,None,None,None,None,None,None,,,,,,,,,,,,,,,,,,,,,,,,,,,,ER05EL09,1,0xE000,C:\Users\Administrator\Desktop\Labor\ExperimenteVARIO\Variotest\Hamburg\HamburgTasks\Logfiles\,2022_Feb_28_1049,GoNoGo,2020.1.3,58.930160055610145,
DRÜCKEN SIE IM FOLGENDEN BITTE SO SCHNELL SIE KÖNNEN. BITTE ZEIGEN SIE IHRE MAXIMAL MÖGLICHE LEISTUNG!,200,Go,go,4,1,0,0,0,1,,,,,39,0,117,0,,,,,,,,,,,,,1,353.4773715112424,None,353.4773715112424,None,,,201,211,352.64671993431693,353.1551247353582,353.1381780741867,353.23998318212034,4,1,0.29398678075085627,353.1381780741867,None,353.23998318212034,None,353.1381780741867,None,False,None,None,None,None,None,None,None,None,,,,,,,,,,,,,,,,,,,,,,,,,,,,ER05EL09,1,0xE000,C:\Users\Administrator\Desktop\Labor\ExperimenteVARIO\Variotest\Hamburg\HamburgTasks\Logfiles\,2022_Feb_28_1049,GoNoGo,2020.1.3,58.930160055610145,
DRÜCKEN SIE IM FOLGENDEN BITTE SO SCHNELL SIE KÖNNEN. BITTE ZEIGEN SIE IHRE MAXIMAL MÖGLICHE LEISTUNG!,200,Go,go,4,1,0,0,0,1,,,,,39,1,118,0,,,,,,,,,,,,,1,355.3415946196037,None,355.3415946196037,None,,,201,211,354.49423044135256,355.00433689388956,354.9692944601975,355.0708747779827,4,1,0.3242900819204806,354.9692944601975,None,355.0708747779827,None,354.9692944601975,None,False,None,None,None,None,None,None,None,None,,,,,,,,,,,,,,,,,,,,,,,,,,,,ER05EL09,1,0xE000,C:\Users\Administrator\Desktop\Labor\ExperimenteVARIO\Variotest\Hamburg\HamburgTasks\Logfiles\,2022_Feb_28_1049,GoNoGo,2020.1.3,58.930160055610145,
DRÜCKEN SIE IM FOLGENDEN BITTE SO SCHNELL SIE KÖNNEN. BITTE ZEIGEN SIE IHRE MAXIMAL MÖGLICHE LEISTUNG!,200,Go,go,4,1,0,0,0,1,,,,,39,2,119,1,,,,,,,,,,,,,1,357.20777992415424,None,357.20777992415424,None,,,201,211,356.3587154186498,356.86761449317055,356.8333652806814,356.93508265755554,4,1,0.3342315007466823,356.8333652806814,None,356.93508265755554,None,356.8333652806814,None,False,None,None,None,None,None,None,None,None,,,,,,,,,,,,,,,,,,,,,,,,,,,,ER05EL09,1,0xE000,C:\Users\Administrator\Desktop\Labor\ExperimenteVARIO\Variotest\Hamburg\HamburgTasks\Logfiles\,2022_Feb_28_1049,GoNoGo,2020.1.3,58.930160055610145,
DRÜCKEN SIE IM FOLGENDEN BITTE SO SCHNELL SIE KÖNNEN. BITTE ZEIGEN SIE IHRE MAXIMAL MÖGLICHE LEISTUNG!,200,Go,go,4,1,0,0,0,1,,,,,40,0,120,1,,,,,,,,,,,,,1,359.0366835010973,None,359.0366835010973,None,,,201,211,358.24178315861536,358.74870116649254,358.731709150019,358.83343678977144,4,1,0.26681928560537926,358.731709150019,None,358.8164924460252,None,358.731709150019,None,False,None,None,None,None,None,None,None,None,,,,,,,,,,,,,,,,,,,,,,,,,,,,ER05EL09,1,0xE000,C:\Users\Administrator\Desktop\Labor\ExperimenteVARIO\Variotest\Hamburg\HamburgTasks\Logfiles\,2022_Feb_28_1049,GoNoGo,2020.1.3,58.930160055610145,
DRÜCKEN SIE IM FOLGENDEN BITTE SO SCHNELL SIE KÖNNEN. BITTE ZEIGEN SIE IHRE MAXIMAL MÖGLICHE LEISTUNG!,200,Go,go,4,1,0,0,0,1,,,,,40,1,121,0,,,,,,,,,,,,,1,360.9185140675927,None,360.9185140675927,None,,,201,211,360.0537493440861,360.56224452467177,360.5452746892588,360.64689705173987,4,1,0.3332955924252019,360.5452746892588,None,360.62996330193164,None,360.5452746892588,None,False,None,None,None,None,None,None,None,None,,,,,,,,,,,,,,,,,,,,,,,,,,,,ER05EL09,1,0xE000,C:\Users\Administrator\Desktop\Labor\ExperimenteVARIO\Variotest\Hamburg\HamburgTasks\Logfiles\,2022_Feb_28_1049,GoNoGo,2020.1.3,58.930160055610145,
DRÜCKEN SIE IM FOLGENDEN BITTE SO SCHNELL SIE KÖNNEN. BITTE ZEIGEN SIE IHRE MAXIMAL MÖGLICHE LEISTUNG!,200,Go,go,4,1,0,0,0,1,,,,,40,2,122,1,,,,,,,,,,,,,1,362.69771584737464,None,362.69771584737464,None,,,201,211,361.9350250530115,362.4458257396309,362.4100377574614,362.51207824948324,4,1,0.24461306464581867,362.4100377574614,None,362.51207824948324,None,362.4100377574614,None,False,None,None,None,None,None,None,None,None,,,,,,,,,,,,,,,,,,,,,,,,,,,,ER05EL09,1,0xE000,C:\Users\Administrator\Desktop\Labor\ExperimenteVARIO\Variotest\Hamburg\HamburgTasks\Logfiles\,2022_Feb_28_1049,GoNoGo,2020.1.3,58.930160055610145,
DRÜCKEN SIE IM FOLGENDEN BITTE SO SCHNELL SIE KÖNNEN. BITTE ZEIGEN SIE IHRE MAXIMAL MÖGLICHE LEISTUNG!,200,Go,go,4,1,0,0,0,1,,,,,41,0,123,1,,,,,,,,,,,,,1,364.3081025427109,None,364.3081025427109,None,,,201,211,363.7147773865745,364.2237608815485,364.18952424936106,None,4,1,0.0817312483140995,364.18952424936106,None,364.2912310985092,None,364.18952424936106,None,False,None,None,None,None,None,None,None,None,,,,,,,,,,,,,,,,,,,,,,,,,,,,ER05EL09,1,0xE000,C:\Users\Administrator\Desktop\Labor\ExperimenteVARIO\Variotest\Hamburg\HamburgTasks\Logfiles\,2022_Feb_28_1049,GoNoGo,2020.1.3,58.930160055610145,
DRÜCKEN SIE IM FOLGENDEN BITTE SO SCHNELL SIE KÖNNEN. BITTE ZEIGEN SIE IHRE MAXIMAL MÖGLICHE LEISTUNG!,200,Go,go,4,1,0,0,0,1,,,,,41,1,124,0,,,,,,,,,,,,,1,366.10473367002123,None,366.10473367002123,None,,,201,211,365.3250591356991,365.83577209125906,365.79954048788386,365.9012207859705,4,1,0.27125450449420896,365.79954048788386,None,365.9012207859705,None,365.79954048788386,None,False,None,None,None,None,None,None,None,None,,,,,,,,,,,,,,,,,,,,,,,,,,,,ER05EL09,1,0xE000,C:\Users\Administrator\Desktop\Labor\ExperimenteVARIO\Variotest\Hamburg\HamburgTasks\Logfiles\,2022_Feb_28_1049,GoNoGo,2020.1.3,58.930160055610145,
DRÜCKEN SIE IM FOLGENDEN BITTE SO SCHNELL SIE KÖNNEN. BITTE ZEIGEN SIE IHRE MAXIMAL MÖGLICHE LEISTUNG!,200,NoGo,nogo,None,2,0,0,0,1,,,,,41,2,125,2,,,,,,,,,,,,,0.9,368.34195050974995,None,368.34195050974995,None,,,202,0,367.1216790069502,367.630635686015,367.61371021272316,367.71613870777037,None,1,,367.61371021272316,None,367.71613870777037,None,367.61371021272316,None,False,None,None,None,None,None,369.3248343455507,None,space,25.507955882865645,,,,,,,,,,,,,,,,,,,,,,,,,,,ER05EL09,1,0xE000,C:\Users\Administrator\Desktop\Labor\ExperimenteVARIO\Variotest\Hamburg\HamburgTasks\Logfiles\,2022_Feb_28_1049,GoNoGo,2020.1.3,58.930160055610145,
DRÜCKEN SIE IM FOLGENDEN BITTE SO SCHNELL SIE KÖNNEN. BITTE ZEIGEN SIE IHRE MAXIMAL MÖGLICHE LEISTUNG!,200,Go,go,4,1,0,0,0,1,,,,,42,0,126,0,,,,,,,,,,,,,0.9,398.0040210620755,None,398.0040210620755,None,,,201,0,396.8154257687638,397.3254789205439,397.27453531506217,397.37623183511823,None,0,,397.27453531506217,None,397.37623183511823,None,397.27453531506217,None,False,None,None,None,None,None,None,None,None,,,,,,,,,,,,,,,,,,,,,,,,,,,,ER05EL09,1,0xE000,C:\Users\Administrator\Desktop\Labor\ExperimenteVARIO\Variotest\Hamburg\HamburgTasks\Logfiles\,2022_Feb_28_1049,GoNoGo,2020.1.3,58.930160055610145,
DRÜCKEN SIE IM FOLGENDEN BITTE SO SCHNELL SIE KÖNNEN. BITTE ZEIGEN SIE IHRE MAXIMAL MÖGLICHE LEISTUNG!,200,Go,go,4,1,0,0,0,1,,,,,42,1,127,0,,,,,,,,,,,,,1,399.6646385894164,None,399.6646385894164,None,,,201,211,398.9358133083042,399.4442793555572,399.4272327140843,399.5289298962616,4,1,0.19945937803640845,399.4272327140843,None,399.5119835661517,None,399.4272327140843,None,False,None,None,None,None,None,None,None,None,,,,,,,,,,,,,,,,,,,,,,,,,,,,ER05EL09,1,0xE000,C:\Users\Administrator\Desktop\Labor\ExperimenteVARIO\Variotest\Hamburg\HamburgTasks\Logfiles\,2022_Feb_28_1049,GoNoGo,2020.1.3,58.930160055610145,
DRÜCKEN SIE IM FOLGENDEN BITTE SO SCHNELL SIE KÖNNEN. BITTE ZEIGEN SIE IHRE MAXIMAL MÖGLICHE LEISTUNG!,200,Go,go,4,1,0,0,0,1,,,,,42,2,128,1,,,,,,,,,,,,,1,401.4442277101025,None,401.4442277101025,None,,,201,211,400.68152764604383,401.19131859782647,401.156650924735,401.25927375235733,4,1,0.2524486069796694,401.156650924735,None,401.25927375235733,None,401.156650924735,None,False,None,None,None,None,None,None,None,None,,,,,,,,,,,,,,,,,,,,,,,,,,,,ER05EL09,1,0xE000,C:\Users\Administrator\Desktop\Labor\ExperimenteVARIO\Variotest\Hamburg\HamburgTasks\Logfiles\,2022_Feb_28_1049,GoNoGo,2020.1.3,58.930160055610145,
DRÜCKEN SIE IM FOLGENDEN BITTE SO SCHNELL SIE KÖNNEN. BITTE ZEIGEN SIE IHRE MAXIMAL MÖGLICHE LEISTUNG!,200,NoGo,nogo,None,2,0,0,0,1,,,,,43,0,129,2,,,,,,,,,,,,,0.9,403.6646061454776,None,403.6646061454776,None,,,202,0,402.4611909243049,402.9704197351839,402.93584939391076,403.0375611427553,None,1,,402.93584939391076,None,403.0375611427553,None,402.93584939391076,None,False,None,None,None,None,None,None,None,None,,,,,,,,,,,,,,,,,,,,,,,,,,,,ER05EL09,1,0xE000,C:\Users\Administrator\Desktop\Labor\ExperimenteVARIO\Variotest\Hamburg\HamburgTasks\Logfiles\,2022_Feb_28_1049,GoNoGo,2020.1.3,58.930160055610145,
DRÜCKEN SIE IM FOLGENDEN BITTE SO SCHNELL SIE KÖNNEN. BITTE ZEIGEN SIE IHRE MAXIMAL MÖGLICHE LEISTUNG!,200,Go,go,4,1,0,0,0,1,,,,,43,1,130,1,,,,,,,,,,,,,1,405.32607516068856,None,405.32607516068856,None,,,201,211,404.5968108932175,405.1053815556206,405.0884199967222,405.1901373735964,4,1,0.1970545538206352,405.0884199967222,None,405.1901373735964,None,405.0884199967222,None,False,None,None,None,None,None,None,None,None,,,,,,,,,,,,,,,,,,,,,,,,,,,,ER05EL09,1,0xE000,C:\Users\Administrator\Desktop\Labor\ExperimenteVARIO\Variotest\Hamburg\HamburgTasks\Logfiles\,2022_Feb_28_1049,GoNoGo,2020.1.3,58.930160055610145,
DRÜCKEN SIE IM FOLGENDEN BITTE SO SCHNELL SIE KÖNNEN. BITTE ZEIGEN SIE IHRE MAXIMAL MÖGLICHE LEISTUNG!,200,Go,go,4,1,0,0,0,1,,,,,43,2,131,1,,,,,,,,,,,,,1,407.2240843277559,None,407.2240843277559,None,,,201,211,406.34312974761633,406.8527753637936,406.8172691141972,406.91896762061697,4,1,0.3593765466739569,406.8172691141972,None,406.91896762061697,None,406.8172691141972,None,False,None,None,None,None,None,None,None,None,,,,,,,,,,,,,,,,,,,,,,,,,,,,ER05EL09,1,0xE000,C:\Users\Administrator\Desktop\Labor\ExperimenteVARIO\Variotest\Hamburg\HamburgTasks\Logfiles\,2022_Feb_28_1049,GoNoGo,2020.1.3,58.930160055610145,
DRÜCKEN SIE IM FOLGENDEN BITTE SO SCHNELL SIE KÖNNEN. BITTE ZEIGEN SIE IHRE MAXIMAL MÖGLICHE LEISTUNG!,200,Go,go,4,1,0,0,0,1,,,,,44,0,132,1,,,,,,,,,,,,,1,409.0885358679334,None,409.0885358679334,None,,,201,211,408.2410333063508,408.7500727505667,408.7155216108076,408.8172128338956,4,1,0.3331486015176779,408.7155216108076,None,408.8172128338956,None,408.7155216108076,None,False,None,None,None,None,None,None,None,None,,,,,,,,,,,,,,,,,,,,,,,,,,,,ER05EL09,1,0xE000,C:\Users\Administrator\Desktop\Labor\ExperimenteVARIO\Variotest\Hamburg\HamburgTasks\Logfiles\,2022_Feb_28_1049,GoNoGo,2020.1.3,58.930160055610145,
DRÜCKEN SIE IM FOLGENDEN BITTE SO SCHNELL SIE KÖNNEN. BITTE ZEIGEN SIE IHRE MAXIMAL MÖGLICHE LEISTUNG!,200,NoGo,nogo,None,2,0,0,0,1,,,,,44,1,133,2,,,,,,,,,,,,,1,410.90187330641857,None,410.90187330641857,None,,,202,220,410.10538883895424,410.6144335801382,410.5975422060874,410.69993660189357,4,0,0.2701530658687261,410.5975422060874,None,410.6833166975375,None,410.5975422060874,None,False,None,None,None,None,None,None,None,None,,,,,,,,,,,,,,,,,,,,,,,,,,,,ER05EL09,1,0xE000,C:\Users\Administrator\Desktop\Labor\ExperimenteVARIO\Variotest\Hamburg\HamburgTasks\Logfiles\,2022_Feb_28_1049,GoNoGo,2020.1.3,58.930160055610145,
DRÜCKEN SIE IM FOLGENDEN BITTE SO SCHNELL SIE KÖNNEN. BITTE ZEIGEN SIE IHRE MAXIMAL MÖGLICHE LEISTUNG!,200,Go,go,4,1,0,0,0,1,,,,,44,2,134,0,,,,,,,,,,,,,1,412.7161234789837,None,412.7161234789837,None,,,201,211,411.9189987403133,412.4275538428683,412.4105942703336,412.51229906690605,4,1,0.2598915114413103,412.4105942703336,None,412.51229906690605,None,412.4105942703336,None,False,None,None,None,None,None,None,None,None,,,,,,,,,,,,,,,,,,,,,,,,,,,,ER05EL09,1,0xE000,C:\Users\Administrator\Desktop\Labor\ExperimenteVARIO\Variotest\Hamburg\HamburgTasks\Logfiles\,2022_Feb_28_1049,GoNoGo,2020.1.3,58.930160055610145,
DRÜCKEN SIE IM FOLGENDEN BITTE SO SCHNELL SIE KÖNNEN. BITTE ZEIGEN SIE IHRE MAXIMAL MÖGLICHE LEISTUNG!,200,Go,go,4,1,0,0,0,1,,,,,45,0,135,1,,,,,,,,,,,,,1,414.4782739824441,None,414.4782739824441,None,,,201,211,413.7329979689421,414.2425853184559,414.2071154855257,414.3089397949734,4,1,0.231391497371078,414.2071154855257,None,414.3089397949734,None,414.2071154855257,None,False,None,None,None,None,None,None,None,None,,,,,,,,,,,,,,,,,,,,,,,,,,,,ER05EL09,1,0xE000,C:\Users\Administrator\Desktop\Labor\ExperimenteVARIO\Variotest\Hamburg\HamburgTasks\Logfiles\,2022_Feb_28_1049,GoNoGo,2020.1.3,58.930160055610145,
DRÜCKEN SIE IM FOLGENDEN BITTE SO SCHNELL SIE KÖNNEN. BITTE ZEIGEN SIE IHRE MAXIMAL MÖGLICHE LEISTUNG!,200,Go,go,4,1,0,0,0,1,,,,,45,1,136,0,,,,,,,,,,,,,1,416.2750183324806,None,416.2750183324806,None,,,201,211,415.49536962088496,416.0050354317609,415.97084812760295,416.0716173469136,4,1,0.26873877497746435,415.97084812760295,None,416.0716173469136,None,415.97084812760295,None,False,None,None,None,None,None,None,None,None,,,,,,,,,,,,,,,,,,,,,,,,,,,,ER05EL09,1,0xE000,C:\Users\Administrator\Desktop\Labor\ExperimenteVARIO\Variotest\Hamburg\HamburgTasks\Logfiles\,2022_Feb_28_1049,GoNoGo,2020.1.3,58.930160055610145,
DRÜCKEN SIE IM FOLGENDEN BITTE SO SCHNELL SIE KÖNNEN. BITTE ZEIGEN SIE IHRE MAXIMAL MÖGLICHE LEISTUNG!,200,Go,go,4,1,0,0,0,1,,,,,45,2,137,0,,,,,,,,,,,,,1,418.0558052304259,None,418.0558052304259,None,,,201,211,417.29195539289503,417.800952130292,417.7666406784083,417.86875168633924,4,1,0.24269456845468085,417.7666406784083,None,417.86875168633924,None,417.7666406784083,None,False,None,None,None,None,None,None,None,None,,,,,,,,,,,,,,,,,,,,,,,,,,,,ER05EL09,1,0xE000,C:\Users\Administrator\Desktop\Labor\ExperimenteVARIO\Variotest\Hamburg\HamburgTasks\Logfiles\,2022_Feb_28_1049,GoNoGo,2020.1.3,58.930160055610145,
DRÜCKEN SIE IM FOLGENDEN BITTE SO SCHNELL SIE KÖNNEN. BITTE ZEIGEN SIE IHRE MAXIMAL MÖGLICHE LEISTUNG!,200,NoGo,nogo,None,2,0,0,0,1,,,,,46,0,138,2,,,,,,,,,,,,,0.9,420.29191897622877,None,420.29191897622877,None,,,202,0,419.073273974167,419.58029924567745,419.56331252617383,419.6650120257764,None,1,,419.56331252617383,None,419.6650120257764,None,419.56331252617383,None,False,None,None,None,None,None,None,None,None,,,,,,,,,,,,,,,,,,,,,,,,,,,,ER05EL09,1,0xE000,C:\Users\Administrator\Desktop\Labor\ExperimenteVARIO\Variotest\Hamburg\HamburgTasks\Logfiles\,2022_Feb_28_1049,GoNoGo,2020.1.3,58.930160055610145,
DRÜCKEN SIE IM FOLGENDEN BITTE SO SCHNELL SIE KÖNNEN. BITTE ZEIGEN SIE IHRE MAXIMAL MÖGLICHE LEISTUNG!,200,Go,go,4,1,0,0,0,1,,,,,46,1,139,0,,,,,,,,,,,,,1,422.1062535692472,None,422.1062535692472,None,,,201,211,421.20826029308773,421.7158960403485,421.69894176478374,421.8006326568102,4,1,0.35801456335502735,421.69894176478374,None,421.8006326568102,None,421.69894176478374,None,False,None,None,None,None,None,None,None,None,,,,,,,,,,,,,,,,,,,,,,,,,,,,ER05EL09,1,0xE000,C:\Users\Administrator\Desktop\Labor\ExperimenteVARIO\Variotest\Hamburg\HamburgTasks\Logfiles\,2022_Feb_28_1049,GoNoGo,2020.1.3,58.930160055610145,
DRÜCKEN SIE IM FOLGENDEN BITTE SO SCHNELL SIE KÖNNEN. BITTE ZEIGEN SIE IHRE MAXIMAL MÖGLICHE LEISTUNG!,200,Go,go,4,1,0,0,0,1,,,,,46,2,140,0,,,,,,,,,,,,,1,423.93629798102666,None,423.93629798102666,None,,,201,211,423.12318268420677,423.63118590873637,423.61419223695884,423.71592252519804,4,1,0.2766229832213867,423.61419223695884,None,423.69897354660316,None,423.61419223695884,None,False,None,None,None,None,None,None,None,None,,,,,,,,,,,,,,,,,,,,,,,,,,,,ER05EL09,1,0xE000,C:\Users\Administrator\Desktop\Labor\ExperimenteVARIO\Variotest\Hamburg\HamburgTasks\Logfiles\,2022_Feb_28_1049,GoNoGo,2020.1.3,58.930160055610145,
DRÜCKEN SIE IM FOLGENDEN BITTE SO SCHNELL SIE KÖNNEN. BITTE ZEIGEN SIE IHRE MAXIMAL MÖGLICHE LEISTUNG!,200,Go,go,4,1,0,0,0,1,,,,,47,0,141,0,,,,,,,,,,,,,1,425.9197257493961,None,425.9197257493961,None,,,201,211,424.9532390141667,425.4631408712521,425.42824873907193,425.52944601974013,4,1,0.4432775661753112,425.42824873907193,None,425.52944601974013,None,425.42824873907193,None,False,None,None,None,None,None,None,None,None,,,,,,,,,,,,,,,,,,,,,,,,,,,,ER05EL09,1,0xE000,C:\Users\Administrator\Desktop\Labor\ExperimenteVARIO\Variotest\Hamburg\HamburgTasks\Logfiles\,2022_Feb_28_1049,GoNoGo,2020.1.3,58.930160055610145,
DRÜCKEN SIE IM FOLGENDEN BITTE SO SCHNELL SIE KÖNNEN. BITTE ZEIGEN SIE IHRE MAXIMAL MÖGLICHE LEISTUNG!,200,NoGo,nogo,None,2,0,0,0,1,,,,,47,1,142,2,,,,,,,,,,,,,0.9,428.1397019461401,None,428.1397019461401,None,,,202,0,426.9231184584496,427.42954351708795,427.4111415135103,427.51316776992644,None,1,,427.4111415135103,None,427.51316776992644,None,427.4111415135103,None,False,None,None,None,None,None,None,None,None,,,,,,,,,,,,,,,,,,,,,,,,,,,,ER05EL09,1,0xE000,C:\Users\Administrator\Desktop\Labor\ExperimenteVARIO\Variotest\Hamburg\HamburgTasks\Logfiles\,2022_Feb_28_1049,GoNoGo,2020.1.3,58.930160055610145,
DRÜCKEN SIE IM FOLGENDEN BITTE SO SCHNELL SIE KÖNNEN. BITTE ZEIGEN SIE IHRE MAXIMAL MÖGLICHE LEISTUNG!,200,NoGo,nogo,None,2,0,0,0,1,,,,,47,2,143,2,,,,,,,,,,,,,1,429.81761407934573,None,429.81761407934573,None,,,202,220,429.0718557105465,429.58314934640293,429.5481075748321,429.64840006687336,4,0,0.22028342098201392,429.5481075748321,None,429.64840006687336,None,429.5481075748321,None,False,None,None,None,None,None,None,None,None,,,,,,,,,,,,,,,,,,,,,,,,,,,,ER05EL09,1,0xE000,C:\Users\Administrator\Desktop\Labor\ExperimenteVARIO\Variotest\Hamburg\HamburgTasks\Logfiles\,2022_Feb_28_1049,GoNoGo,2020.1.3,58.930160055610145,
DRÜCKEN SIE IM FOLGENDEN BITTE SO SCHNELL SIE KÖNNEN. BITTE ZEIGEN SIE IHRE MAXIMAL MÖGLICHE LEISTUNG!,200,Go,go,4,1,0,0,0,1,,,,,48,0,144,0,,,,,,,,,,,,,1,431.6161815801188,None,431.6161815801188,None,,,201,211,430.83458159733345,431.3431615294339,431.32621652356465,431.42792926559196,4,1,0.2480898630910815,431.32621652356465,None,431.42792926559196,None,431.32621652356465,None,False,None,None,None,None,None,None,None,None,,,,,,,,,,,,,,,,,,,,,,,,,,,,ER05EL09,1,0xE000,C:\Users\Administrator\Desktop\Labor\ExperimenteVARIO\Variotest\Hamburg\HamburgTasks\Logfiles\,2022_Feb_28_1049,GoNoGo,2020.1.3,58.930160055610145,
DRÜCKEN SIE IM FOLGENDEN BITTE SO SCHNELL SIE KÖNNEN. BITTE ZEIGEN SIE IHRE MAXIMAL MÖGLICHE LEISTUNG!,200,NoGo,nogo,None,2,0,0,0,1,,,,,48,1,145,2,,,,,,,,,,,,,0.9,433.86859476361496,None,433.86859476361496,None,,,202,0,432.64857254944764,433.15678036943063,433.1397883529571,433.24148950786184,None,1,,433.1397883529571,None,433.24148950786184,None,433.1397883529571,None,False,None,None,None,None,None,None,None,None,,,,,,,,,,,,,,,,,,,,,,,,,,,,ER05EL09,1,0xE000,C:\Users\Administrator\Desktop\Labor\ExperimenteVARIO\Variotest\Hamburg\HamburgTasks\Logfiles\,2022_Feb_28_1049,GoNoGo,2020.1.3,58.930160055610145,
