Instruction_Condition,MarkCondition,Type,Letter,CorrectResponse,Condition,RandomizeBlocks.thisRepN,RandomizeBlocks.thisTrialN,RandomizeBlocks.thisN,RandomizeBlocks.thisIndex,Practice.thisRepN,Practice.thisTrialN,Practice.thisN,Practice.thisIndex,Trials.thisRepN,Trials.thisTrialN,Trials.thisN,Trials.thisIndex,Target_Mapping,Fixation_practice.started,Fixation_practice.stopped,Target_practice.started,Target_practice.stopped,Target_resp_practice.keys,Target_resp_practice.corr,Target_resp_practice.rt,Target_resp_practice.started,Target_resp_practice.stopped,ITI_resp_practice.started,ITI_resp_practice.stopped,ITI_Duration,ITI.started,ITI.stopped,square2.started,square2.stopped,Instr_Repe.started,Instr_Repe.stopped,Trigger_Target,TriggerResp,Fixation.started,Fixation.stopped,Target.started,Target.stopped,Target_resp.keys,Target_resp.corr,Target_resp.rt,Target_resp.started,Target_resp.stopped,ITI_resp.started,ITI_resp.stopped,square1.started,square1.stopped,showReminder,ReminderErrors.started,ReminderErrors.stopped,ReminderErrorsResp.keys,ReminderErrorsResp.started,ReminderErrorsResp.stopped,break_block.started,break_block.stopped,break_block_resp.keys,break_block_resp.rt,SelfReport.started,SelfReport.stopped,anxious.response,anxious.rt,peppy.response,peppy.rt,peeved.response,peeved.rt,happy.response,happy.rt,tired.response,tired.rt,relaxed.response,relaxed.rt,sad.response,sad.rt,calm.response,calm.rt,exhausted.response,exhausted.rt,irritated.response,irritated.rt,break_cond.started,break_cond.stopped,break_cond_resp.keys,break_cond_resp.rt,participant,session,EEGPort,LogFilesFolder,date,expName,psychopyVersion,frameRate,
DRÜCKEN SIE IM FOLGENDEN BITTE SO SCHNELL SIE KÖNNEN. BITTE ZEIGEN SIE IHRE MAXIMAL MÖGLICHE LEISTUNG!,200,Go,go,4,0,0,0,0,1,0,0,0,1,,,,,circle,74.39219955127919,74.8921559809778,74.87545123258496,74.97544384838147,4,1,0.30622747336747125,74.87545123258496,None,74.97544384838147,None,1,75.2087230892148,None,75.2087230892148,None,,,,,,,,,,,,,,,,,,,,,,,,,,,,,,,,,,,,,,,,,,,,,,,,,,,,,,ahsaer12,1,0x0378,C:\Users\admin\Desktop\FINALTasksLogfiles\,2021_Jun_11_1201,GoNoGo,2020.1.3,59.99657756446725,
DRÜCKEN SIE IM FOLGENDEN BITTE SO SCHNELL SIE KÖNNEN. BITTE ZEIGEN SIE IHRE MAXIMAL MÖGLICHE LEISTUNG!,200,Go,go,4,0,0,0,0,1,0,1,1,0,,,,,,76.2087230892148,76.7087481115168,76.69207625957551,76.79207622457943,None,0,,76.69207625957551,None,76.79207622457943,None,0.9,77.39202422018843,None,77.39202422018843,None,,,,,,,,,,,,,,,,,,,,,,,,,,,,,,,,,,,,,,,,,,,,,,,,,,,,,,ahsaer12,1,0x0378,C:\Users\admin\Desktop\FINALTasksLogfiles\,2021_Jun_11_1201,GoNoGo,2020.1.3,59.99657756446725,
DRÜCKEN SIE IM FOLGENDEN BITTE SO SCHNELL SIE KÖNNEN. BITTE ZEIGEN SIE IHRE MAXIMAL MÖGLICHE LEISTUNG!,200,NoGo,nogo,None,0,0,0,0,1,0,2,2,2,,,,,,78.29214569208762,78.79214971665351,78.77548031444803,78.87548272918775,None,1,,78.77548031444803,None,78.87548272918775,None,0.9,79.47534778374211,None,79.47534778374211,None,,,,,,,,,,,,,,,,,,,,,,,,,,,,,,,,,,,,,,,,,,,,,,,,,,,,,,ahsaer12,1,0x0378,C:\Users\admin\Desktop\FINALTasksLogfiles\,2021_Jun_11_1201,GoNoGo,2020.1.3,59.99657756446725,
DRÜCKEN SIE IM FOLGENDEN BITTE SO SCHNELL SIE KÖNNEN. BITTE ZEIGEN SIE IHRE MAXIMAL MÖGLICHE LEISTUNG!,200,Go,go,4,0,0,0,0,1,1,0,3,0,,,,,,80.37542341058543,80.87540993703897,80.85875628313534,None,4,1,0.048897426412622735,80.85875628313534,None,None,None,1,80.92544929029464,None,80.92544929029464,None,,,,,,,,,,,,,,,,,,,,,,,,,,,,,,,,,,,,,,,,,,,,,,,,,,,,,,ahsaer12,1,0x0378,C:\Users\admin\Desktop\FINALTasksLogfiles\,2021_Jun_11_1201,GoNoGo,2020.1.3,59.99657756446725,
DRÜCKEN SIE IM FOLGENDEN BITTE SO SCHNELL SIE KÖNNEN. BITTE ZEIGEN SIE IHRE MAXIMAL MÖGLICHE LEISTUNG!,200,NoGo,nogo,None,0,0,0,0,1,1,1,4,2,,,,,,81.9254044951258,82.4254830616519,82.40877026412727,82.50878212784755,4,0,0.14583347185998718,82.40877026412727,None,82.50878212784755,None,1,82.57534984851918,None,82.57534984851918,None,,,,,,,,,,,,,,,,,,,,,,,,,,,,,,,,,,,,,,,,,,,,,,,,,,,,,,ahsaer12,1,0x0378,C:\Users\admin\Desktop\FINALTasksLogfiles\,2021_Jun_11_1201,GoNoGo,2020.1.3,59.99657756446725,
DRÜCKEN SIE IM FOLGENDEN BITTE SO SCHNELL SIE KÖNNEN. BITTE ZEIGEN SIE IHRE MAXIMAL MÖGLICHE LEISTUNG!,200,Go,go,4,0,0,0,0,1,1,2,5,1,,,,,,83.57546148647907,84.07545641202614,84.05876776189689,None,4,1,0.04583175704556197,84.05876776189689,None,None,None,1,84.12545796935865,None,84.12545796935865,None,,,,,,,,,,,,,,,,,,,,,,,,,,,,,,,,,,,,,,,,,,,,,,,,,,,,,,ahsaer12,1,0x0378,C:\Users\admin\Desktop\FINALTasksLogfiles\,2021_Jun_11_1201,GoNoGo,2020.1.3,59.99657756446725,
DRÜCKEN SIE IM FOLGENDEN BITTE SO SCHNELL SIE KÖNNEN. BITTE ZEIGEN SIE IHRE MAXIMAL MÖGLICHE LEISTUNG!,200,Go,go,4,0,0,0,0,1,2,0,6,0,,,,,,85.12544957026421,85.62541019951004,85.60874149722986,None,4,1,0.023809682125829568,85.60874149722986,None,None,None,1,85.65881584671115,None,85.65881584671115,None,,,,,,,,,,,,,,,,,,,,,,,,,,,,,,,,,,,,,,,,,,,,,,,,,,,,,,ahsaer12,1,0x0378,C:\Users\admin\Desktop\FINALTasksLogfiles\,2021_Jun_11_1201,GoNoGo,2020.1.3,59.99657756446725,
DRÜCKEN SIE IM FOLGENDEN BITTE SO SCHNELL SIE KÖNNEN. BITTE ZEIGEN SIE IHRE MAXIMAL MÖGLICHE LEISTUNG!,200,Go,go,4,0,0,0,0,1,2,1,7,0,,,,,,86.65874410444849,87.15878172539124,87.14211057337525,87.24201394879583,4,1,0.15448068925797998,87.14211057337525,None,87.24201394879583,None,1,87.32537110872636,None,87.32537110872636,None,,,,,,,,,,,,,,,,,,,,,,,,,,,,,,,,,,,,,,,,,,,,,,,,,,,,,,ahsaer12,1,0x0378,C:\Users\admin\Desktop\FINALTasksLogfiles\,2021_Jun_11_1201,GoNoGo,2020.1.3,59.99657756446725,
DRÜCKEN SIE IM FOLGENDEN BITTE SO SCHNELL SIE KÖNNEN. BITTE ZEIGEN SIE IHRE MAXIMAL MÖGLICHE LEISTUNG!,200,NoGo,nogo,None,0,0,0,0,1,2,2,8,2,,,,,,88.32543165219704,88.82546087404535,88.80879427153832,88.908742092166,4,0,0.08677244159207476,88.80879427153832,None,88.908742092166,None,1,88.92540379520142,None,88.92540379520142,None,,,,,,,,,,,,,,,,,,,,,,,,,,,,,,,,,,,,,,,,,,,,,,,,,,,,,,ahsaer12,1,0x0378,C:\Users\admin\Desktop\FINALTasksLogfiles\,2021_Jun_11_1201,GoNoGo,2020.1.3,59.99657756446725,
DRÜCKEN SIE IM FOLGENDEN BITTE SO SCHNELL SIE KÖNNEN. BITTE ZEIGEN SIE IHRE MAXIMAL MÖGLICHE LEISTUNG!,200,Go,go,4,0,0,0,0,1,3,0,9,0,,,,,,89.92549058584063,90.42545086512473,90.40877201393869,90.508767079471,4,1,0.14973905064289283,90.40877201393869,None,90.508767079471,None,1,90.57539464368801,None,90.57539464368801,None,,,,,,,,,,,,,,,,,,,,,,,,,,,,,,,,,,,,,,,,,,,,,,,,,,,,,,ahsaer12,1,0x0378,C:\Users\admin\Desktop\FINALTasksLogfiles\,2021_Jun_11_1201,GoNoGo,2020.1.3,59.99657756446725,
DRÜCKEN SIE IM FOLGENDEN BITTE SO SCHNELL SIE KÖNNEN. BITTE ZEIGEN SIE IHRE MAXIMAL MÖGLICHE LEISTUNG!,200,Go,go,4,0,0,0,0,1,3,1,10,1,,,,,,91.57548213425252,92.07539411874495,92.05877126151972,None,4,1,0.002730405525653623,92.05877126151972,None,None,None,1,92.09206877038378,None,92.09206877038378,None,,,,,,,,,,,,,,,,,,,,,,,,,,,,,,,,,,,,,,,,,,,,,,,,,,,,,,ahsaer12,1,0x0378,C:\Users\admin\Desktop\FINALTasksLogfiles\,2021_Jun_11_1201,GoNoGo,2020.1.3,59.99657756446725,
DRÜCKEN SIE IM FOLGENDEN BITTE SO SCHNELL SIE KÖNNEN. BITTE ZEIGEN SIE IHRE MAXIMAL MÖGLICHE LEISTUNG!,200,NoGo,nogo,None,0,0,0,0,1,3,2,11,2,,,,,,93.09214471219275,93.59199895291295,93.57533235040682,None,4,0,0.03509736474916281,93.57533235040682,None,None,None,1,93.64207645205533,None,93.64207645205533,None,,,,,,,,,,,,,,,,,,,,,,,,,,,,,,,,,,,,,,,,,,,,,,,,,,,,,,ahsaer12,1,0x0378,C:\Users\admin\Desktop\FINALTasksLogfiles\,2021_Jun_11_1201,GoNoGo,2020.1.3,59.99657756446725,
DRÜCKEN SIE IM FOLGENDEN BITTE SO SCHNELL SIE KÖNNEN. BITTE ZEIGEN SIE IHRE MAXIMAL MÖGLICHE LEISTUNG!,200,Go,go,4,0,0,0,0,1,4,0,12,1,,,,,,94.6421474943927,95.14205632922494,95.12543137222656,None,4,1,0.013075289829430403,95.12543137222656,None,None,None,1,95.15872993097764,None,95.15872993097764,None,,,,,,,,,,,,,,,,,,,,,,,,,,,,,,,,,,,,,,,,,,,,,,,,,,,,,,ahsaer12,1,0x0378,C:\Users\admin\Desktop\FINALTasksLogfiles\,2021_Jun_11_1201,GoNoGo,2020.1.3,59.99657756446725,
DRÜCKEN SIE IM FOLGENDEN BITTE SO SCHNELL SIE KÖNNEN. BITTE ZEIGEN SIE IHRE MAXIMAL MÖGLICHE LEISTUNG!,200,NoGo,nogo,None,0,0,0,0,1,4,1,13,2,,,,,,96.15880482290049,96.65880919742813,96.64214924420412,96.74212086226544,None,1,,96.64214924420412,None,96.74212086226544,None,0.9,97.34206325847754,None,97.34206325847754,None,,,,,,,,,,,,,,,,,,,,,,,,,,,,,,,,,,,,,,,,,,,,,,,,,,,,,,ahsaer12,1,0x0378,C:\Users\admin\Desktop\FINALTasksLogfiles\,2021_Jun_11_1201,GoNoGo,2020.1.3,59.99657756446725,
DRÜCKEN SIE IM FOLGENDEN BITTE SO SCHNELL SIE KÖNNEN. BITTE ZEIGEN SIE IHRE MAXIMAL MÖGLICHE LEISTUNG!,200,Go,go,4,0,0,0,0,1,4,2,14,1,,,,,,98.24203494653102,98.74210791366204,98.72543186217445,98.82542797759288,None,0,,98.72543186217445,None,98.82542797759288,None,0.9,99.42537562323923,None,99.42537562323923,None,,,,,,,,,,,,,,,,,,,,,,,,,,,,,,,,,,,,,,,,,,,,,,,,,,,,,,ahsaer12,1,0x0378,C:\Users\admin\Desktop\FINALTasksLogfiles\,2021_Jun_11_1201,GoNoGo,2020.1.3,59.99657756446725,
DRÜCKEN SIE IM FOLGENDEN BITTE SO SCHNELL SIE KÖNNEN. BITTE ZEIGEN SIE IHRE MAXIMAL MÖGLICHE LEISTUNG!,200,Go,go,4,1,0,0,0,1,,,,,0,0,0,1,,,,,,,,,,,,,1,115.92531560471252,None,115.92531560471252,None,100.3753317204746,None,201,211,115.158688285469,115.6588056978062,115.64213139612912,115.74210756369939,4,1,0.240051010498064,115.64213139612912,None,115.74210756369939,None,115.64213139612912,None,False,None,None,None,None,None,None,None,None,,,,,,,,,,,,,,,,,,,,,,,,,,,,ahsaer12,1,0x0378,C:\Users\admin\Desktop\FINALTasksLogfiles\,2021_Jun_11_1201,GoNoGo,2020.1.3,59.99657756446725,
DRÜCKEN SIE IM FOLGENDEN BITTE SO SCHNELL SIE KÖNNEN. BITTE ZEIGEN SIE IHRE MAXIMAL MÖGLICHE LEISTUNG!,200,NoGo,nogo,None,2,0,0,0,1,,,,,0,1,1,2,,,,,,,,,,,,,0.9,118.14200558469838,None,118.14200558469838,None,,,202,0,116.95878669485501,117.4587599227425,117.42541026950312,117.52542493292094,None,1,,117.42541026950312,None,117.52542493292094,None,117.42541026950312,None,False,None,None,None,None,None,None,None,None,,,,,,,,,,,,,,,,,,,,,,,,,,,,ahsaer12,1,0x0378,C:\Users\admin\Desktop\FINALTasksLogfiles\,2021_Jun_11_1201,GoNoGo,2020.1.3,59.99657756446725,
DRÜCKEN SIE IM FOLGENDEN BITTE SO SCHNELL SIE KÖNNEN. BITTE ZEIGEN SIE IHRE MAXIMAL MÖGLICHE LEISTUNG!,200,Go,go,4,1,0,0,0,1,,,,,0,2,2,0,,,,,,,,,,,,,1,119.70860847657605,None,119.70860847657605,None,,,201,211,119.05863162657988,119.55869514472943,119.54197884758196,119.64202780730102,4,1,0.12427684674275952,119.54197884758196,None,119.64202780730102,None,119.54197884758196,None,False,None,None,None,None,None,None,None,None,,,,,,,,,,,,,,,,,,,,,,,,,,,,ahsaer12,1,0x0378,C:\Users\admin\Desktop\FINALTasksLogfiles\,2021_Jun_11_1201,GoNoGo,2020.1.3,59.99657756446725,
DRÜCKEN SIE IM FOLGENDEN BITTE SO SCHNELL SIE KÖNNEN. BITTE ZEIGEN SIE IHRE MAXIMAL MÖGLICHE LEISTUNG!,200,NoGo,nogo,None,2,0,0,0,1,,,,,1,0,3,2,,,,,,,,,,,,,0.9,121.90860665677246,None,121.90860665677246,None,,,202,0,120.72538811689174,121.22537429338263,121.19205718663306,121.2920767495234,None,1,,121.19205718663306,None,121.2920767495234,None,121.19205718663306,None,False,None,None,None,None,None,None,None,None,,,,,,,,,,,,,,,,,,,,,,,,,,,,ahsaer12,1,0x0378,C:\Users\admin\Desktop\FINALTasksLogfiles\,2021_Jun_11_1201,GoNoGo,2020.1.3,59.99657756446725,
DRÜCKEN SIE IM FOLGENDEN BITTE SO SCHNELL SIE KÖNNEN. BITTE ZEIGEN SIE IHRE MAXIMAL MÖGLICHE LEISTUNG!,200,Go,go,4,1,0,0,0,1,,,,,1,1,4,0,,,,,,,,,,,,,1,123.50870303637748,None,123.50870303637748,None,,,201,211,122.8253527357083,123.32541310419674,123.29207744944779,123.3920361189048,4,1,0.1791418295542826,123.29207744944779,None,123.3920361189048,None,123.29207744944779,None,False,None,None,None,None,None,None,None,None,,,,,,,,,,,,,,,,,,,,,,,,,,,,ahsaer12,1,0x0378,C:\Users\admin\Desktop\FINALTasksLogfiles\,2021_Jun_11_1201,GoNoGo,2020.1.3,59.99657756446725,
DRÜCKEN SIE IM FOLGENDEN BITTE SO SCHNELL SIE KÖNNEN. BITTE ZEIGEN SIE IHRE MAXIMAL MÖGLICHE LEISTUNG!,200,NoGo,nogo,None,2,0,0,0,1,,,,,1,2,5,2,,,,,,,,,,,,,0.9,125.70864487265044,None,125.70864487265044,None,,,202,0,124.52537733805457,125.02530647069761,124.99197571541936,125.09207331989273,None,1,,124.99197571541936,None,125.09207331989273,None,124.99197571541936,None,False,None,None,None,None,None,None,None,None,,,,,,,,,,,,,,,,,,,,,,,,,,,,ahsaer12,1,0x0378,C:\Users\admin\Desktop\FINALTasksLogfiles\,2021_Jun_11_1201,GoNoGo,2020.1.3,59.99657756446725,
DRÜCKEN SIE IM FOLGENDEN BITTE SO SCHNELL SIE KÖNNEN. BITTE ZEIGEN SIE IHRE MAXIMAL MÖGLICHE LEISTUNG!,200,Go,go,4,1,0,0,0,1,,,,,2,0,6,0,,,,,,,,,,,,,1,127.27543289456298,None,127.27543289456298,None,,,201,211,126.62542384803874,127.12537712807716,127.09208451868471,127.19198824406794,4,1,0.1470898363604647,127.09208451868471,None,127.19198824406794,None,127.09208451868471,None,False,None,None,None,None,None,None,None,None,,,,,,,,,,,,,,,,,,,,,,,,,,,,ahsaer12,1,0x0378,C:\Users\admin\Desktop\FINALTasksLogfiles\,2021_Jun_11_1201,GoNoGo,2020.1.3,59.99657756446725,
DRÜCKEN SIE IM FOLGENDEN BITTE SO SCHNELL SIE KÖNNEN. BITTE ZEIGEN SIE IHRE MAXIMAL MÖGLICHE LEISTUNG!,200,NoGo,nogo,None,2,0,0,0,1,,,,,2,1,7,2,,,,,,,,,,,,,0.9,129.49207772941736,None,129.49207772941736,None,,,202,0,128.29204000348636,128.79211612027666,128.77541557143104,128.87540083802014,None,1,,128.77541557143104,None,128.87540083802014,None,128.77541557143104,None,False,None,None,None,None,None,None,None,None,,,,,,,,,,,,,,,,,,,,,,,,,,,,ahsaer12,1,0x0378,C:\Users\admin\Desktop\FINALTasksLogfiles\,2021_Jun_11_1201,GoNoGo,2020.1.3,59.99657756446725,
DRÜCKEN SIE IM FOLGENDEN BITTE SO SCHNELL SIE KÖNNEN. BITTE ZEIGEN SIE IHRE MAXIMAL MÖGLICHE LEISTUNG!,200,NoGo,nogo,None,2,0,0,0,1,,,,,2,2,8,2,,,,,,,,,,,,,1,131.04197062346884,None,131.04197062346884,None,,,202,220,130.39199762305634,130.8920506423383,130.87541168685038,130.9754092021176,4,0,0.1277327240259183,130.87541168685038,None,130.9754092021176,None,130.87541168685038,None,False,None,None,None,None,None,None,None,None,,,,,,,,,,,,,,,,,,,,,,,,,,,,ahsaer12,1,0x0378,C:\Users\admin\Desktop\FINALTasksLogfiles\,2021_Jun_11_1201,GoNoGo,2020.1.3,59.99657756446725,
DRÜCKEN SIE IM FOLGENDEN BITTE SO SCHNELL SIE KÖNNEN. BITTE ZEIGEN SIE IHRE MAXIMAL MÖGLICHE LEISTUNG!,200,Go,go,4,1,0,0,0,1,,,,,3,0,9,1,,,,,,,,,,,,,1,132.8087641747843,None,132.8087641747843,None,,,201,211,132.05869531970984,132.55878823468902,132.52537138869593,132.6254535948301,4,1,0.23568628123484814,132.52537138869593,None,132.6254535948301,None,132.52537138869593,None,False,None,None,None,None,None,None,None,None,,,,,,,,,,,,,,,,,,,,,,,,,,,,ahsaer12,1,0x0378,C:\Users\admin\Desktop\FINALTasksLogfiles\,2021_Jun_11_1201,GoNoGo,2020.1.3,59.99657756446725,
DRÜCKEN SIE IM FOLGENDEN BITTE SO SCHNELL SIE KÖNNEN. BITTE ZEIGEN SIE IHRE MAXIMAL MÖGLICHE LEISTUNG!,200,Go,go,4,1,0,0,0,1,,,,,3,1,10,1,,,,,,,,,,,,,0.9,135.00863496871898,None,135.00863496871898,None,,,201,0,133.8086353886738,134.30882524319804,134.29216319019997,134.39215965558196,None,0,,134.29216319019997,None,134.39215965558196,None,134.29216319019997,None,False,None,None,None,None,None,None,None,None,,,,,,,,,,,,,,,,,,,,,,,,,,,,ahsaer12,1,0x0378,C:\Users\admin\Desktop\FINALTasksLogfiles\,2021_Jun_11_1201,GoNoGo,2020.1.3,59.99657756446725,
DRÜCKEN SIE IM FOLGENDEN BITTE SO SCHNELL SIE KÖNNEN. BITTE ZEIGEN SIE IHRE MAXIMAL MÖGLICHE LEISTUNG!,200,Go,go,4,1,0,0,0,1,,,,,3,2,11,1,,,,,,,,,,,,,0.9,137.10867027991026,None,137.10867027991026,None,,,201,0,135.90863570363945,136.4088255581637,136.39214845678907,136.49215612096305,None,0,,136.39214845678907,None,136.49215612096305,None,136.39214845678907,None,False,None,None,None,None,None,None,None,None,,,,,,,,,,,,,,,,,,,,,,,,,,,,ahsaer12,1,0x0378,C:\Users\admin\Desktop\FINALTasksLogfiles\,2021_Jun_11_1201,GoNoGo,2020.1.3,59.99657756446725,
DRÜCKEN SIE IM FOLGENDEN BITTE SO SCHNELL SIE KÖNNEN. BITTE ZEIGEN SIE IHRE MAXIMAL MÖGLICHE LEISTUNG!,200,Go,go,4,1,0,0,0,1,,,,,4,0,12,1,,,,,,,,,,,,,1,138.69196287180512,None,138.69196287180512,None,,,201,211,138.0087816029045,138.50872438407532,138.49205813153094,138.59208399374165,4,1,0.1599624980444787,138.49205813153094,None,138.59208399374165,None,138.49205813153094,None,False,None,None,None,None,None,None,None,None,,,,,,,,,,,,,,,,,,,,,,,,,,,,ahsaer12,1,0x0378,C:\Users\admin\Desktop\FINALTasksLogfiles\,2021_Jun_11_1201,GoNoGo,2020.1.3,59.99657756446725,
DRÜCKEN SIE IM FOLGENDEN BITTE SO SCHNELL SIE KÖNNEN. BITTE ZEIGEN SIE IHRE MAXIMAL MÖGLICHE LEISTUNG!,200,Go,go,4,1,0,0,0,1,,,,,4,1,13,1,,,,,,,,,,,,,1,140.35869906430617,None,140.35869906430617,None,,,201,211,139.6920283147465,140.19204598784017,140.17536258714517,140.2753027086037,4,1,0.13667810926654056,140.17536258714517,None,140.2753027086037,None,140.17536258714517,None,False,None,None,None,None,None,None,None,None,,,,,,,,,,,,,,,,,,,,,,,,,,,,ahsaer12,1,0x0378,C:\Users\admin\Desktop\FINALTasksLogfiles\,2021_Jun_11_1201,GoNoGo,2020.1.3,59.99657756446725,
DRÜCKEN SIE IM FOLGENDEN BITTE SO SCHNELL SIE KÖNNEN. BITTE ZEIGEN SIE IHRE MAXIMAL MÖGLICHE LEISTUNG!,200,Go,go,4,1,0,0,0,1,,,,,4,2,14,1,,,,,,,,,,,,,1,141.94192306359764,None,141.94192306359764,None,,,201,211,141.35869136513702,141.8586985393631,141.84202598749744,None,4,1,0.06594723759008048,141.84202598749744,None,None,None,141.84202598749744,None,False,None,None,None,None,None,None,None,None,,,,,,,,,,,,,,,,,,,,,,,,,,,,ahsaer12,1,0x0378,C:\Users\admin\Desktop\FINALTasksLogfiles\,2021_Jun_11_1201,GoNoGo,2020.1.3,59.99657756446725,
DRÜCKEN SIE IM FOLGENDEN BITTE SO SCHNELL SIE KÖNNEN. BITTE ZEIGEN SIE IHRE MAXIMAL MÖGLICHE LEISTUNG!,200,Go,go,4,1,0,0,0,1,,,,,5,0,15,0,,,,,,,,,,,,,1,143.52535214077216,None,143.52535214077216,None,,,201,211,142.94204205076494,143.4420642733685,143.4253574252025,None,4,1,0.05365656313915679,143.4253574252025,None,None,None,143.4253574252025,None,False,None,None,None,None,None,None,None,None,,,,,,,,,,,,,,,,,,,,,,,,,,,,ahsaer12,1,0x0378,C:\Users\admin\Desktop\FINALTasksLogfiles\,2021_Jun_11_1201,GoNoGo,2020.1.3,59.99657756446725,
DRÜCKEN SIE IM FOLGENDEN BITTE SO SCHNELL SIE KÖNNEN. BITTE ZEIGEN SIE IHRE MAXIMAL MÖGLICHE LEISTUNG!,200,NoGo,nogo,None,2,0,0,0,1,,,,,5,1,16,2,,,,,,,,,,,,,1,145.19196479659695,None,145.19196479659695,None,,,202,220,144.54210343414525,145.0420780618815,145.00872700879245,145.10872837364514,4,0,0.13627460278439685,145.00872700879245,None,145.10872837364514,None,145.00872700879245,None,False,None,None,None,None,None,None,None,None,,,,,,,,,,,,,,,,,,,,,,,,,,,,ahsaer12,1,0x0378,C:\Users\admin\Desktop\FINALTasksLogfiles\,2021_Jun_11_1201,GoNoGo,2020.1.3,59.99657756446725,
DRÜCKEN SIE IM FOLGENDEN BITTE SO SCHNELL SIE KÖNNEN. BITTE ZEIGEN SIE IHRE MAXIMAL MÖGLICHE LEISTUNG!,200,Go,go,4,1,0,0,0,1,,,,,5,2,17,1,,,,,,,,,,,,,0.9,147.40863062918743,None,147.40863062918743,None,,,201,0,146.20863699849997,146.70869596714056,146.69208045912274,146.79207237499486,None,0,,146.69208045912274,None,146.79207237499486,None,146.69208045912274,None,False,None,None,None,None,None,None,None,None,,,,,,,,,,,,,,,,,,,,,,,,,,,,ahsaer12,1,0x0378,C:\Users\admin\Desktop\FINALTasksLogfiles\,2021_Jun_11_1201,GoNoGo,2020.1.3,59.99657756446725,
DRÜCKEN SIE IM FOLGENDEN BITTE SO SCHNELL SIE KÖNNEN. BITTE ZEIGEN SIE IHRE MAXIMAL MÖGLICHE LEISTUNG!,200,NoGo,nogo,None,2,0,0,0,1,,,,,6,0,18,2,,,,,,,,,,,,,1,149.02528967250964,None,149.02528967250964,None,,,202,220,148.32529481695474,148.82543742657435,148.80878377267072,148.90873999239193,4,0,0.17517010790379572,148.80878377267072,None,148.90873999239193,None,148.80878377267072,None,False,None,None,None,None,None,None,None,None,,,,,,,,,,,,,,,,,,,,,,,,,,,,ahsaer12,1,0x0378,C:\Users\admin\Desktop\FINALTasksLogfiles\,2021_Jun_11_1201,GoNoGo,2020.1.3,59.99657756446725,
DRÜCKEN SIE IM FOLGENDEN BITTE SO SCHNELL SIE KÖNNEN. BITTE ZEIGEN SIE IHRE MAXIMAL MÖGLICHE LEISTUNG!,200,NoGo,nogo,None,2,0,0,0,1,,,,,6,1,19,2,,,,,,,,,,,,,1,150.67532811586352,None,150.67532811586352,None,,,202,220,150.0254125092615,150.5253524907339,150.50866139086975,150.60871769979622,4,0,0.12726727422523254,150.50866139086975,None,150.60871769979622,None,150.50866139086975,None,False,None,None,None,None,None,None,None,None,,,,,,,,,,,,,,,,,,,,,,,,,,,,ahsaer12,1,0x0378,C:\Users\admin\Desktop\FINALTasksLogfiles\,2021_Jun_11_1201,GoNoGo,2020.1.3,59.99657756446725,
DRÜCKEN SIE IM FOLGENDEN BITTE SO SCHNELL SIE KÖNNEN. BITTE ZEIGEN SIE IHRE MAXIMAL MÖGLICHE LEISTUNG!,200,Go,go,4,1,0,0,0,1,,,,,6,2,20,1,,,,,,,,,,,,,1,152.3587050136648,None,152.3587050136648,None,,,201,211,151.6919863192761,152.19204633780282,152.17535418805164,152.27540279780897,4,1,0.14656349312735983,152.17535418805164,None,152.27540279780897,None,152.17535418805164,None,False,None,None,None,None,None,None,None,None,,,,,,,,,,,,,,,,,,,,,,,,,,,,ahsaer12,1,0x0378,C:\Users\admin\Desktop\FINALTasksLogfiles\,2021_Jun_11_1201,GoNoGo,2020.1.3,59.99657756446725,
DRÜCKEN SIE IM FOLGENDEN BITTE SO SCHNELL SIE KÖNNEN. BITTE ZEIGEN SIE IHRE MAXIMAL MÖGLICHE LEISTUNG!,200,Go,go,4,1,0,0,0,1,,,,,7,0,21,1,,,,,,,,,,,,,1,154.0919564324995,None,154.0919564324995,None,,,201,211,153.35872706128703,153.85873213573996,153.84202948712027,153.94205814902944,4,1,0.20585199886136252,153.84202948712027,None,153.94205814902944,None,153.84202948712027,None,False,None,None,None,None,None,None,None,None,,,,,,,,,,,,,,,,,,,,,,,,,,,,ahsaer12,1,0x0378,C:\Users\admin\Desktop\FINALTasksLogfiles\,2021_Jun_11_1201,GoNoGo,2020.1.3,59.99657756446725,
DRÜCKEN SIE IM FOLGENDEN BITTE SO SCHNELL SIE KÖNNEN. BITTE ZEIGEN SIE IHRE MAXIMAL MÖGLICHE LEISTUNG!,200,Go,go,4,1,0,0,0,1,,,,,7,1,22,1,,,,,,,,,,,,,1,155.77528678532053,None,155.77528678532053,None,,,201,211,155.09201172653593,155.59209799223208,155.5754397888195,155.67542470544595,4,1,0.15540353972755838,155.5754397888195,None,155.67542470544595,None,155.5754397888195,None,False,None,None,None,None,None,None,None,None,,,,,,,,,,,,,,,,,,,,,,,,,,,,ahsaer12,1,0x0378,C:\Users\admin\Desktop\FINALTasksLogfiles\,2021_Jun_11_1201,GoNoGo,2020.1.3,59.99657756446725,
DRÜCKEN SIE IM FOLGENDEN BITTE SO SCHNELL SIE KÖNNEN. BITTE ZEIGEN SIE IHRE MAXIMAL MÖGLICHE LEISTUNG!,200,NoGo,nogo,None,2,0,0,0,1,,,,,7,2,23,2,,,,,,,,,,,,,1,157.4419760828796,None,157.4419760828796,None,,,202,220,156.79199923288343,157.29198715918483,157.2586501045862,157.35867596679782,4,0,0.14221031261786266,157.2586501045862,None,157.35867596679782,None,157.2586501045862,None,False,None,None,None,None,None,None,None,None,,,,,,,,,,,,,,,,,,,,,,,,,,,,ahsaer12,1,0x0378,C:\Users\admin\Desktop\FINALTasksLogfiles\,2021_Jun_11_1201,GoNoGo,2020.1.3,59.99657756446725,
DRÜCKEN SIE IM FOLGENDEN BITTE SO SCHNELL SIE KÖNNEN. BITTE ZEIGEN SIE IHRE MAXIMAL MÖGLICHE LEISTUNG!,200,Go,go,4,1,0,0,0,1,,,,,8,0,24,0,,,,,,,,,,,,,1,159.0752964792755,None,159.0752964792755,None,,,201,211,158.4587210769323,158.95874574927166,158.9420773969532,159.04208541108892,4,1,0.08577049965151673,158.9420773969532,None,159.04208541108892,None,158.9420773969532,None,False,None,None,None,None,None,None,None,None,,,,,,,,,,,,,,,,,,,,,,,,,,,,ahsaer12,1,0x0378,C:\Users\admin\Desktop\FINALTasksLogfiles\,2021_Jun_11_1201,GoNoGo,2020.1.3,59.99657756446725,
DRÜCKEN SIE IM FOLGENDEN BITTE SO SCHNELL SIE KÖNNEN. BITTE ZEIGEN SIE IHRE MAXIMAL MÖGLICHE LEISTUNG!,200,Go,go,4,1,0,0,0,1,,,,,8,1,25,1,,,,,,,,,,,,,0.9,161.27531145765988,None,161.27531145765988,None,,,201,0,160.07535387308508,160.57531135267072,160.55868954533253,160.65868706060064,None,0,,160.55868954533253,None,160.65868706060064,None,160.55868954533253,None,False,None,None,None,None,None,None,None,None,,,,,,,,,,,,,,,,,,,,,,,,,,,,ahsaer12,1,0x0378,C:\Users\admin\Desktop\FINALTasksLogfiles\,2021_Jun_11_1201,GoNoGo,2020.1.3,59.99657756446725,
DRÜCKEN SIE IM FOLGENDEN BITTE SO SCHNELL SIE KÖNNEN. BITTE ZEIGEN SIE IHRE MAXIMAL MÖGLICHE LEISTUNG!,200,NoGo,nogo,None,2,0,0,0,1,,,,,8,2,26,2,,,,,,,,,,,,,0.9,163.39194512871836,None,163.39194512871836,None,,,202,0,162.19198369455899,162.69200451731285,162.6753400145799,162.77534837867734,None,1,,162.6753400145799,None,162.77534837867734,None,162.6753400145799,None,False,None,None,None,None,None,None,None,None,,,,,,,,,,,,,,,,,,,,,,,,,,,,ahsaer12,1,0x0378,C:\Users\admin\Desktop\FINALTasksLogfiles\,2021_Jun_11_1201,GoNoGo,2020.1.3,59.99657756446725,
DRÜCKEN SIE IM FOLGENDEN BITTE SO SCHNELL SIE KÖNNEN. BITTE ZEIGEN SIE IHRE MAXIMAL MÖGLICHE LEISTUNG!,200,Go,go,4,1,0,0,0,1,,,,,9,0,27,1,,,,,,,,,,,,,1,164.94194091167265,None,164.94194091167265,None,,,201,211,164.30867300961654,164.80870153154046,164.7920419282782,164.89205834150835,4,1,0.11471727774187457,164.7920419282782,None,164.89205834150835,None,164.7920419282782,None,False,None,None,None,None,None,None,None,None,,,,,,,,,,,,,,,,,,,,,,,,,,,,ahsaer12,1,0x0378,C:\Users\admin\Desktop\FINALTasksLogfiles\,2021_Jun_11_1201,GoNoGo,2020.1.3,59.99657756446725,
DRÜCKEN SIE IM FOLGENDEN BITTE SO SCHNELL SIE KÖNNEN. BITTE ZEIGEN SIE IHRE MAXIMAL MÖGLICHE LEISTUNG!,200,Go,go,4,1,0,0,0,1,,,,,9,1,28,1,,,,,,,,,,,,,1,166.6920745097641,None,166.6920745097641,None,,,201,211,165.94207704699056,166.4420555243123,166.42538157259787,166.52537698809192,4,1,0.22031383915236802,166.42538157259787,None,166.52537698809192,None,166.42538157259787,None,False,None,None,None,None,None,None,None,None,,,,,,,,,,,,,,,,,,,,,,,,,,,,ahsaer12,1,0x0378,C:\Users\admin\Desktop\FINALTasksLogfiles\,2021_Jun_11_1201,GoNoGo,2020.1.3,59.99657756446725,
DRÜCKEN SIE IM FOLGENDEN BITTE SO SCHNELL SIE KÖNNEN. BITTE ZEIGEN SIE IHRE MAXIMAL MÖGLICHE LEISTUNG!,200,Go,go,4,1,0,0,0,1,,,,,9,2,29,0,,,,,,,,,,,,,1,168.50860784664383,None,168.50860784664383,None,,,201,211,167.6920566616891,168.19194764844633,168.17542208072882,168.27530165871667,4,1,0.29133272976469016,168.17542208072882,None,168.27530165871667,None,168.17542208072882,None,False,None,None,None,None,None,None,None,None,,,,,,,,,,,,,,,,,,,,,,,,,,,,ahsaer12,1,0x0378,C:\Users\admin\Desktop\FINALTasksLogfiles\,2021_Jun_11_1201,GoNoGo,2020.1.3,59.99657756446725,
DRÜCKEN SIE IM FOLGENDEN BITTE SO SCHNELL SIE KÖNNEN. BITTE ZEIGEN SIE IHRE MAXIMAL MÖGLICHE LEISTUNG!,200,Go,go,4,1,0,0,0,1,,,,,10,0,30,0,,,,,,,,,,,,,1,170.041937027092,None,170.041937027092,None,,,201,211,169.50870023667994,170.00860487196496,169.99209085300208,None,4,1,0.020560632536216872,169.99209085300208,None,None,None,169.99209085300208,None,False,None,None,None,None,None,None,None,None,,,,,,,,,,,,,,,,,,,,,,,,,,,,ahsaer12,1,0x0378,C:\Users\admin\Desktop\FINALTasksLogfiles\,2021_Jun_11_1201,GoNoGo,2020.1.3,59.99657756446725,
DRÜCKEN SIE IM FOLGENDEN BITTE SO SCHNELL SIE KÖNNEN. BITTE ZEIGEN SIE IHRE MAXIMAL MÖGLICHE LEISTUNG!,200,Go,go,4,1,0,0,0,1,,,,,10,1,31,0,,,,,,,,,,,,,1,171.57527285682318,None,171.57527285682318,None,,,201,211,171.0420010701846,171.54203064199555,171.52536333956414,None,4,1,0.01433725372680783,171.52536333956414,None,None,None,171.52536333956414,None,False,None,None,None,None,None,None,None,None,,,,,,,,,,,,,,,,,,,,,,,,,,,,ahsaer12,1,0x0378,C:\Users\admin\Desktop\FINALTasksLogfiles\,2021_Jun_11_1201,GoNoGo,2020.1.3,59.99657756446725,
DRÜCKEN SIE IM FOLGENDEN BITTE SO SCHNELL SIE KÖNNEN. BITTE ZEIGEN SIE IHRE MAXIMAL MÖGLICHE LEISTUNG!,200,NoGo,nogo,None,2,0,0,0,1,,,,,10,2,32,2,,,,,,,,,,,,,1,173.12540232535957,None,173.12540232535957,None,,,202,220,172.59203919857282,173.09207576962854,173.07539411874495,None,4,0,0.002341947420973156,173.07539411874495,None,None,None,173.07539411874495,None,False,None,None,None,None,None,None,None,None,,,,,,,,,,,,,,,,,,,,,,,,,,,,ahsaer12,1,0x0378,C:\Users\admin\Desktop\FINALTasksLogfiles\,2021_Jun_11_1201,GoNoGo,2020.1.3,59.99657756446725,
DRÜCKEN SIE IM FOLGENDEN BITTE SO SCHNELL SIE KÖNNEN. BITTE ZEIGEN SIE IHRE MAXIMAL MÖGLICHE LEISTUNG!,200,NoGo,nogo,None,2,0,0,0,1,,,,,11,0,33,2,,,,,,,,,,,,,1,174.69200766697395,None,174.69200766697395,None,,,202,220,174.12538202754877,174.62532865830417,174.60866590538262,None,4,0,0.03700815866977791,174.60866590538262,None,None,None,174.60866590538262,None,False,None,None,None,None,None,None,None,None,,,,,,,,,,,,,,,,,,,,,,,,,,,,ahsaer12,1,0x0378,C:\Users\admin\Desktop\FINALTasksLogfiles\,2021_Jun_11_1201,GoNoGo,2020.1.3,59.99657756446725,
DRÜCKEN SIE IM FOLGENDEN BITTE SO SCHNELL SIE KÖNNEN. BITTE ZEIGEN SIE IHRE MAXIMAL MÖGLICHE LEISTUNG!,200,Go,go,4,1,0,0,0,1,,,,,11,1,34,0,,,,,,,,,,,,,1,176.3419950158377,None,176.3419950158377,None,,,201,211,175.7086679701597,176.2086016523126,176.17537518578683,176.2753317554707,4,1,0.1202683790552328,176.17537518578683,None,176.2753317554707,None,176.17537518578683,None,False,None,None,None,None,None,None,None,None,,,,,,,,,,,,,,,,,,,,,,,,,,,,ahsaer12,1,0x0378,C:\Users\admin\Desktop\FINALTasksLogfiles\,2021_Jun_11_1201,GoNoGo,2020.1.3,59.99657756446725,
DRÜCKEN SIE IM FOLGENDEN BITTE SO SCHNELL SIE KÖNNEN. BITTE ZEIGEN SIE IHRE MAXIMAL MÖGLICHE LEISTUNG!,200,Go,go,4,1,0,0,0,1,,,,,11,2,35,1,,,,,,,,,,,,,1,178.02526482518897,None,178.02526482518897,None,,,201,211,177.3419964156874,177.8420434856107,177.82537758302806,177.9254181436536,4,1,0.15623889963535476,177.82537758302806,None,177.9254181436536,None,177.82537758302806,None,False,None,None,None,None,None,None,None,None,,,,,,,,,,,,,,,,,,,,,,,,,,,,ahsaer12,1,0x0378,C:\Users\admin\Desktop\FINALTasksLogfiles\,2021_Jun_11_1201,GoNoGo,2020.1.3,59.99657756446725,
DRÜCKEN SIE IM FOLGENDEN BITTE SO SCHNELL SIE KÖNNEN. BITTE ZEIGEN SIE IHRE MAXIMAL MÖGLICHE LEISTUNG!,200,Go,go,4,1,0,0,0,1,,,,,12,0,36,0,,,,,,,,,,,,,1,179.74190423562868,None,179.74190423562868,None,,,201,211,179.02533516760286,179.52524225262368,179.50861449592685,179.60865295677922,4,1,0.18503134436923574,179.50861449592685,None,179.60865295677922,None,179.50861449592685,None,False,None,None,None,None,None,None,None,None,,,,,,,,,,,,,,,,,,,,,,,,,,,,ahsaer12,1,0x0378,C:\Users\admin\Desktop\FINALTasksLogfiles\,2021_Jun_11_1201,GoNoGo,2020.1.3,59.99657756446725,
DRÜCKEN SIE IM FOLGENDEN BITTE SO SCHNELL SIE KÖNNEN. BITTE ZEIGEN SIE IHRE MAXIMAL MÖGLICHE LEISTUNG!,200,Go,go,4,1,0,0,0,1,,,,,12,1,37,1,,,,,,,,,,,,,1,181.42535007599508,None,181.42535007599508,None,,,201,211,180.7420274223432,181.241886562535,181.22521961006532,181.32532106412327,4,1,0.16436712300492218,181.22521961006532,None,181.32532106412327,None,181.22521961006532,None,False,None,None,None,None,None,None,None,None,,,,,,,,,,,,,,,,,,,,,,,,,,,,ahsaer12,1,0x0378,C:\Users\admin\Desktop\FINALTasksLogfiles\,2021_Jun_11_1201,GoNoGo,2020.1.3,59.99657756446725,
DRÜCKEN SIE IM FOLGENDEN BITTE SO SCHNELL SIE KÖNNEN. BITTE ZEIGEN SIE IHRE MAXIMAL MÖGLICHE LEISTUNG!,200,Go,go,4,1,0,0,0,1,,,,,12,2,38,0,,,,,,,,,,,,,1,183.12534528151173,None,183.12534528151173,None,,,201,211,182.4419235885416,182.94200425484178,182.9086595010731,183.00867276464305,4,1,0.17693846718611894,182.9086595010731,None,183.00867276464305,None,182.9086595010731,None,False,None,None,None,None,None,None,None,None,,,,,,,,,,,,,,,,,,,,,,,,,,,,ahsaer12,1,0x0378,C:\Users\admin\Desktop\FINALTasksLogfiles\,2021_Jun_11_1201,GoNoGo,2020.1.3,59.99657756446725,
DRÜCKEN SIE IM FOLGENDEN BITTE SO SCHNELL SIE KÖNNEN. BITTE ZEIGEN SIE IHRE MAXIMAL MÖGLICHE LEISTUNG!,200,NoGo,nogo,None,2,0,0,0,1,,,,,13,0,39,2,,,,,,,,,,,,,1,184.8086063418068,None,184.8086063418068,None,,,202,220,184.14204198077277,184.64203200684824,184.6087030013814,184.70870751589518,4,0,0.15387840421408328,184.6087030013814,None,184.70870751589518,None,184.6087030013814,None,False,None,None,None,None,None,None,None,None,,,,,,,,,,,,,,,,,,,,,,,,,,,,ahsaer12,1,0x0378,C:\Users\admin\Desktop\FINALTasksLogfiles\,2021_Jun_11_1201,GoNoGo,2020.1.3,59.99657756446725,
DRÜCKEN SIE IM FOLGENDEN BITTE SO SCHNELL SIE KÖNNEN. BITTE ZEIGEN SIE IHRE MAXIMAL MÖGLICHE LEISTUNG!,200,Go,go,4,1,0,0,0,1,,,,,13,1,40,0,,,,,,,,,,,,,1,186.49202838473866,None,186.49202838473866,None,,,201,211,185.82531598967125,186.32541555393254,186.29212084476694,186.3921211597335,4,1,0.16342747434737248,186.29212084476694,None,186.3921211597335,None,186.29212084476694,None,False,None,None,None,None,None,None,None,None,,,,,,,,,,,,,,,,,,,,,,,,,,,,ahsaer12,1,0x0378,C:\Users\admin\Desktop\FINALTasksLogfiles\,2021_Jun_11_1201,GoNoGo,2020.1.3,59.99657756446725,
DRÜCKEN SIE IM FOLGENDEN BITTE SO SCHNELL SIE KÖNNEN. BITTE ZEIGEN SIE IHRE MAXIMAL MÖGLICHE LEISTUNG!,200,Go,go,4,1,0,0,0,1,,,,,13,2,41,0,,,,,,,,,,,,,1,188.2586340063226,None,188.2586340063226,None,,,201,211,187.49206548073835,187.99203555896565,187.97536825653424,188.07536822153725,4,1,0.24909543505691545,187.97536825653424,None,188.07536822153725,None,187.97536825653424,None,False,None,None,None,None,None,None,None,None,,,,,,,,,,,,,,,,,,,,,,,,,,,,ahsaer12,1,0x0378,C:\Users\admin\Desktop\FINALTasksLogfiles\,2021_Jun_11_1201,GoNoGo,2020.1.3,59.99657756446725,
DRÜCKEN SIE IM FOLGENDEN BITTE SO SCHNELL SIE KÖNNEN. BITTE ZEIGEN SIE IHRE MAXIMAL MÖGLICHE LEISTUNG!,200,NoGo,nogo,None,2,0,0,0,1,,,,,14,0,42,2,,,,,,,,,,,,,0.9,190.4585922908218,None,190.4585922908218,None,,,202,0,189.2752558136608,189.77541067195943,189.74207256747377,189.84207568213787,None,1,,189.74207256747377,None,189.84207568213787,None,189.74207256747377,None,False,None,None,None,None,None,None,None,None,,,,,,,,,,,,,,,,,,,,,,,,,,,,ahsaer12,1,0x0378,C:\Users\admin\Desktop\FINALTasksLogfiles\,2021_Jun_11_1201,GoNoGo,2020.1.3,59.99657756446725,
DRÜCKEN SIE IM FOLGENDEN BITTE SO SCHNELL SIE KÖNNEN. BITTE ZEIGEN SIE IHRE MAXIMAL MÖGLICHE LEISTUNG!,200,Go,go,4,1,0,0,0,1,,,,,14,1,43,0,,,,,,,,,,,,,1,192.0585889311842,None,192.0585889311842,None,,,201,211,191.37545210749067,191.87531894685162,191.85864534509983,191.95864635999078,4,1,0.1578259784682814,191.85864534509983,None,191.95864635999078,None,191.85864534509983,None,False,None,None,None,None,None,None,None,None,,,,,,,,,,,,,,,,,,,,,,,,,,,,ahsaer12,1,0x0378,C:\Users\admin\Desktop\FINALTasksLogfiles\,2021_Jun_11_1201,GoNoGo,2020.1.3,59.99657756446725,
DRÜCKEN SIE IM FOLGENDEN BITTE SO SCHNELL SIE KÖNNEN. BITTE ZEIGEN SIE IHRE MAXIMAL MÖGLICHE LEISTUNG!,200,Go,go,4,1,0,0,0,1,,,,,14,2,44,1,,,,,,,,,,,,,1,193.79203037952357,None,193.79203037952357,None,,,201,211,193.05864352529625,193.55868814548376,193.5420309919582,193.64193191764298,4,1,0.20648543054630863,193.5420309919582,None,193.64193191764298,None,193.5420309919582,None,False,None,None,None,None,None,None,None,None,,,,,,,,,,,,,,,,,,,,,,,,,,,,ahsaer12,1,0x0378,C:\Users\admin\Desktop\FINALTasksLogfiles\,2021_Jun_11_1201,GoNoGo,2020.1.3,59.99657756446725,
DRÜCKEN SIE IM FOLGENDEN BITTE SO SCHNELL SIE KÖNNEN. BITTE ZEIGEN SIE IHRE MAXIMAL MÖGLICHE LEISTUNG!,200,NoGo,nogo,None,2,0,0,0,1,,,,,15,0,45,2,,,,,,,,,,,,,0.9,196.00857582509798,None,196.00857582509798,None,,,202,0,194.80876802436887,195.30864501263568,195.29198295963852,195.39192483090756,None,1,,195.29198295963852,None,195.39192483090756,None,195.29198295963852,None,False,None,None,None,None,None,None,None,None,,,,,,,,,,,,,,,,,,,,,,,,,,,,ahsaer12,1,0x0378,C:\Users\admin\Desktop\FINALTasksLogfiles\,2021_Jun_11_1201,GoNoGo,2020.1.3,59.99657756446725,
DRÜCKEN SIE IM FOLGENDEN BITTE SO SCHNELL SIE KÖNNEN. BITTE ZEIGEN SIE IHRE MAXIMAL MÖGLICHE LEISTUNG!,200,NoGo,nogo,None,2,0,0,0,1,,,,,15,1,46,2,,,,,,,,,,,,,1,197.47535548291125,None,197.47535548291125,None,,,202,220,196.90871409518513,197.40868977280843,197.39201932071683,None,4,0,0.041447779856753186,197.39201932071683,None,None,None,197.39201932071683,None,False,None,None,None,None,None,None,None,None,,,,,,,,,,,,,,,,,,,,,,,,,,,,ahsaer12,1,0x0378,C:\Users\admin\Desktop\FINALTasksLogfiles\,2021_Jun_11_1201,GoNoGo,2020.1.3,59.99657756446725,
DRÜCKEN SIE IM FOLGENDEN BITTE SO SCHNELL SIE KÖNNEN. BITTE ZEIGEN SIE IHRE MAXIMAL MÖGLICHE LEISTUNG!,200,Go,go,4,1,0,0,0,1,,,,,15,2,47,1,,,,,,,,,,,,,1,199.15856544871713,None,199.15856544871713,None,,,201,211,198.49191534693,198.99205830651226,198.9587251014982,199.0587233166907,4,1,0.16271110160778335,198.9587251014982,None,199.0587233166907,None,198.9587251014982,None,False,None,None,None,None,None,None,None,None,,,,,,,,,,,,,,,,,,,,,,,,,,,,ahsaer12,1,0x0378,C:\Users\admin\Desktop\FINALTasksLogfiles\,2021_Jun_11_1201,GoNoGo,2020.1.3,59.99657756446725,
DRÜCKEN SIE IM FOLGENDEN BITTE SO SCHNELL SIE KÖNNEN. BITTE ZEIGEN SIE IHRE MAXIMAL MÖGLICHE LEISTUNG!,200,Go,go,4,1,0,0,0,1,,,,,16,0,48,0,,,,,,,,,,,,,1,200.92523546335542,None,200.92523546335542,None,,,201,211,200.1586623882622,200.65867341207286,200.64199701062262,200.74200992422993,4,1,0.24841475846824324,200.64199701062262,None,200.74200992422993,None,200.64199701062262,None,False,None,None,None,None,None,None,None,None,,,,,,,,,,,,,,,,,,,,,,,,,,,,ahsaer12,1,0x0378,C:\Users\admin\Desktop\FINALTasksLogfiles\,2021_Jun_11_1201,GoNoGo,2020.1.3,59.99657756446725,
DRÜCKEN SIE IM FOLGENDEN BITTE SO SCHNELL SIE KÖNNEN. BITTE ZEIGEN SIE IHRE MAXIMAL MÖGLICHE LEISTUNG!,200,Go,go,4,1,0,0,0,1,,,,,16,1,49,1,,,,,,,,,,,,,1,202.64187907334235,None,202.64187907334235,None,,,201,211,201.92532365384432,202.4253049308636,202.40864707741275,202.50863864332314,4,1,0.18774705148007342,202.40864707741275,None,202.50863864332314,None,202.40864707741275,None,False,None,None,None,None,None,None,None,None,,,,,,,,,,,,,,,,,,,,,,,,,,,,ahsaer12,1,0x0378,C:\Users\admin\Desktop\FINALTasksLogfiles\,2021_Jun_11_1201,GoNoGo,2020.1.3,59.99657756446725,
DRÜCKEN SIE IM FOLGENDEN BITTE SO SCHNELL SIE KÖNNEN. BITTE ZEIGEN SIE IHRE MAXIMAL MÖGLICHE LEISTUNG!,200,Go,go,4,1,0,0,0,1,,,,,16,2,50,1,,,,,,,,,,,,,1,204.20857365533175,None,204.20857365533175,None,,,201,211,203.64203060699947,204.14205527933882,204.12539707592532,None,4,1,0.0419510255815112,204.12539707592532,None,None,None,204.12539707592532,None,False,None,None,None,None,None,None,None,None,,,,,,,,,,,,,,,,,,,,,,,,,,,,ahsaer12,1,0x0378,C:\Users\admin\Desktop\FINALTasksLogfiles\,2021_Jun_11_1201,GoNoGo,2020.1.3,59.99657756446725,
DRÜCKEN SIE IM FOLGENDEN BITTE SO SCHNELL SIE KÖNNEN. BITTE ZEIGEN SIE IHRE MAXIMAL MÖGLICHE LEISTUNG!,200,Go,go,4,1,0,0,0,1,,,,,17,0,51,0,,,,,,,,,,,,,1,205.90861960537586,None,205.90861960537586,None,,,201,211,205.20861355102898,205.7086032271427,205.6919376745218,205.79203912858065,4,1,0.17542348057759227,205.6919376745218,None,205.79203912858065,None,205.6919376745218,None,False,None,None,None,None,None,None,None,None,,,,,,,,,,,,,,,,,,,,,,,,,,,,ahsaer12,1,0x0378,C:\Users\admin\Desktop\FINALTasksLogfiles\,2021_Jun_11_1201,GoNoGo,2020.1.3,59.99657756446725,
DRÜCKEN SIE IM FOLGENDEN BITTE SO SCHNELL SIE KÖNNEN. BITTE ZEIGEN SIE IHRE MAXIMAL MÖGLICHE LEISTUNG!,200,Go,go,4,1,0,0,0,1,,,,,17,1,52,0,,,,,,,,,,,,,1,207.50857320038085,None,207.50857320038085,None,,,201,211,206.9086766492237,207.40858303432015,207.39191818162453,None,4,1,0.08238671459275793,207.39191818162453,None,207.4919637467101,None,207.39191818162453,None,False,None,None,None,None,None,None,None,None,,,,,,,,,,,,,,,,,,,,,,,,,,,,ahsaer12,1,0x0378,C:\Users\admin\Desktop\FINALTasksLogfiles\,2021_Jun_11_1201,GoNoGo,2020.1.3,59.99657756446725,
DRÜCKEN SIE IM FOLGENDEN BITTE SO SCHNELL SIE KÖNNEN. BITTE ZEIGEN SIE IHRE MAXIMAL MÖGLICHE LEISTUNG!,200,NoGo,nogo,None,2,0,0,0,1,,,,,17,2,53,2,,,,,,,,,,,,,0.9,209.70864172299025,None,209.70864172299025,None,,,202,0,208.5252643002459,209.02538521220504,208.992040808399,209.09204322313872,None,1,,208.992040808399,None,209.09204322313872,None,208.992040808399,None,False,None,None,None,None,None,None,None,None,,,,,,,,,,,,,,,,,,,,,,,,,,,,ahsaer12,1,0x0378,C:\Users\admin\Desktop\FINALTasksLogfiles\,2021_Jun_11_1201,GoNoGo,2020.1.3,59.99657756446725,
DRÜCKEN SIE IM FOLGENDEN BITTE SO SCHNELL SIE KÖNNEN. BITTE ZEIGEN SIE IHRE MAXIMAL MÖGLICHE LEISTUNG!,200,Go,go,4,1,0,0,0,1,,,,,18,0,54,0,,,,,,,,,,,,,1,211.35875470830524,None,211.35875470830524,None,,,201,211,210.62528946253224,211.1253879769074,211.10870737590994,211.20856805593576,4,1,0.20458548545502708,211.10870737590994,None,211.19191055244755,None,211.10870737590994,None,False,None,None,None,None,None,None,None,None,,,,,,,,,,,,,,,,,,,,,,,,,,,,ahsaer12,1,0x0378,C:\Users\admin\Desktop\FINALTasksLogfiles\,2021_Jun_11_1201,GoNoGo,2020.1.3,59.99657756446725,
DRÜCKEN SIE IM FOLGENDEN BITTE SO SCHNELL SIE KÖNNEN. BITTE ZEIGEN SIE IHRE MAXIMAL MÖGLICHE LEISTUNG!,200,NoGo,nogo,None,2,0,0,0,1,,,,,18,1,55,2,,,,,,,,,,,,,1,213.04194297645063,None,213.04194297645063,None,,,202,220,212.37529322462615,212.8753721411149,212.84203648636503,212.94203155189734,4,0,0.1522895755688296,212.84203648636503,None,212.94203155189734,None,212.84203648636503,None,False,None,None,None,None,None,None,None,None,,,,,,,,,,,,,,,,,,,,,,,,,,,,ahsaer12,1,0x0378,C:\Users\admin\Desktop\FINALTasksLogfiles\,2021_Jun_11_1201,GoNoGo,2020.1.3,59.99657756446725,
DRÜCKEN SIE IM FOLGENDEN BITTE SO SCHNELL SIE KÖNNEN. BITTE ZEIGEN SIE IHRE MAXIMAL MÖGLICHE LEISTUNG!,200,Go,go,4,1,0,0,0,1,,,,,18,2,56,1,,,,,,,,,,,,,1,214.7252687797627,None,214.7252687797627,None,,,201,211,214.05867642174871,214.55870039416277,214.52531994424407,214.62536715415263,4,1,0.1579218681263228,214.52531994424407,None,214.62536715415263,None,214.52531994424407,None,False,None,None,None,None,None,None,None,None,,,,,,,,,,,,,,,,,,,,,,,,,,,,ahsaer12,1,0x0378,C:\Users\admin\Desktop\FINALTasksLogfiles\,2021_Jun_11_1201,GoNoGo,2020.1.3,59.99657756446725,
DRÜCKEN SIE IM FOLGENDEN BITTE SO SCHNELL SIE KÖNNEN. BITTE ZEIGEN SIE IHRE MAXIMAL MÖGLICHE LEISTUNG!,200,NoGo,nogo,None,2,0,0,0,1,,,,,19,0,57,2,,,,,,,,,,,,,0.9,216.94190206586245,None,216.94190206586245,None,,,202,0,215.74202357275772,216.24207554215354,216.22527350425298,216.32542605280014,None,1,,216.22527350425298,None,216.32542605280014,None,216.22527350425298,None,False,None,None,None,None,None,None,None,None,,,,,,,,,,,,,,,,,,,,,,,,,,,,ahsaer12,1,0x0378,C:\Users\admin\Desktop\FINALTasksLogfiles\,2021_Jun_11_1201,GoNoGo,2020.1.3,59.99657756446725,
DRÜCKEN SIE IM FOLGENDEN BITTE SO SCHNELL SIE KÖNNEN. BITTE ZEIGEN SIE IHRE MAXIMAL MÖGLICHE LEISTUNG!,200,Go,go,4,1,0,0,0,1,,,,,19,1,58,1,,,,,,,,,,,,,1,218.52533359277277,None,218.52533359277277,None,,,201,211,217.85867544185385,218.35862662211912,218.3252944669921,218.42528673282595,4,1,0.15397604368354223,218.3252944669921,None,218.42528673282595,None,218.3252944669921,None,False,None,None,None,None,None,None,None,None,,,,,,,,,,,,,,,,,,,,,,,,,,,,ahsaer12,1,0x0378,C:\Users\admin\Desktop\FINALTasksLogfiles\,2021_Jun_11_1201,GoNoGo,2020.1.3,59.99657756446725,
DRÜCKEN SIE IM FOLGENDEN BITTE SO SCHNELL SIE KÖNNEN. BITTE ZEIGEN SIE IHRE MAXIMAL MÖGLICHE LEISTUNG!,200,NoGo,nogo,None,2,0,0,0,1,,,,,19,2,59,2,,,,,,,,,,,,,0.9,220.7251984373488,None,220.7251984373488,None,,,202,0,219.52533744235734,220.02526797484916,220.00860487196496,220.10861008640222,None,1,,220.00860487196496,None,220.10861008640222,None,220.00860487196496,None,False,None,None,None,None,None,None,None,None,,,,,,,,,,,,,,,,,,,,,,,,,,,,ahsaer12,1,0x0378,C:\Users\admin\Desktop\FINALTasksLogfiles\,2021_Jun_11_1201,GoNoGo,2020.1.3,59.99657756446725,
DRÜCKEN SIE IM FOLGENDEN BITTE SO SCHNELL SIE KÖNNEN. BITTE ZEIGEN SIE IHRE MAXIMAL MÖGLICHE LEISTUNG!,200,Go,go,4,1,0,0,0,1,,,,,20,0,60,0,,,,,,,,,,,,,1,222.29192731563944,None,222.29192731563944,None,,,201,211,221.64199351099978,222.1419548401709,222.1086552315337,222.20855020786075,4,1,0.1485155825939728,222.1086552315337,None,222.20855020786075,None,222.1086552315337,None,False,None,None,None,None,None,None,None,None,,,,,,,,,,,,,,,,,,,,,,,,,,,,ahsaer12,1,0x0378,C:\Users\admin\Desktop\FINALTasksLogfiles\,2021_Jun_11_1201,GoNoGo,2020.1.3,59.99657756446725,
DRÜCKEN SIE IM FOLGENDEN BITTE SO SCHNELL SIE KÖNNEN. BITTE ZEIGEN SIE IHRE MAXIMAL MÖGLICHE LEISTUNG!,200,NoGo,nogo,None,2,0,0,0,1,,,,,20,1,61,2,,,,,,,,,,,,,1,224.00856252653193,None,224.00856252653193,None,,,202,220,223.30866111089927,223.80861474090034,223.7919519879788,223.89194845335987,4,0,0.1812433529039481,223.7919519879788,None,223.89194845335987,None,223.7919519879788,None,False,None,None,None,None,None,None,None,None,,,,,,,,,,,,,,,,,,,,,,,,,,,,ahsaer12,1,0x0378,C:\Users\admin\Desktop\FINALTasksLogfiles\,2021_Jun_11_1201,GoNoGo,2020.1.3,59.99657756446725,
DRÜCKEN SIE IM FOLGENDEN BITTE SO SCHNELL SIE KÖNNEN. BITTE ZEIGEN SIE IHRE MAXIMAL MÖGLICHE LEISTUNG!,200,Go,go,4,1,0,0,0,1,,,,,20,2,62,0,,,,,,,,,,,,,1,225.69189707890018,None,225.69189707890018,None,,,201,211,225.02537576322447,225.5253395421305,225.49199583824884,225.59195765736695,4,1,0.15418042164219514,225.49199583824884,None,225.59195765736695,None,225.49199583824884,None,False,None,None,None,None,None,None,None,None,,,,,,,,,,,,,,,,,,,,,,,,,,,,ahsaer12,1,0x0378,C:\Users\admin\Desktop\FINALTasksLogfiles\,2021_Jun_11_1201,GoNoGo,2020.1.3,59.99657756446725,
DRÜCKEN SIE IM FOLGENDEN BITTE SO SCHNELL SIE KÖNNEN. BITTE ZEIGEN SIE IHRE MAXIMAL MÖGLICHE LEISTUNG!,200,Go,go,4,1,0,0,0,1,,,,,21,0,63,0,,,,,,,,,,,,,1,227.42524963682717,None,227.42524963682717,None,,,201,211,226.69206996025514,227.19190390316453,227.17537798548437,227.27527506158458,4,1,0.20876858430801803,227.17537798548437,None,227.27527506158458,None,227.17537798548437,None,False,None,None,None,None,None,None,None,None,,,,,,,,,,,,,,,,,,,,,,,,,,,,ahsaer12,1,0x0378,C:\Users\admin\Desktop\FINALTasksLogfiles\,2021_Jun_11_1201,GoNoGo,2020.1.3,59.99657756446725,
DRÜCKEN SIE IM FOLGENDEN BITTE SO SCHNELL SIE KÖNNEN. BITTE ZEIGEN SIE IHRE MAXIMAL MÖGLICHE LEISTUNG!,200,Go,go,4,1,0,0,0,1,,,,,21,1,64,0,,,,,,,,,,,,,1,229.24188551264797,None,229.24188551264797,None,,,201,211,228.44192393850335,228.94203960102914,228.90870219646877,229.00870181151004,4,1,0.2913393790486225,228.90870219646877,None,229.00870181151004,None,228.90870219646877,None,False,None,None,None,None,None,None,None,None,,,,,,,,,,,,,,,,,,,,,,,,,,,,ahsaer12,1,0x0378,C:\Users\admin\Desktop\FINALTasksLogfiles\,2021_Jun_11_1201,GoNoGo,2020.1.3,59.99657756446725,
DRÜCKEN SIE IM FOLGENDEN BITTE SO SCHNELL SIE KÖNNEN. BITTE ZEIGEN SIE IHRE MAXIMAL MÖGLICHE LEISTUNG!,200,Go,go,4,1,0,0,0,1,,,,,21,2,65,1,,,,,,,,,,,,,1,230.97522092242434,None,230.97522092242434,None,,,201,211,230.2420086993625,230.7420211230219,230.72534997100593,230.82535973495305,4,1,0.20274293417423905,230.72534997100593,None,230.82535973495305,None,230.72534997100593,None,False,None,None,None,None,None,None,None,None,,,,,,,,,,,,,,,,,,,,,,,,,,,,ahsaer12,1,0x0378,C:\Users\admin\Desktop\FINALTasksLogfiles\,2021_Jun_11_1201,GoNoGo,2020.1.3,59.99657756446725,
DRÜCKEN SIE IM FOLGENDEN BITTE SO SCHNELL SIE KÖNNEN. BITTE ZEIGEN SIE IHRE MAXIMAL MÖGLICHE LEISTUNG!,200,Go,go,4,1,0,0,0,1,,,,,22,0,66,1,,,,,,,,,,,,,1,232.7586201828135,None,232.7586201828135,None,,,201,211,231.97533501011912,232.47532783589304,232.45856254403043,232.55865139944672,4,1,0.25348711141487,232.45856254403043,None,232.55865139944672,None,232.45856254403043,None,False,None,None,None,None,None,None,None,None,,,,,,,,,,,,,,,,,,,,,,,,,,,,ahsaer12,1,0x0378,C:\Users\admin\Desktop\FINALTasksLogfiles\,2021_Jun_11_1201,GoNoGo,2020.1.3,59.99657756446725,
DRÜCKEN SIE IM FOLGENDEN BITTE SO SCHNELL SIE KÖNNEN. BITTE ZEIGEN SIE IHRE MAXIMAL MÖGLICHE LEISTUNG!,200,Go,go,4,1,0,0,0,1,,,,,22,1,67,0,,,,,,,,,,,,,1,234.42533537758027,None,234.42533537758027,None,,,201,211,233.75869437481197,234.25855001538093,234.24188446276094,234.34194357138585,4,1,0.14520458968581806,234.24188446276094,None,234.34194357138585,None,234.24188446276094,None,False,None,None,None,None,None,None,None,None,,,,,,,,,,,,,,,,,,,,,,,,,,,,ahsaer12,1,0x0378,C:\Users\admin\Desktop\FINALTasksLogfiles\,2021_Jun_11_1201,GoNoGo,2020.1.3,59.99657756446725,
DRÜCKEN SIE IM FOLGENDEN BITTE SO SCHNELL SIE KÖNNEN. BITTE ZEIGEN SIE IHRE MAXIMAL MÖGLICHE LEISTUNG!,200,Go,go,4,1,0,0,0,1,,,,,22,2,68,0,,,,,,,,,,,,,1,236.09188154057665,None,236.09188154057665,None,,,201,211,235.42532697848583,235.92532365384432,235.90863675352648,236.0087032113588,4,1,0.14641335931901267,235.90863675352648,None,236.0087032113588,None,235.90863675352648,None,False,None,None,None,None,None,None,None,None,,,,,,,,,,,,,,,,,,,,,,,,,,,,ahsaer12,1,0x0378,C:\Users\admin\Desktop\FINALTasksLogfiles\,2021_Jun_11_1201,GoNoGo,2020.1.3,59.99657756446725,
DRÜCKEN SIE IM FOLGENDEN BITTE SO SCHNELL SIE KÖNNEN. BITTE ZEIGEN SIE IHRE MAXIMAL MÖGLICHE LEISTUNG!,200,Go,go,4,1,0,0,0,1,,,,,23,0,69,1,,,,,,,,,,,,,1,237.77522274222792,None,237.77522274222792,None,,,201,211,237.0920407734029,237.59194225902775,237.5752788061809,237.67528157088327,4,1,0.15174713407122908,237.5752788061809,None,237.67528157088327,None,237.5752788061809,None,False,None,None,None,None,None,None,None,None,,,,,,,,,,,,,,,,,,,,,,,,,,,,ahsaer12,1,0x0378,C:\Users\admin\Desktop\FINALTasksLogfiles\,2021_Jun_11_1201,GoNoGo,2020.1.3,59.99657756446725,
DRÜCKEN SIE IM FOLGENDEN BITTE SO SCHNELL SIE KÖNNEN. BITTE ZEIGEN SIE IHRE MAXIMAL MÖGLICHE LEISTUNG!,200,NoGo,nogo,None,2,0,0,0,1,,,,,23,1,70,2,,,,,,,,,,,,,1,239.45857759240698,None,239.45857759240698,None,,,202,220,238.7919481383933,239.2919997578265,239.2753174070176,239.37537476583202,4,0,0.14464080048946926,239.2753174070176,None,239.37537476583202,None,239.2753174070176,None,False,None,None,None,None,None,None,None,None,,,,,,,,,,,,,,,,,,,,,,,,,,,,ahsaer12,1,0x0378,C:\Users\admin\Desktop\FINALTasksLogfiles\,2021_Jun_11_1201,GoNoGo,2020.1.3,59.99657756446725,
DRÜCKEN SIE IM FOLGENDEN BITTE SO SCHNELL SIE KÖNNEN. BITTE ZEIGEN SIE IHRE MAXIMAL MÖGLICHE LEISTUNG!,200,NoGo,nogo,None,2,0,0,0,1,,,,,23,2,71,2,,,,,,,,,,,,,0.9,241.6585134793213,None,241.6585134793213,None,,,202,0,240.45864373527365,240.95861031387813,240.94195246042727,241.04195382527996,None,1,,240.94195246042727,None,241.04195382527996,None,240.94195246042727,None,False,None,None,None,None,None,None,None,None,,,,,,,,,,,,,,,,,,,,,,,,,,,,ahsaer12,1,0x0378,C:\Users\admin\Desktop\FINALTasksLogfiles\,2021_Jun_11_1201,GoNoGo,2020.1.3,59.99657756446725,
DRÜCKEN SIE IM FOLGENDEN BITTE SO SCHNELL SIE KÖNNEN. BITTE ZEIGEN SIE IHRE MAXIMAL MÖGLICHE LEISTUNG!,200,NoGo,nogo,None,2,0,0,0,1,,,,,24,0,72,2,,,,,,,,,,,,,0.9,243.7585820369277,None,243.7585820369277,None,,,202,0,242.55862095273096,243.05865332423946,243.04197062346884,243.14195134054808,None,1,,243.04197062346884,None,243.14195134054808,None,243.04197062346884,None,False,None,None,None,None,None,None,None,None,,,,,,,,,,,,,,,,,,,,,,,,,,,,ahsaer12,1,0x0378,C:\Users\admin\Desktop\FINALTasksLogfiles\,2021_Jun_11_1201,GoNoGo,2020.1.3,59.99657756446725,
DRÜCKEN SIE IM FOLGENDEN BITTE SO SCHNELL SIE KÖNNEN. BITTE ZEIGEN SIE IHRE MAXIMAL MÖGLICHE LEISTUNG!,200,Go,go,4,1,0,0,0,1,,,,,24,1,73,1,,,,,,,,,,,,,1,245.35873301064476,None,245.35873301064476,None,,,201,211,244.67521612794098,245.17530169371275,245.15857104811312,245.25860250971982,4,1,0.16345687117609486,245.15857104811312,None,245.25860250971982,None,245.15857104811312,None,False,None,None,None,None,None,None,None,None,,,,,,,,,,,,,,,,,,,,,,,,,,,,ahsaer12,1,0x0378,C:\Users\admin\Desktop\FINALTasksLogfiles\,2021_Jun_11_1201,GoNoGo,2020.1.3,59.99657756446725,
DRÜCKEN SIE IM FOLGENDEN BITTE SO SCHNELL SIE KÖNNEN. BITTE ZEIGEN SIE IHRE MAXIMAL MÖGLICHE LEISTUNG!,200,NoGo,nogo,None,2,0,0,0,1,,,,,24,2,74,2,,,,,,,,,,,,,1,247.0585458858268,None,247.0585458858268,None,,,202,220,246.3753187718712,246.87527170194699,246.84194094666964,246.94193706208807,4,0,0.16900972230178013,246.84194094666964,None,246.94193706208807,None,246.84194094666964,None,False,None,None,None,None,None,None,None,None,,,,,,,,,,,,,,,,,,,,,,,,,,,,ahsaer12,1,0x0378,C:\Users\admin\Desktop\FINALTasksLogfiles\,2021_Jun_11_1201,GoNoGo,2020.1.3,59.99657756446725,
DRÜCKEN SIE IM FOLGENDEN BITTE SO SCHNELL SIE KÖNNEN. BITTE ZEIGEN SIE IHRE MAXIMAL MÖGLICHE LEISTUNG!,200,NoGo,nogo,None,2,0,0,0,1,,,,,25,0,75,2,,,,,,,,,,,,,0.9,249.25861580828587,None,249.25861580828587,None,,,202,0,248.0586974194839,248.55858525658005,248.5419330025261,248.64188397281396,None,1,,248.5419330025261,None,248.64188397281396,None,248.5419330025261,None,False,None,None,None,None,None,None,None,None,,,,,,,,,,,,,,,,,,,,,,,,,,,,ahsaer12,1,0x0378,C:\Users\admin\Desktop\FINALTasksLogfiles\,2021_Jun_11_1201,GoNoGo,2020.1.3,59.99657756446725,
DRÜCKEN SIE IM FOLGENDEN BITTE SO SCHNELL SIE KÖNNEN. BITTE ZEIGEN SIE IHRE MAXIMAL MÖGLICHE LEISTUNG!,200,Go,go,4,1,0,0,0,1,,,,,25,1,76,0,,,,,,,,,,,,,1,250.89190890762438,None,250.89190890762438,None,,,201,211,250.17530799303313,250.67534316424008,250.64200435983003,250.7419959257395,4,1,0.20791082681716944,250.64200435983003,None,250.7419959257395,None,250.64200435983003,None,False,None,None,None,None,None,None,None,None,,,,,,,,,,,,,,,,,,,,,,,,,,,,ahsaer12,1,0x0378,C:\Users\admin\Desktop\FINALTasksLogfiles\,2021_Jun_11_1201,GoNoGo,2020.1.3,59.99657756446725,
DRÜCKEN SIE IM FOLGENDEN BITTE SO SCHNELL SIE KÖNNEN. BITTE ZEIGEN SIE IHRE MAXIMAL MÖGLICHE LEISTUNG!,200,Go,go,4,1,0,0,0,1,,,,,25,2,77,1,,,,,,,,,,,,,1,252.6085945130817,None,252.6085945130817,None,,,201,211,251.8919421540395,252.39205186720665,252.3753940137558,252.47531243755384,4,1,0.19147099985275418,252.3753940137558,None,252.47531243755384,None,252.3753940137558,None,False,None,None,None,None,None,None,None,None,,,,,,,,,,,,,,,,,,,,,,,,,,,,ahsaer12,1,0x0378,C:\Users\admin\Desktop\FINALTasksLogfiles\,2021_Jun_11_1201,GoNoGo,2020.1.3,59.99657756446725,
DRÜCKEN SIE IM FOLGENDEN BITTE SO SCHNELL SIE KÖNNEN. BITTE ZEIGEN SIE IHRE MAXIMAL MÖGLICHE LEISTUNG!,200,Go,go,4,1,0,0,0,1,,,,,26,0,78,0,,,,,,,,,,,,,1,254.37531212258818,None,254.37531212258818,None,,,201,211,253.6085280202533,254.10868287855192,254.09201242646031,254.19187905584386,4,1,0.2448822394499075,254.09201242646031,None,254.19187905584386,None,254.09201242646031,None,False,None,None,None,None,None,None,None,None,,,,,,,,,,,,,,,,,,,,,,,,,,,,ahsaer12,1,0x0378,C:\Users\admin\Desktop\FINALTasksLogfiles\,2021_Jun_11_1201,GoNoGo,2020.1.3,59.99657756446725,
DRÜCKEN SIE IM FOLGENDEN BITTE SO SCHNELL SIE KÖNNEN. BITTE ZEIGEN SIE IHRE MAXIMAL MÖGLICHE LEISTUNG!,200,NoGo,nogo,None,2,0,0,0,1,,,,,26,1,79,2,,,,,,,,,,,,,1,256.0251993822467,None,256.0251993822467,None,,,202,220,255.39198117483102,255.8919932485287,255.8753518433041,255.97535460800555,4,0,0.104464083548919,255.8753518433041,None,255.97535460800555,None,255.8753518433041,None,False,None,None,None,None,None,None,None,None,,,,,,,,,,,,,,,,,,,,,,,,,,,,ahsaer12,1,0x0378,C:\Users\admin\Desktop\FINALTasksLogfiles\,2021_Jun_11_1201,GoNoGo,2020.1.3,59.99657756446725,
DRÜCKEN SIE IM FOLGENDEN BITTE SO SCHNELL SIE KÖNNEN. BITTE ZEIGEN SIE IHRE MAXIMAL MÖGLICHE LEISTUNG!,200,Go,go,4,1,0,0,0,1,,,,,26,2,80,1,,,,,,,,,,,,,1,257.8252015520129,None,257.8252015520129,None,,,201,211,257.0419986204488,257.54196519905327,257.52531469481073,257.6253062607202,4,1,0.26052450243241765,257.52531469481073,None,257.6253062607202,None,257.52531469481073,None,False,None,None,None,None,None,None,None,None,,,,,,,,,,,,,,,,,,,,,,,,,,,,ahsaer12,1,0x0378,C:\Users\admin\Desktop\FINALTasksLogfiles\,2021_Jun_11_1201,GoNoGo,2020.1.3,59.99657756446725,
DRÜCKEN SIE IM FOLGENDEN BITTE SO SCHNELL SIE KÖNNEN. BITTE ZEIGEN SIE IHRE MAXIMAL MÖGLICHE LEISTUNG!,200,Go,go,4,1,0,0,0,1,,,,,27,0,81,1,,,,,,,,,,,,,1,259.55851981363867,None,259.55851981363867,None,,,201,211,258.8252550962379,259.32529411702944,259.3085809695431,259.40862852941336,4,1,0.2152047401687014,259.3085809695431,None,259.40862852941336,None,259.3085809695431,None,False,None,None,None,None,None,None,None,None,,,,,,,,,,,,,,,,,,,,,,,,,,,,ahsaer12,1,0x0378,C:\Users\admin\Desktop\FINALTasksLogfiles\,2021_Jun_11_1201,GoNoGo,2020.1.3,59.99657756446725,
DRÜCKEN SIE IM FOLGENDEN BITTE SO SCHNELL SIE KÖNNEN. BITTE ZEIGEN SIE IHRE MAXIMAL MÖGLICHE LEISTUNG!,200,Go,go,4,1,0,0,0,1,,,,,27,1,82,0,,,,,,,,,,,,,1,261.2752810109432,None,261.2752810109432,None,,,201,211,260.5585929557501,261.0586316265799,261.0419128796966,261.14185055141843,4,1,0.1938328951218864,261.0419128796966,None,261.14185055141843,None,261.0419128796966,None,False,None,None,None,None,None,None,None,None,,,,,,,,,,,,,,,,,,,,,,,,,,,,ahsaer12,1,0x0378,C:\Users\admin\Desktop\FINALTasksLogfiles\,2021_Jun_11_1201,GoNoGo,2020.1.3,59.99657756446725,
DRÜCKEN SIE IM FOLGENDEN BITTE SO SCHNELL SIE KÖNNEN. BITTE ZEIGEN SIE IHRE MAXIMAL MÖGLICHE LEISTUNG!,200,Go,go,4,1,0,0,0,1,,,,,27,2,83,0,,,,,,,,,,,,,1,263.02516578587074,None,263.02516578587074,None,,,201,211,262.275271212,262.77520594403904,262.7585837867391,262.8585809520446,4,1,0.22619390498766734,262.7585837867391,None,262.8585809520446,None,262.7585837867391,None,False,None,None,None,None,None,None,None,None,,,,,,,,,,,,,,,,,,,,,,,,,,,,ahsaer12,1,0x0378,C:\Users\admin\Desktop\FINALTasksLogfiles\,2021_Jun_11_1201,GoNoGo,2020.1.3,59.99657756446725,
DRÜCKEN SIE IM FOLGENDEN BITTE SO SCHNELL SIE KÖNNEN. BITTE ZEIGEN SIE IHRE MAXIMAL MÖGLICHE LEISTUNG!,200,Go,go,4,1,0,0,0,1,,,,,28,0,84,0,,,,,,,,,,,,,1,264.77523044139707,None,264.77523044139707,None,,,201,211,264.0253313180174,264.5253815376018,264.50869148762376,264.6087047511928,4,1,0.23304056657525507,264.50869148762376,None,264.6087047511928,None,264.50869148762376,None,False,None,None,None,None,None,None,None,None,,,,,,,,,,,,,,,,,,,,,,,,,,,,ahsaer12,1,0x0378,C:\Users\admin\Desktop\FINALTasksLogfiles\,2021_Jun_11_1201,GoNoGo,2020.1.3,59.99657756446725,
DRÜCKEN SIE IM FOLGENDEN BITTE SO SCHNELL SIE KÖNNEN. BITTE ZEIGEN SIE IHRE MAXIMAL MÖGLICHE LEISTUNG!,200,Go,go,4,1,0,0,0,1,,,,,28,1,85,0,,,,,,,,,,,,,1,266.4919268956846,None,266.4919268956846,None,,,201,211,265.7753812751298,266.2752572135096,266.258586761418,266.3586336213639,4,1,0.18908250745153055,266.258586761418,None,266.3586336213639,None,266.258586761418,None,False,None,None,None,None,None,None,None,None,,,,,,,,,,,,,,,,,,,,,,,,,,,,ahsaer12,1,0x0378,C:\Users\admin\Desktop\FINALTasksLogfiles\,2021_Jun_11_1201,GoNoGo,2020.1.3,59.99657756446725,
DRÜCKEN SIE IM FOLGENDEN BITTE SO SCHNELL SIE KÖNNEN. BITTE ZEIGEN SIE IHRE MAXIMAL MÖGLICHE LEISTUNG!,200,Go,go,4,1,0,0,0,1,,,,,28,2,86,1,,,,,,,,,,,,,1,268.19185945795743,None,268.19185945795743,None,,,201,211,267.4919478934198,267.9919673163249,267.9753091129123,268.07530347852025,4,1,0.17343114545110438,267.9753091129123,None,268.07530347852025,None,267.9753091129123,None,False,None,None,None,None,None,None,None,None,,,,,,,,,,,,,,,,,,,,,,,,,,,,ahsaer12,1,0x0378,C:\Users\admin\Desktop\FINALTasksLogfiles\,2021_Jun_11_1201,GoNoGo,2020.1.3,59.99657756446725,
DRÜCKEN SIE IM FOLGENDEN BITTE SO SCHNELL SIE KÖNNEN. BITTE ZEIGEN SIE IHRE MAXIMAL MÖGLICHE LEISTUNG!,200,Go,go,4,1,0,0,0,1,,,,,29,0,87,0,,,,,,,,,,,,,1,269.9418999660893,None,269.9418999660893,None,,,201,211,269.19190250331576,269.69189847874986,269.67519548016753,269.7752486394347,4,1,0.22850925527654908,269.67519548016753,None,269.7752486394347,None,269.67519548016753,None,False,None,None,None,None,None,None,None,None,,,,,,,,,,,,,,,,,,,,,,,,,,,,ahsaer12,1,0x0378,C:\Users\admin\Desktop\FINALTasksLogfiles\,2021_Jun_11_1201,GoNoGo,2020.1.3,59.99657756446725,
DRÜCKEN SIE IM FOLGENDEN BITTE SO SCHNELL SIE KÖNNEN. BITTE ZEIGEN SIE IHRE MAXIMAL MÖGLICHE LEISTUNG!,200,Go,go,4,1,0,0,0,1,,,,,29,1,88,0,,,,,,,,,,,,,1,271.6252502667594,None,271.6252502667594,None,,,201,211,270.9419874566529,271.44196208438916,271.42528568293983,271.52538118763914,4,1,0.1623922859917002,271.42528568293983,None,271.52538118763914,None,271.42528568293983,None,False,None,None,None,None,None,None,None,None,,,,,,,,,,,,,,,,,,,,,,,,,,,,ahsaer12,1,0x0378,C:\Users\admin\Desktop\FINALTasksLogfiles\,2021_Jun_11_1201,GoNoGo,2020.1.3,59.99657756446725,
DRÜCKEN SIE IM FOLGENDEN BITTE SO SCHNELL SIE KÖNNEN. BITTE ZEIGEN SIE IHRE MAXIMAL MÖGLICHE LEISTUNG!,200,Go,go,4,1,0,0,0,1,,,,,29,2,89,0,,,,,,,,,,,,,1,273.27525301396327,None,273.27525301396327,None,,,201,211,272.62541194932146,273.12528543796634,273.1086076366664,273.20851451171075,4,1,0.12802704228306538,273.1086076366664,None,273.20851451171075,None,273.1086076366664,None,False,None,None,None,None,None,None,None,None,,,,,,,,,,,,,,,,,,,,,,,,,,,,ahsaer12,1,0x0378,C:\Users\admin\Desktop\FINALTasksLogfiles\,2021_Jun_11_1201,GoNoGo,2020.1.3,59.99657756446725,
DRÜCKEN SIE IM FOLGENDEN BITTE SO SCHNELL SIE KÖNNEN. BITTE ZEIGEN SIE IHRE MAXIMAL MÖGLICHE LEISTUNG!,200,Go,go,4,1,0,0,0,1,,,,,30,0,90,1,,,,,,,,,,,,,1,274.9419083651828,None,274.9419083651828,None,,,201,211,274.2752194175864,274.7753245812446,274.758670927341,274.85855645468655,4,1,0.14889879126531014,274.758670927341,None,274.85855645468655,None,274.758670927341,None,False,None,None,None,None,None,None,None,None,,,,,,,,,,,,,,,,,,,,,,,,,,,,ahsaer12,1,0x0378,C:\Users\admin\Desktop\FINALTasksLogfiles\,2021_Jun_11_1201,GoNoGo,2020.1.3,59.99657756446725,
DRÜCKEN SIE IM FOLGENDEN BITTE SO SCHNELL SIE KÖNNEN. BITTE ZEIGEN SIE IHRE MAXIMAL MÖGLICHE LEISTUNG!,200,Go,go,4,1,0,0,0,1,,,,,30,1,91,0,,,,,,,,,,,,,1,276.70863017423653,None,276.70863017423653,None,,,201,211,275.942001805106,276.44192953789934,276.4252888326,276.52528809767864,4,1,0.24728298053014441,276.4252888326,None,276.52528809767864,None,276.4252888326,None,False,None,None,None,None,None,None,None,None,,,,,,,,,,,,,,,,,,,,,,,,,,,,ahsaer12,1,0x0378,C:\Users\admin\Desktop\FINALTasksLogfiles\,2021_Jun_11_1201,GoNoGo,2020.1.3,59.99657756446725,
DRÜCKEN SIE IM FOLGENDEN BITTE SO SCHNELL SIE KÖNNEN. BITTE ZEIGEN SIE IHRE MAXIMAL MÖGLICHE LEISTUNG!,200,NoGo,nogo,None,2,0,0,0,1,,,,,30,2,92,2,,,,,,,,,,,,,1,278.4418773935231,None,278.4418773935231,None,,,202,220,277.725231683763,278.2251783145193,278.20851311186107,278.30857502018443,4,0,0.19013519391955924,278.20851311186107,None,278.30857502018443,None,278.20851311186107,None,False,None,None,None,None,None,None,None,None,,,,,,,,,,,,,,,,,,,,,,,,,,,,ahsaer12,1,0x0378,C:\Users\admin\Desktop\FINALTasksLogfiles\,2021_Jun_11_1201,GoNoGo,2020.1.3,59.99657756446725,
DRÜCKEN SIE IM FOLGENDEN BITTE SO SCHNELL SIE KÖNNEN. BITTE ZEIGEN SIE IHRE MAXIMAL MÖGLICHE LEISTUNG!,200,NoGo,nogo,None,2,0,0,0,1,,,,,31,0,93,2,,,,,,,,,,,,,1,280.1084550531232,None,280.1084550531232,None,,,202,220,279.4420691728401,279.9418933168063,279.9252249644878,280.02523472843495,4,0,0.14737365575092554,279.9252249644878,None,280.02523472843495,None,279.9252249644878,None,False,None,None,None,None,None,None,None,None,,,,,,,,,,,,,,,,,,,,,,,,,,,,ahsaer12,1,0x0378,C:\Users\admin\Desktop\FINALTasksLogfiles\,2021_Jun_11_1201,GoNoGo,2020.1.3,59.99657756446725,
DRÜCKEN SIE IM FOLGENDEN BITTE SO SCHNELL SIE KÖNNEN. BITTE ZEIGEN SIE IHRE MAXIMAL MÖGLICHE LEISTUNG!,200,Go,go,4,1,0,0,0,1,,,,,31,1,94,1,,,,,,,,,,,,,1,281.8584686141603,None,281.8584686141603,None,,,201,211,281.1251451031012,281.6252478170236,281.60857211549774,281.7084726912208,4,1,0.2010298689283445,281.60857211549774,None,281.7084726912208,None,281.60857211549774,None,False,None,None,None,None,None,None,None,None,,,,,,,,,,,,,,,,,,,,,,,,,,,,ahsaer12,1,0x0378,C:\Users\admin\Desktop\FINALTasksLogfiles\,2021_Jun_11_1201,GoNoGo,2020.1.3,59.99657756446725,
DRÜCKEN SIE IM FOLGENDEN BITTE SO SCHNELL SIE KÖNNEN. BITTE ZEIGEN SIE IHRE MAXIMAL MÖGLICHE LEISTUNG!,200,NoGo,nogo,None,2,0,0,0,1,,,,,31,2,95,2,,,,,,,,,,,,,1,283.5919401592546,None,283.5919401592546,None,,,202,220,282.87523915545717,283.3752942745132,283.3586217226475,283.4586384858394,4,0,0.19292019355725643,283.3586217226475,None,283.4586384858394,None,283.3586217226475,None,False,None,None,None,None,None,None,None,None,,,,,,,,,,,,,,,,,,,,,,,,,,,,ahsaer12,1,0x0378,C:\Users\admin\Desktop\FINALTasksLogfiles\,2021_Jun_11_1201,GoNoGo,2020.1.3,59.99657756446725,
DRÜCKEN SIE IM FOLGENDEN BITTE SO SCHNELL SIE KÖNNEN. BITTE ZEIGEN SIE IHRE MAXIMAL MÖGLICHE LEISTUNG!,200,NoGo,nogo,None,2,0,0,0,1,,,,,32,0,96,2,,,,,,,,,,,,,1,285.2253116501388,None,285.2253116501388,None,,,202,220,284.6086809537592,285.1086065867803,285.0753671716511,285.1752600482041,4,0,0.11319179226575216,285.0753671716511,None,285.1752600482041,None,285.0753671716511,None,False,None,None,None,None,None,None,None,None,,,,,,,,,,,,,,,,,,,,,,,,,,,,ahsaer12,1,0x0378,C:\Users\admin\Desktop\FINALTasksLogfiles\,2021_Jun_11_1201,GoNoGo,2020.1.3,59.99657756446725,
DRÜCKEN SIE IM FOLGENDEN BITTE SO SCHNELL SIE KÖNNEN. BITTE ZEIGEN SIE IHRE MAXIMAL MÖGLICHE LEISTUNG!,200,Go,go,4,1,0,0,0,1,,,,,32,1,97,0,,,,,,,,,,,,,1,286.9585508202945,None,286.9585508202945,None,,,201,211,286.24190651038316,286.7419749280043,286.70864417272605,286.808650787013,4,1,0.20690608517816145,286.70864417272605,None,286.808650787013,None,286.70864417272605,None,False,None,None,None,None,None,None,None,None,,,,,,,,,,,,,,,,,,,,,,,,,,,,ahsaer12,1,0x0378,C:\Users\admin\Desktop\FINALTasksLogfiles\,2021_Jun_11_1201,GoNoGo,2020.1.3,59.99657756446725,
DRÜCKEN SIE IM FOLGENDEN BITTE SO SCHNELL SIE KÖNNEN. BITTE ZEIGEN SIE IHRE MAXIMAL MÖGLICHE LEISTUNG!,200,Go,go,4,1,0,0,0,1,,,,,32,2,98,0,,,,,,,,,,,,,1,288.65850578015215,None,288.65850578015215,None,,,201,211,287.95862256255714,288.45861363851964,288.4419568349558,288.5419540002613,4,1,0.17758939698342147,288.4419568349558,None,288.5419540002613,None,288.4419568349558,None,False,None,None,None,None,None,None,None,None,,,,,,,,,,,,,,,,,,,,,,,,,,,,ahsaer12,1,0x0378,C:\Users\admin\Desktop\FINALTasksLogfiles\,2021_Jun_11_1201,GoNoGo,2020.1.3,59.99657756446725,
DRÜCKEN SIE IM FOLGENDEN BITTE SO SCHNELL SIE KÖNNEN. BITTE ZEIGEN SIE IHRE MAXIMAL MÖGLICHE LEISTUNG!,200,Go,go,4,1,0,0,0,1,,,,,33,0,99,0,,,,,,,,,,,,,1,290.35850693502744,None,290.35850693502744,None,,,201,211,289.6585691233204,290.15850490524645,290.1418390026638,290.24189356177976,4,1,0.1676088233880364,290.1418390026638,None,290.24189356177976,None,290.1418390026638,None,False,None,None,None,None,None,None,None,None,,,,,,,,,,,,,,,,,,,,,,,,,,,,ahsaer12,1,0x0378,C:\Users\admin\Desktop\FINALTasksLogfiles\,2021_Jun_11_1201,GoNoGo,2020.1.3,59.99657756446725,
DRÜCKEN SIE IM FOLGENDEN BITTE SO SCHNELL SIE KÖNNEN. BITTE ZEIGEN SIE IHRE MAXIMAL MÖGLICHE LEISTUNG!,200,Go,go,4,1,0,0,0,1,,,,,33,1,100,1,,,,,,,,,,,,,0.9,292.5584998657896,None,292.5584998657896,None,,,201,0,291.3586717672506,291.858570453177,291.841899301161,291.9418775685044,None,0,,291.841899301161,None,291.9418775685044,None,291.841899301161,None,False,None,None,None,None,None,None,None,None,,,,,,,,,,,,,,,,,,,,,,,,,,,,ahsaer12,1,0x0378,C:\Users\admin\Desktop\FINALTasksLogfiles\,2021_Jun_11_1201,GoNoGo,2020.1.3,59.99657756446725,
DRÜCKEN SIE IM FOLGENDEN BITTE SO SCHNELL SIE KÖNNEN. BITTE ZEIGEN SIE IHRE MAXIMAL MÖGLICHE LEISTUNG!,200,NoGo,nogo,None,2,0,0,0,1,,,,,33,2,101,2,,,,,,,,,,,,,1,294.1751708078291,None,294.1751708078291,None,,,202,220,293.47539432872236,293.9752965142716,293.95863656104757,294.0586340763157,4,0,0.17581228864492005,293.95863656104757,None,294.0586340763157,None,293.95863656104757,None,False,None,None,None,None,None,None,None,None,,,,,,,,,,,,,,,,,,,,,,,,,,,,ahsaer12,1,0x0378,C:\Users\admin\Desktop\FINALTasksLogfiles\,2021_Jun_11_1201,GoNoGo,2020.1.3,59.99657756446725,
DRÜCKEN SIE IM FOLGENDEN BITTE SO SCHNELL SIE KÖNNEN. BITTE ZEIGEN SIE IHRE MAXIMAL MÖGLICHE LEISTUNG!,200,NoGo,nogo,None,2,0,0,0,1,,,,,34,0,102,2,,,,,,,,,,,,,1,295.82516235624007,None,295.82516235624007,None,,,202,220,295.1751715077535,295.67528052099624,295.65861181871605,295.7586096839459,4,0,0.12884035456772835,295.65861181871605,None,295.7586096839459,None,295.65861181871605,None,False,None,None,None,None,None,None,None,None,,,,,,,,,,,,,,,,,,,,,,,,,,,,ahsaer12,1,0x0378,C:\Users\admin\Desktop\FINALTasksLogfiles\,2021_Jun_11_1201,GoNoGo,2020.1.3,59.99657756446725,
DRÜCKEN SIE IM FOLGENDEN BITTE SO SCHNELL SIE KÖNNEN. BITTE ZEIGEN SIE IHRE MAXIMAL MÖGLICHE LEISTUNG!,200,Go,go,4,1,0,0,0,1,,,,,34,1,103,1,,,,,,,,,,,,,1,297.52526220047184,None,297.52526220047184,None,,,201,211,296.8418356080301,297.3419197739531,297.3252710195211,297.4253623246741,4,1,0.16316955216370843,297.3252710195211,None,297.4253623246741,None,297.3252710195211,None,False,None,None,None,None,None,None,None,None,,,,,,,,,,,,,,,,,,,,,,,,,,,,ahsaer12,1,0x0378,C:\Users\admin\Desktop\FINALTasksLogfiles\,2021_Jun_11_1201,GoNoGo,2020.1.3,59.99657756446725,
DRÜCKEN SIE IM FOLGENDEN BITTE SO SCHNELL SIE KÖNNEN. BITTE ZEIGEN SIE IHRE MAXIMAL MÖGLICHE LEISTUNG!,200,Go,go,4,1,0,0,0,1,,,,,34,2,104,1,,,,,,,,,,,,,1,299.30860511693845,None,299.30860511693845,None,,,201,211,298.52519185805886,299.0251598365121,299.0084956837409,299.1086016873087,4,1,0.2579393312435059,299.0084956837409,None,299.1086016873087,None,299.0084956837409,None,False,None,None,None,None,None,None,None,None,,,,,,,,,,,,,,,,,,,,,,,,,,,,ahsaer12,1,0x0378,C:\Users\admin\Desktop\FINALTasksLogfiles\,2021_Jun_11_1201,GoNoGo,2020.1.3,59.99657756446725,
DRÜCKEN SIE IM FOLGENDEN BITTE SO SCHNELL SIE KÖNNEN. BITTE ZEIGEN SIE IHRE MAXIMAL MÖGLICHE LEISTUNG!,200,Go,go,4,1,0,0,0,1,,,,,35,0,105,0,,,,,,,,,,,,,1,301.02511819100346,None,301.02511819100346,None,,,201,211,300.3085407238832,300.80846250731884,300.79185224873527,300.89185746317344,4,1,0.19255308315041475,300.79185224873527,None,300.89185746317344,None,300.79185224873527,None,False,None,None,None,None,None,None,None,None,,,,,,,,,,,,,,,,,,,,,,,,,,,,ahsaer12,1,0x0378,C:\Users\admin\Desktop\FINALTasksLogfiles\,2021_Jun_11_1201,GoNoGo,2020.1.3,59.99657756446725,
DRÜCKEN SIE IM FOLGENDEN BITTE SO SCHNELL SIE KÖNNEN. BITTE ZEIGEN SIE IHRE MAXIMAL MÖGLICHE LEISTUNG!,200,NoGo,nogo,None,2,0,0,0,1,,,,,35,1,106,2,,,,,,,,,,,,,1,302.70845239340997,None,302.70845239340997,None,,,202,220,302.04189783131915,302.541852861169,302.50845596302497,302.6085598668187,4,0,0.16093119357083197,302.50845596302497,None,302.6085598668187,None,302.50845596302497,None,False,None,None,None,None,None,None,None,None,,,,,,,,,,,,,,,,,,,,,,,,,,,,ahsaer12,1,0x0378,C:\Users\admin\Desktop\FINALTasksLogfiles\,2021_Jun_11_1201,GoNoGo,2020.1.3,59.99657756446725,
DRÜCKEN SIE IM FOLGENDEN BITTE SO SCHNELL SIE KÖNNEN. BITTE ZEIGEN SIE IHRE MAXIMAL MÖGLICHE LEISTUNG!,200,Go,go,4,1,0,0,0,1,,,,,35,2,107,0,,,,,,,,,,,,,1,304.3919090826057,None,304.3919090826057,None,,,201,211,303.72522538444264,304.2251968625187,304.20853095993607,304.30867965889956,4,1,0.1348425572305132,304.20853095993607,None,304.30867965889956,None,304.20853095993607,None,False,None,None,None,None,None,None,None,None,,,,,,,,,,,,,,,,,,,,,,,,,,,,ahsaer12,1,0x0378,C:\Users\admin\Desktop\FINALTasksLogfiles\,2021_Jun_11_1201,GoNoGo,2020.1.3,59.99657756446725,
DRÜCKEN SIE IM FOLGENDEN BITTE SO SCHNELL SIE KÖNNEN. BITTE ZEIGEN SIE IHRE MAXIMAL MÖGLICHE LEISTUNG!,200,NoGo,nogo,None,2,0,0,0,1,,,,,36,0,108,2,,,,,,,,,,,,,0.9,306.6085280202533,None,306.6085280202533,None,,,202,0,305.40859213333897,305.9086318540549,305.8919691011324,305.99182173202644,None,1,,305.8919691011324,None,305.99182173202644,None,305.8919691011324,None,False,None,None,None,None,None,None,None,None,,,,,,,,,,,,,,,,,,,,,,,,,,,,ahsaer12,1,0x0378,C:\Users\admin\Desktop\FINALTasksLogfiles\,2021_Jun_11_1201,GoNoGo,2020.1.3,59.99657756446725,
DRÜCKEN SIE IM FOLGENDEN BITTE SO SCHNELL SIE KÖNNEN. BITTE ZEIGEN SIE IHRE MAXIMAL MÖGLICHE LEISTUNG!,200,Go,go,4,1,0,0,0,1,,,,,36,1,109,1,,,,,,,,,,,,,1,308.2418242692529,None,308.2418242692529,None,,,201,211,307.5252594007743,308.02528827265996,308.00862411988874,308.1086219851195,4,1,0.18863315591352148,308.00862411988874,None,308.1086219851195,None,308.00862411988874,None,False,None,None,None,None,None,None,None,None,,,,,,,,,,,,,,,,,,,,,,,,,,,,ahsaer12,1,0x0378,C:\Users\admin\Desktop\FINALTasksLogfiles\,2021_Jun_11_1201,GoNoGo,2020.1.3,59.99657756446725,
DRÜCKEN SIE IM FOLGENDEN BITTE SO SCHNELL SIE KÖNNEN. BITTE ZEIGEN SIE IHRE MAXIMAL MÖGLICHE LEISTUNG!,200,Go,go,4,1,0,0,0,1,,,,,36,2,110,1,,,,,,,,,,,,,1,309.9584864272392,None,309.9584864272392,None,,,201,211,309.2418225194415,309.7419262832509,309.72527157946024,309.82526349533236,4,1,0.19004140403467318,309.72527157946024,None,309.82526349533236,None,309.72527157946024,None,False,None,None,None,None,None,None,None,None,,,,,,,,,,,,,,,,,,,,,,,,,,,,ahsaer12,1,0x0378,C:\Users\admin\Desktop\FINALTasksLogfiles\,2021_Jun_11_1201,GoNoGo,2020.1.3,59.99657756446725,
DRÜCKEN SIE IM FOLGENDEN BITTE SO SCHNELL SIE KÖNNEN. BITTE ZEIGEN SIE IHRE MAXIMAL MÖGLICHE LEISTUNG!,200,Go,go,4,1,0,0,0,1,,,,,37,0,111,1,,,,,,,,,,,,,1,311.64185807560716,None,311.64185807560716,None,,,201,211,310.9586204627831,311.45858284184123,311.4419235885416,311.5419249533943,4,1,0.1583726195131021,311.4419235885416,None,311.5419249533943,None,311.4419235885416,None,False,None,None,None,None,None,None,None,None,,,,,,,,,,,,,,,,,,,,,,,,,,,,ahsaer12,1,0x0378,C:\Users\admin\Desktop\FINALTasksLogfiles\,2021_Jun_11_1201,GoNoGo,2020.1.3,59.99657756446725,
DRÜCKEN SIE IM FOLGENDEN BITTE SO SCHNELL SIE KÖNNEN. BITTE ZEIGEN SIE IHRE MAXIMAL MÖGLICHE LEISTUNG!,200,Go,go,4,1,0,0,0,1,,,,,37,1,112,0,,,,,,,,,,,,,1,313.3919276306051,None,313.3919276306051,None,,,201,211,312.658509279775,313.1586203927909,313.1252553412114,313.2251482177653,4,1,0.22403393793956639,313.1252553412114,None,313.2251482177653,None,313.1252553412114,None,False,None,None,None,None,None,None,None,None,,,,,,,,,,,,,,,,,,,,,,,,,,,,ahsaer12,1,0x0378,C:\Users\admin\Desktop\FINALTasksLogfiles\,2021_Jun_11_1201,GoNoGo,2020.1.3,59.99657756446725,
DRÜCKEN SIE IM FOLGENDEN BITTE SO SCHNELL SIE KÖNNEN. BITTE ZEIGEN SIE IHRE MAXIMAL MÖGLICHE LEISTUNG!,200,NoGo,nogo,None,2,0,0,0,1,,,,,37,2,113,2,,,,,,,,,,,,,1,315.0751477453159,None,315.0751477453159,None,,,202,220,314.40869152261985,314.90863640356383,314.87529654926766,314.975298264083,4,0,0.1559246335282296,314.87529654926766,None,314.975298264083,None,314.87529654926766,None,False,None,None,None,None,None,None,None,None,,,,,,,,,,,,,,,,,,,,,,,,,,,,ahsaer12,1,0x0378,C:\Users\admin\Desktop\FINALTasksLogfiles\,2021_Jun_11_1201,GoNoGo,2020.1.3,59.99657756446725,
DRÜCKEN SIE IM FOLGENDEN BITTE SO SCHNELL SIE KÖNNEN. BITTE ZEIGEN SIE IHRE MAXIMAL MÖGLICHE LEISTUNG!,200,Go,go,4,1,0,0,0,1,,,,,38,0,114,1,,,,,,,,,,,,,1,316.77518809596404,None,316.77518809596404,None,,,201,211,316.0919637817069,316.591947508462,316.5586139534853,316.6586083190932,4,1,0.17659130462834582,316.5586139534853,None,316.6586083190932,None,316.5586139534853,None,False,None,None,None,None,None,None,None,None,,,,,,,,,,,,,,,,,,,,,,,,,,,,ahsaer12,1,0x0378,C:\Users\admin\Desktop\FINALTasksLogfiles\,2021_Jun_11_1201,GoNoGo,2020.1.3,59.99657756446725,
DRÜCKEN SIE IM FOLGENDEN BITTE SO SCHNELL SIE KÖNNEN. BITTE ZEIGEN SIE IHRE MAXIMAL MÖGLICHE LEISTUNG!,200,Go,go,4,1,0,0,0,1,,,,,38,1,115,1,,,,,,,,,,,,,0.9,318.9752076238583,None,318.9752076238583,None,,,201,0,317.77520664396343,318.2752733117741,318.25858256187075,318.35851183449904,None,0,,318.25858256187075,None,318.35851183449904,None,318.25858256187075,None,False,None,None,None,None,None,None,None,None,,,,,,,,,,,,,,,,,,,,,,,,,,,,ahsaer12,1,0x0378,C:\Users\admin\Desktop\FINALTasksLogfiles\,2021_Jun_11_1201,GoNoGo,2020.1.3,59.99657756446725,
DRÜCKEN SIE IM FOLGENDEN BITTE SO SCHNELL SIE KÖNNEN. BITTE ZEIGEN SIE IHRE MAXIMAL MÖGLICHE LEISTUNG!,200,Go,go,4,1,0,0,0,1,,,,,38,2,116,1,,,,,,,,,,,,,1,320.5918771660481,None,320.5918771660481,None,,,201,211,319.87522200730655,320.37518473632645,320.35851918370645,320.4585261479551,4,1,0.19068673443598527,320.35851918370645,None,320.4585261479551,None,320.35851918370645,None,False,None,None,None,None,None,None,None,None,,,,,,,,,,,,,,,,,,,,,,,,,,,,ahsaer12,1,0x0378,C:\Users\admin\Desktop\FINALTasksLogfiles\,2021_Jun_11_1201,GoNoGo,2020.1.3,59.99657756446725,
DRÜCKEN SIE IM FOLGENDEN BITTE SO SCHNELL SIE KÖNNEN. BITTE ZEIGEN SIE IHRE MAXIMAL MÖGLICHE LEISTUNG!,200,Go,go,4,1,0,0,0,1,,,,,39,0,117,0,,,,,,,,,,,,,1,322.27520576905863,None,322.27520576905863,None,,,201,211,321.59189116453854,322.0918713916708,322.0752051391264,322.1751638085834,4,1,0.15699131848577963,322.0752051391264,None,322.1751638085834,None,322.0752051391264,None,False,None,None,None,None,None,None,None,None,,,,,,,,,,,,,,,,,,,,,,,,,,,,ahsaer12,1,0x0378,C:\Users\admin\Desktop\FINALTasksLogfiles\,2021_Jun_11_1201,GoNoGo,2020.1.3,59.99657756446725,
DRÜCKEN SIE IM FOLGENDEN BITTE SO SCHNELL SIE KÖNNEN. BITTE ZEIGEN SIE IHRE MAXIMAL MÖGLICHE LEISTUNG!,200,NoGo,nogo,None,2,0,0,0,1,,,,,39,1,118,2,,,,,,,,,,,,,0.9,324.47515635438776,None,324.47515635438776,None,,,202,0,323.29187377141443,323.7919579373365,323.75856873836165,323.8586288968736,None,1,,323.75856873836165,None,323.8586288968736,None,323.75856873836165,None,False,None,None,None,None,None,None,None,None,,,,,,,,,,,,,,,,,,,,,,,,,,,,ahsaer12,1,0x0378,C:\Users\admin\Desktop\FINALTasksLogfiles\,2021_Jun_11_1201,GoNoGo,2020.1.3,59.99657756446725,
DRÜCKEN SIE IM FOLGENDEN BITTE SO SCHNELL SIE KÖNNEN. BITTE ZEIGEN SIE IHRE MAXIMAL MÖGLICHE LEISTUNG!,200,NoGo,nogo,None,2,0,0,0,1,,,,,39,2,119,2,,,,,,,,,,,,,1,326.1084708014241,None,326.1084708014241,None,,,202,220,325.3752344309669,325.8752353058726,325.8586092989872,325.95859526550066,4,0,0.20752481844829163,325.8586092989872,None,325.95859526550066,None,325.8586092989872,None,False,None,None,None,None,None,None,None,None,,,,,,,,,,,,,,,,,,,,,,,,,,,,ahsaer12,1,0x0378,C:\Users\admin\Desktop\FINALTasksLogfiles\,2021_Jun_11_1201,GoNoGo,2020.1.3,59.99657756446725,
DRÜCKEN SIE IM FOLGENDEN BITTE SO SCHNELL SIE KÖNNEN. BITTE ZEIGEN SIE IHRE MAXIMAL MÖGLICHE LEISTUNG!,200,Go,go,4,1,0,0,0,1,,,,,40,0,120,1,,,,,,,,,,,,,1,327.80847300618643,None,327.80847300618643,None,,,201,211,327.1252882376639,327.62515017755413,327.60863230900577,327.7086203752933,4,1,0.15549767957509175,327.60863230900577,None,327.7086203752933,None,327.60863230900577,None,False,None,None,None,None,None,None,None,None,,,,,,,,,,,,,,,,,,,,,,,,,,,,ahsaer12,1,0x0378,C:\Users\admin\Desktop\FINALTasksLogfiles\,2021_Jun_11_1201,GoNoGo,2020.1.3,59.99657756446725,
DRÜCKEN SIE IM FOLGENDEN BITTE SO SCHNELL SIE KÖNNEN. BITTE ZEIGEN SIE IHRE MAXIMAL MÖGLICHE LEISTUNG!,200,Go,go,4,1,0,0,0,1,,,,,40,1,121,0,,,,,,,,,,,,,1,329.52526640001906,None,329.52526640001906,None,,,201,211,328.80858639395774,329.3085704706755,329.2918660722444,329.3919115323415,4,1,0.19621928774995467,329.2918660722444,None,329.3919115323415,None,329.2918660722444,None,False,None,None,None,None,None,None,None,None,,,,,,,,,,,,,,,,,,,,,,,,,,,,ahsaer12,1,0x0378,C:\Users\admin\Desktop\FINALTasksLogfiles\,2021_Jun_11_1201,GoNoGo,2020.1.3,59.99657756446725,
DRÜCKEN SIE IM FOLGENDEN BITTE SO SCHNELL SIE KÖNNEN. BITTE ZEIGEN SIE IHRE MAXIMAL MÖGLICHE LEISTUNG!,200,NoGo,nogo,None,2,0,0,0,1,,,,,40,2,122,2,,,,,,,,,,,,,0.9,331.7251406935766,None,331.7251406935766,None,,,202,0,330.54191725422424,331.0419622243744,331.00859507302175,331.10861428594944,None,1,,331.00859507302175,None,331.10861428594944,None,331.00859507302175,None,False,None,None,None,None,None,None,None,None,,,,,,,,,,,,,,,,,,,,,,,,,,,,ahsaer12,1,0x0378,C:\Users\admin\Desktop\FINALTasksLogfiles\,2021_Jun_11_1201,GoNoGo,2020.1.3,59.99657756446725,
DRÜCKEN SIE IM FOLGENDEN BITTE SO SCHNELL SIE KÖNNEN. BITTE ZEIGEN SIE IHRE MAXIMAL MÖGLICHE LEISTUNG!,200,NoGo,nogo,None,2,0,0,0,1,,,,,41,0,123,2,,,,,,,,,,,,,0.9,333.82516795563606,None,333.82516795563606,None,,,202,0,332.6251921730245,333.1252462421935,333.10858033961085,333.2084704164663,None,1,,333.10858033961085,None,333.2084704164663,None,333.10858033961085,None,False,None,None,None,None,None,None,None,None,,,,,,,,,,,,,,,,,,,,,,,,,,,,ahsaer12,1,0x0378,C:\Users\admin\Desktop\FINALTasksLogfiles\,2021_Jun_11_1201,GoNoGo,2020.1.3,59.99657756446725,
DRÜCKEN SIE IM FOLGENDEN BITTE SO SCHNELL SIE KÖNNEN. BITTE ZEIGEN SIE IHRE MAXIMAL MÖGLICHE LEISTUNG!,200,Go,go,4,1,0,0,0,1,,,,,41,1,124,0,,,,,,,,,,,,,1,335.5418644099236,None,335.5418644099236,None,,,201,211,334.7419423815145,335.2418046713665,335.2251352691619,335.3253697088776,4,1,0.27386926320014027,335.2251352691619,None,335.3253697088776,None,335.2251352691619,None,False,None,None,None,None,None,None,None,None,,,,,,,,,,,,,,,,,,,,,,,,,,,,ahsaer12,1,0x0378,C:\Users\admin\Desktop\FINALTasksLogfiles\,2021_Jun_11_1201,GoNoGo,2020.1.3,59.99657756446725,
DRÜCKEN SIE IM FOLGENDEN BITTE SO SCHNELL SIE KÖNNEN. BITTE ZEIGEN SIE IHRE MAXIMAL MÖGLICHE LEISTUNG!,200,NoGo,nogo,None,2,0,0,0,1,,,,,41,2,125,2,,,,,,,,,,,,,0.9,337.7418734389503,None,337.7418734389503,None,,,202,0,336.5585709081279,337.058566883562,337.0252406777936,337.12513565411973,None,1,,337.0252406777936,None,337.12513565411973,None,337.0252406777936,None,False,None,None,None,None,None,338.6919334749755,None,space,19.869913429836743,,,,,,,,,,,,,,,,,,,,,,,,,,,ahsaer12,1,0x0378,C:\Users\admin\Desktop\FINALTasksLogfiles\,2021_Jun_11_1201,GoNoGo,2020.1.3,59.99657756446725,
DRÜCKEN SIE IM FOLGENDEN BITTE SO SCHNELL SIE KÖNNEN. BITTE ZEIGEN SIE IHRE MAXIMAL MÖGLICHE LEISTUNG!,200,NoGo,nogo,None,2,0,0,0,1,,,,,42,0,126,2,,,,,,,,,,,,,0.9,361.758408805611,None,361.758408805611,None,,,202,0,360.55839242737693,361.05852768778914,361.0418390376599,361.141806456174,None,1,,361.0418390376599,None,361.141806456174,None,361.0418390376599,None,False,None,None,None,None,None,None,None,None,,,,,,,,,,,,,,,,,,,,,,,,,,,,ahsaer12,1,0x0378,C:\Users\admin\Desktop\FINALTasksLogfiles\,2021_Jun_11_1201,GoNoGo,2020.1.3,59.99657756446725,
DRÜCKEN SIE IM FOLGENDEN BITTE SO SCHNELL SIE KÖNNEN. BITTE ZEIGEN SIE IHRE MAXIMAL MÖGLICHE LEISTUNG!,200,NoGo,nogo,None,2,0,0,0,1,,,,,42,1,127,2,,,,,,,,,,,,,0.9,363.85843816744364,None,363.85843816744364,None,,,202,0,362.6585302775102,363.1585007056992,363.14183200341904,363.2417878731785,None,1,,363.14183200341904,None,363.2417878731785,None,363.14183200341904,None,False,None,None,None,None,None,None,None,None,,,,,,,,,,,,,,,,,,,,,,,,,,,,ahsaer12,1,0x0378,C:\Users\admin\Desktop\FINALTasksLogfiles\,2021_Jun_11_1201,GoNoGo,2020.1.3,59.99657756446725,
DRÜCKEN SIE IM FOLGENDEN BITTE SO SCHNELL SIE KÖNNEN. BITTE ZEIGEN SIE IHRE MAXIMAL MÖGLICHE LEISTUNG!,200,Go,go,4,1,0,0,0,1,,,,,42,2,128,0,,,,,,,,,,,,,1,365.4917753620275,None,365.4917753620275,None,,,201,211,364.7751786469835,365.27513962619196,365.2584744235337,365.3585342320839,4,1,0.1902723791235985,365.2584744235337,None,365.3585342320839,None,365.2584744235337,None,False,None,None,None,None,None,None,None,None,,,,,,,,,,,,,,,,,,,,,,,,,,,,ahsaer12,1,0x0378,C:\Users\admin\Desktop\FINALTasksLogfiles\,2021_Jun_11_1201,GoNoGo,2020.1.3,59.99657756446725,
DRÜCKEN SIE IM FOLGENDEN BITTE SO SCHNELL SIE KÖNNEN. BITTE ZEIGEN SIE IHRE MAXIMAL MÖGLICHE LEISTUNG!,200,Go,go,4,1,0,0,0,1,,,,,43,0,129,1,,,,,,,,,,,,,1,367.2918331757928,None,367.2918331757928,None,,,201,211,366.49187965078,366.9918749262897,366.9752342209895,367.07514949512733,4,1,0.277406331727434,366.9752342209895,None,367.07514949512733,None,366.9752342209895,None,False,None,None,None,None,None,None,None,None,,,,,,,,,,,,,,,,,,,,,,,,,,,,ahsaer12,1,0x0378,C:\Users\admin\Desktop\FINALTasksLogfiles\,2021_Jun_11_1201,GoNoGo,2020.1.3,59.99657756446725,
DRÜCKEN SIE IM FOLGENDEN BITTE SO SCHNELL SIE KÖNNEN. BITTE ZEIGEN SIE IHRE MAXIMAL MÖGLICHE LEISTUNG!,200,Go,go,4,1,0,0,0,1,,,,,43,1,130,0,,,,,,,,,,,,,1,368.99177063753723,None,368.99177063753723,None,,,201,211,368.3085424736946,368.80858394422194,368.7752493393591,368.8752468546272,4,1,0.18146522897495743,368.7752493393591,None,368.8752468546272,None,368.7752493393591,None,False,None,None,None,None,None,None,None,None,,,,,,,,,,,,,,,,,,,,,,,,,,,,ahsaer12,1,0x0378,C:\Users\admin\Desktop\FINALTasksLogfiles\,2021_Jun_11_1201,GoNoGo,2020.1.3,59.99657756446725,
DRÜCKEN SIE IM FOLGENDEN BITTE SO SCHNELL SIE KÖNNEN. BITTE ZEIGEN SIE IHRE MAXIMAL MÖGLICHE LEISTUNG!,200,NoGo,nogo,None,2,0,0,0,1,,,,,43,2,131,2,,,,,,,,,,,,,1,370.6918071386008,None,370.6918071386008,None,,,202,220,370.0085023330239,370.5085613016636,370.49190519802505,370.5919062129151,4,0,0.16579286923843028,370.49190519802505,None,370.5919062129151,None,370.49190519802505,None,False,None,None,None,None,None,None,None,None,,,,,,,,,,,,,,,,,,,,,,,,,,,,ahsaer12,1,0x0378,C:\Users\admin\Desktop\FINALTasksLogfiles\,2021_Jun_11_1201,GoNoGo,2020.1.3,59.99657756446725,
DRÜCKEN SIE IM FOLGENDEN BITTE SO SCHNELL SIE KÖNNEN. BITTE ZEIGEN SIE IHRE MAXIMAL MÖGLICHE LEISTUNG!,200,NoGo,nogo,None,2,0,0,0,1,,,,,44,0,132,2,,,,,,,,,,,,,1,372.40846579696426,None,372.40846579696426,None,,,202,220,371.69177284229954,372.191775117054,372.1752180527337,372.2751693729833,4,0,0.1904624086291733,372.1752180527337,None,372.2751693729833,None,372.1752180527337,None,False,None,None,None,None,None,None,None,None,,,,,,,,,,,,,,,,,,,,,,,,,,,,ahsaer12,1,0x0378,C:\Users\admin\Desktop\FINALTasksLogfiles\,2021_Jun_11_1201,GoNoGo,2020.1.3,59.99657756446725,
DRÜCKEN SIE IM FOLGENDEN BITTE SO SCHNELL SIE KÖNNEN. BITTE ZEIGEN SIE IHRE MAXIMAL MÖGLICHE LEISTUNG!,200,Go,go,4,1,0,0,0,1,,,,,44,1,133,1,,,,,,,,,,,,,1,374.1084340553871,None,374.1084340553871,None,,,201,211,373.4252027418843,373.9252277641863,373.89192150626604,373.9919095725527,4,1,0.18274364109856833,373.89192150626604,None,373.9919095725527,None,373.89192150626604,None,False,None,None,None,None,None,None,None,None,,,,,,,,,,,,,,,,,,,,,,,,,,,,ahsaer12,1,0x0378,C:\Users\admin\Desktop\FINALTasksLogfiles\,2021_Jun_11_1201,GoNoGo,2020.1.3,59.99657756446725,
DRÜCKEN SIE IM FOLGENDEN BITTE SO SCHNELL SIE KÖNNEN. BITTE ZEIGEN SIE IHRE MAXIMAL MÖGLICHE LEISTUNG!,200,Go,go,4,1,0,0,0,1,,,,,44,2,134,1,,,,,,,,,,,,,1,375.8251368089959,None,375.8251368089959,None,,,201,211,375.108553392517,375.60856406636594,375.5918785658969,375.69188692999523,4,1,0.1867587580682084,375.5918785658969,None,375.69188692999523,None,375.5918785658969,None,False,None,None,None,None,None,None,None,None,,,,,,,,,,,,,,,,,,,,,,,,,,,,ahsaer12,1,0x0378,C:\Users\admin\Desktop\FINALTasksLogfiles\,2021_Jun_11_1201,GoNoGo,2020.1.3,59.99657756446725,
DRÜCKEN SIE IM FOLGENDEN BITTE SO SCHNELL SIE KÖNNEN. BITTE ZEIGEN SIE IHRE MAXIMAL MÖGLICHE LEISTUNG!,200,NoGo,nogo,None,2,0,0,0,1,,,,,45,0,135,2,,,,,,,,,,,,,0.9,378.0250915938723,None,378.0250915938723,None,,,202,0,376.8418790033502,377.3418704292744,377.30854212373197,377.40853053998126,None,1,,377.30854212373197,None,377.40853053998126,None,377.30854212373197,None,False,None,None,None,None,None,None,None,None,,,,,,,,,,,,,,,,,,,,,,,,,,,,ahsaer12,1,0x0378,C:\Users\admin\Desktop\FINALTasksLogfiles\,2021_Jun_11_1201,GoNoGo,2020.1.3,59.99657756446725,
DRÜCKEN SIE IM FOLGENDEN BITTE SO SCHNELL SIE KÖNNEN. BITTE ZEIGEN SIE IHRE MAXIMAL MÖGLICHE LEISTUNG!,200,NoGo,nogo,None,2,0,0,0,1,,,,,45,1,136,2,,,,,,,,,,,,,1,379.60852452063045,None,379.60852452063045,None,,,202,220,378.9252508616946,379.4252870827886,379.4086215301686,379.5086123961537,4,0,0.15891751074650529,379.4086215301686,None,379.5086123961537,None,379.4086215301686,None,False,None,None,None,None,None,None,None,None,,,,,,,,,,,,,,,,,,,,,,,,,,,,ahsaer12,1,0x0378,C:\Users\admin\Desktop\FINALTasksLogfiles\,2021_Jun_11_1201,GoNoGo,2020.1.3,59.99657756446725,
DRÜCKEN SIE IM FOLGENDEN BITTE SO SCHNELL SIE KÖNNEN. BITTE ZEIGEN SIE IHRE MAXIMAL MÖGLICHE LEISTUNG!,200,NoGo,nogo,None,2,0,0,0,1,,,,,45,2,137,2,,,,,,,,,,,,,1,381.29181637760394,None,381.29181637760394,None,,,202,220,380.6084940739147,381.10852294580036,381.091834295672,381.1917222727534,4,0,0.15972102408704814,381.091834295672,None,381.1917222727534,None,381.091834295672,None,False,None,None,None,None,None,None,None,None,,,,,,,,,,,,,,,,,,,,,,,,,,,,ahsaer12,1,0x0378,C:\Users\admin\Desktop\FINALTasksLogfiles\,2021_Jun_11_1201,GoNoGo,2020.1.3,59.99657756446725,
DRÜCKEN SIE IM FOLGENDEN BITTE SO SCHNELL SIE KÖNNEN. BITTE ZEIGEN SIE IHRE MAXIMAL MÖGLICHE LEISTUNG!,200,Go,go,4,1,0,0,0,1,,,,,46,0,138,1,,,,,,,,,,,,,1,382.9750634394086,None,382.9750634394086,None,,,201,211,382.3084969786014,382.8084905042997,382.77516289868163,382.87514431568616,4,1,0.15940990764102025,382.77516289868163,None,382.87514431568616,None,382.77516289868163,None,False,None,None,None,None,None,None,None,None,,,,,,,,,,,,,,,,,,,,,,,,,,,,ahsaer12,1,0x0378,C:\Users\admin\Desktop\FINALTasksLogfiles\,2021_Jun_11_1201,GoNoGo,2020.1.3,59.99657756446725,
DRÜCKEN SIE IM FOLGENDEN BITTE SO SCHNELL SIE KÖNNEN. BITTE ZEIGEN SIE IHRE MAXIMAL MÖGLICHE LEISTUNG!,200,Go,go,4,1,0,0,0,1,,,,,46,1,139,0,,,,,,,,,,,,,1,384.64186437492754,None,384.64186437492754,None,,,201,211,383.9751439307274,384.47508986155844,384.45842605874986,384.55848656722446,4,1,0.1501618050488105,384.45842605874986,None,384.55848656722446,None,384.45842605874986,None,False,None,None,None,None,None,None,None,None,,,,,,,,,,,,,,,,,,,,,,,,,,,,ahsaer12,1,0x0378,C:\Users\admin\Desktop\FINALTasksLogfiles\,2021_Jun_11_1201,GoNoGo,2020.1.3,59.99657756446725,
DRÜCKEN SIE IM FOLGENDEN BITTE SO SCHNELL SIE KÖNNEN. BITTE ZEIGEN SIE IHRE MAXIMAL MÖGLICHE LEISTUNG!,200,NoGo,nogo,None,2,0,0,0,1,,,,,46,2,140,2,,,,,,,,,,,,,0.9,386.85842696865166,None,386.85842696865166,None,,,202,0,385.6584518859645,386.1584202143804,386.1417588613076,386.24188621257235,None,1,,386.1417588613076,None,386.24188621257235,None,386.1417588613076,None,False,None,None,None,None,None,None,None,None,,,,,,,,,,,,,,,,,,,,,,,,,,,,ahsaer12,1,0x0378,C:\Users\admin\Desktop\FINALTasksLogfiles\,2021_Jun_11_1201,GoNoGo,2020.1.3,59.99657756446725,
DRÜCKEN SIE IM FOLGENDEN BITTE SO SCHNELL SIE KÖNNEN. BITTE ZEIGEN SIE IHRE MAXIMAL MÖGLICHE LEISTUNG!,200,NoGo,nogo,None,2,0,0,0,1,,,,,47,0,141,2,,,,,,,,,,,,,1,388.4418840428061,None,388.4418840428061,None,,,202,220,387.7585669885502,388.2585076699479,388.2418064211779,388.3418676295769,4,0,0.16471743522470206,388.2418064211779,None,388.3418676295769,None,388.2418064211779,None,False,None,None,None,None,None,None,None,None,,,,,,,,,,,,,,,,,,,,,,,,,,,,ahsaer12,1,0x0378,C:\Users\admin\Desktop\FINALTasksLogfiles\,2021_Jun_11_1201,GoNoGo,2020.1.3,59.99657756446725,
DRÜCKEN SIE IM FOLGENDEN BITTE SO SCHNELL SIE KÖNNEN. BITTE ZEIGEN SIE IHRE MAXIMAL MÖGLICHE LEISTUNG!,200,NoGo,nogo,None,2,0,0,0,1,,,,,47,1,142,2,,,,,,,,,,,,,1,390.09175835386213,None,390.09175835386213,None,,,202,220,389.4584232590523,389.95848187773026,389.92514237339583,390.0251580867007,4,0,0.12730507014839532,389.92514237339583,None,390.0251580867007,None,389.92514237339583,None,False,None,None,None,None,None,None,None,None,,,,,,,,,,,,,,,,,,,,,,,,,,,,ahsaer12,1,0x0378,C:\Users\admin\Desktop\FINALTasksLogfiles\,2021_Jun_11_1201,GoNoGo,2020.1.3,59.99657756446725,
DRÜCKEN SIE IM FOLGENDEN BITTE SO SCHNELL SIE KÖNNEN. BITTE ZEIGEN SIE IHRE MAXIMAL MÖGLICHE LEISTUNG!,200,Go,go,4,1,0,0,0,1,,,,,47,2,143,1,,,,,,,,,,,,,0.9,392.2918405249993,None,392.2918405249993,None,,,201,0,391.10847745070714,391.60841533240637,391.57514407071267,391.6751807817527,None,0,,391.57514407071267,None,391.6751807817527,None,391.57514407071267,None,False,None,None,None,None,None,None,None,None,,,,,,,,,,,,,,,,,,,,,,,,,,,,ahsaer12,1,0x0378,C:\Users\admin\Desktop\FINALTasksLogfiles\,2021_Jun_11_1201,GoNoGo,2020.1.3,59.99657756446725,
DRÜCKEN SIE IM FOLGENDEN BITTE SO SCHNELL SIE KÖNNEN. BITTE ZEIGEN SIE IHRE MAXIMAL MÖGLICHE LEISTUNG!,200,Go,go,4,1,0,0,0,1,,,,,48,0,144,0,,,,,,,,,,,,,1,394.0750795026761,None,394.0750795026761,None,,,201,211,393.1917537693562,393.691864882373,393.6751538346589,393.7751989447943,4,1,0.36426871361891244,393.6751538346589,None,393.7751989447943,None,393.6751538346589,None,False,None,None,None,None,None,None,None,None,,,,,,,,,,,,,,,,,,,,,,,,,,,,ahsaer12,1,0x0378,C:\Users\admin\Desktop\FINALTasksLogfiles\,2021_Jun_11_1201,GoNoGo,2020.1.3,59.99657756446725,
DRÜCKEN SIE IM FOLGENDEN BITTE SO SCHNELL SIE KÖNNEN. BITTE ZEIGEN SIE IHRE MAXIMAL MÖGLICHE LEISTUNG!,200,NoGo,nogo,None,2,0,0,0,1,,,,,48,1,145,2,,,,,,,,,,,,,1,395.75841720470453,None,395.75841720470453,None,,,202,220,395.09189308933037,395.59186386748206,395.5751857162213,395.67514858522554,4,0,0.14116042584828392,395.5751857162213,None,395.67514858522554,None,395.5751857162213,None,False,None,None,None,None,None,None,None,None,,,,,,,,,,,,,,,,,,,,,,,,,,,,ahsaer12,1,0x0378,C:\Users\admin\Desktop\FINALTasksLogfiles\,2021_Jun_11_1201,GoNoGo,2020.1.3,59.99657756446725,
DRÜCKEN SIE IM FOLGENDEN BITTE SO SCHNELL SIE KÖNNEN. BITTE ZEIGEN SIE IHRE MAXIMAL MÖGLICHE LEISTUNG!,200,NoGo,nogo,None,2,0,0,0,1,,,,,48,2,146,2,,,,,,,,,,,,,1,397.458530697465,None,397.458530697465,None,,,202,220,396.75841720470453,397.2584429269309,397.24178752321586,397.3418014867102,4,0,0.17064054641741677,397.24178752321586,None,397.3418014867102,None,397.24178752321586,None,False,None,None,None,None,None,None,None,None,,,,,,,,,,,,,,,,,,,,,,,,,,,,ahsaer12,1,0x0378,C:\Users\admin\Desktop\FINALTasksLogfiles\,2021_Jun_11_1201,GoNoGo,2020.1.3,59.99657756446725,
DRÜCKEN SIE IM FOLGENDEN BITTE SO SCHNELL SIE KÖNNEN. BITTE ZEIGEN SIE IHRE MAXIMAL MÖGLICHE LEISTUNG!,200,NoGo,nogo,None,2,0,0,0,1,,,,,49,0,147,2,,,,,,,,,,,,,0.9,399.6584753334355,None,399.6584753334355,None,,,202,0,398.4585275478048,398.9584780281448,398.9418075760532,399.04187508377254,None,1,,398.9418075760532,None,399.04187508377254,None,398.9418075760532,None,False,None,None,None,None,None,None,None,None,,,,,,,,,,,,,,,,,,,,,,,,,,,,ahsaer12,1,0x0378,C:\Users\admin\Desktop\FINALTasksLogfiles\,2021_Jun_11_1201,GoNoGo,2020.1.3,59.99657756446725,
DRÜCKEN SIE IM FOLGENDEN BITTE SO SCHNELL SIE KÖNNEN. BITTE ZEIGEN SIE IHRE MAXIMAL MÖGLICHE LEISTUNG!,200,NoGo,nogo,None,2,0,0,0,1,,,,,49,1,148,2,,,,,,,,,,,,,0.9,401.75836541029093,None,401.75836541029093,None,,,202,0,400.5584130751504,401.05847274371536,401.04181454030186,401.14181415534404,None,1,,401.04181454030186,None,401.14181415534404,None,401.04181454030186,None,False,None,None,None,None,None,None,None,None,,,,,,,,,,,,,,,,,,,,,,,,,,,,ahsaer12,1,0x0378,C:\Users\admin\Desktop\FINALTasksLogfiles\,2021_Jun_11_1201,GoNoGo,2020.1.3,59.99657756446725,
DRÜCKEN SIE IM FOLGENDEN BITTE SO SCHNELL SIE KÖNNEN. BITTE ZEIGEN SIE IHRE MAXIMAL MÖGLICHE LEISTUNG!,200,Go,go,4,1,0,0,0,1,,,,,49,2,149,1,,,,,,,,,,,,,1,403.4417412582061,None,403.4417412582061,None,,,201,211,402.67515593443295,403.1750990655664,403.1416965680255,403.24174867740567,4,1,0.25567262570712046,403.1416965680255,None,403.24174867740567,None,403.1416965680255,None,False,None,None,None,None,None,None,None,None,,,,,,,,,,,,,,,,,,,,,,,,,,,,ahsaer12,1,0x0378,C:\Users\admin\Desktop\FINALTasksLogfiles\,2021_Jun_11_1201,GoNoGo,2020.1.3,59.99657756446725,
DRÜCKEN SIE IM FOLGENDEN BITTE SO SCHNELL SIE KÖNNEN. BITTE ZEIGEN SIE IHRE MAXIMAL MÖGLICHE LEISTUNG!,200,Go,go,4,1,0,0,0,1,,,,,50,0,150,1,,,,,,,,,,,,,1,405.20844486922124,None,405.20844486922124,None,,,201,211,404.4417486074135,404.94179042790256,404.9251381738486,405.0251388387769,4,1,0.24020569381536916,404.9251381738486,None,405.0251388387769,None,404.9251381738486,None,False,None,None,None,None,None,None,None,None,,,,,,,,,,,,,,,,,,,,,,,,,,,,ahsaer12,1,0x0378,C:\Users\admin\Desktop\FINALTasksLogfiles\,2021_Jun_11_1201,GoNoGo,2020.1.3,59.99657756446725,
DRÜCKEN SIE IM FOLGENDEN BITTE SO SCHNELL SIE KÖNNEN. BITTE ZEIGEN SIE IHRE MAXIMAL MÖGLICHE LEISTUNG!,200,Go,go,4,1,0,0,0,1,,,,,50,1,151,0,,,,,,,,,,,,,1,406.97510753465303,None,406.97510753465303,None,,,201,211,406.22524585723477,406.7251406935766,406.69180608871375,406.7918102532649,4,1,0.24347259148089506,406.69180608871375,None,406.7918102532649,None,406.69180608871375,None,False,None,None,None,None,None,None,None,None,,,,,,,,,,,,,,,,,,,,,,,,,,,,ahsaer12,1,0x0378,C:\Users\admin\Desktop\FINALTasksLogfiles\,2021_Jun_11_1201,GoNoGo,2020.1.3,59.99657756446725,
DRÜCKEN SIE IM FOLGENDEN BITTE SO SCHNELL SIE KÖNNEN. BITTE ZEIGEN SIE IHRE MAXIMAL MÖGLICHE LEISTUNG!,200,NoGo,nogo,None,2,0,0,0,1,,,,,50,2,152,2,,,,,,,,,,,,,0.9,409.1750714185482,None,409.1750714185482,None,,,202,0,407.99185812810083,408.4918159576491,408.4584302582971,408.55854326110966,None,1,,408.4584302582971,None,408.55854326110966,None,408.4584302582971,None,False,None,None,None,None,None,None,None,None,,,,,,,,,,,,,,,,,,,,,,,,,,,,ahsaer12,1,0x0378,C:\Users\admin\Desktop\FINALTasksLogfiles\,2021_Jun_11_1201,GoNoGo,2020.1.3,59.99657756446725,
DRÜCKEN SIE IM FOLGENDEN BITTE SO SCHNELL SIE KÖNNEN. BITTE ZEIGEN SIE IHRE MAXIMAL MÖGLICHE LEISTUNG!,200,Go,go,4,1,0,0,0,1,,,,,51,0,153,0,,,,,,,,,,,,,1,410.8583996715961,None,410.8583996715961,None,,,201,211,410.09184094495413,410.59187821593514,410.55856110918467,410.6585442760006,4,1,0.2636864114210766,410.55856110918467,None,410.6585442760006,None,410.55856110918467,None,False,None,None,None,None,None,None,None,None,,,,,,,,,,,,,,,,,,,,,,,,,,,,ahsaer12,1,0x0378,C:\Users\admin\Desktop\FINALTasksLogfiles\,2021_Jun_11_1201,GoNoGo,2020.1.3,59.99657756446725,
DRÜCKEN SIE IM FOLGENDEN BITTE SO SCHNELL SIE KÖNNEN. BITTE ZEIGEN SIE IHRE MAXIMAL MÖGLICHE LEISTUNG!,200,NoGo,nogo,None,2,0,0,0,1,,,,,51,1,154,2,,,,,,,,,,,,,0.9,413.0750641043369,None,413.0750641043369,None,,,202,0,411.87514186595035,412.3751731875718,412.3585027354802,412.45840401112764,None,1,,412.3585027354802,None,412.45840401112764,None,412.3585027354802,None,False,None,None,None,None,None,None,None,None,,,,,,,,,,,,,,,,,,,,,,,,,,,,ahsaer12,1,0x0378,C:\Users\admin\Desktop\FINALTasksLogfiles\,2021_Jun_11_1201,GoNoGo,2020.1.3,59.99657756446725,
DRÜCKEN SIE IM FOLGENDEN BITTE SO SCHNELL SIE KÖNNEN. BITTE ZEIGEN SIE IHRE MAXIMAL MÖGLICHE LEISTUNG!,200,NoGo,nogo,None,2,0,0,0,1,,,,,51,2,155,2,,,,,,,,,,,,,0.9,415.175102915151,None,415.175102915151,None,,,202,0,413.9751313320867,414.47506466427603,414.45839911165604,414.55845507062077,None,1,,414.45839911165604,None,414.55845507062077,None,414.45839911165604,None,False,None,None,None,None,None,None,None,None,,,,,,,,,,,,,,,,,,,,,,,,,,,,ahsaer12,1,0x0378,C:\Users\admin\Desktop\FINALTasksLogfiles\,2021_Jun_11_1201,GoNoGo,2020.1.3,59.99657756446725,
DRÜCKEN SIE IM FOLGENDEN BITTE SO SCHNELL SIE KÖNNEN. BITTE ZEIGEN SIE IHRE MAXIMAL MÖGLICHE LEISTUNG!,200,NoGo,nogo,None,2,0,0,0,1,,,,,52,0,156,2,,,,,,,,,,,,,0.9,417.2751879209827,None,417.2751879209827,None,,,202,0,416.07512709754246,416.57519901478645,416.55849531628064,416.6584956312463,None,1,,416.55849531628064,None,416.6584956312463,None,416.55849531628064,None,False,None,None,None,None,None,None,None,None,,,,,,,,,,,,,,,,,,,,,,,,,,,,ahsaer12,1,0x0378,C:\Users\admin\Desktop\FINALTasksLogfiles\,2021_Jun_11_1201,GoNoGo,2020.1.3,59.99657756446725,
DRÜCKEN SIE IM FOLGENDEN BITTE SO SCHNELL SIE KÖNNEN. BITTE ZEIGEN SIE IHRE MAXIMAL MÖGLICHE LEISTUNG!,200,Go,go,4,1,0,0,0,1,,,,,52,1,157,1,,,,,,,,,,,,,1,418.90839947911627,None,418.90839947911627,None,,,201,211,418.1917345214324,418.6917983895437,418.65846868415247,418.75845780032705,4,1,0.20774389482085098,418.65846868415247,None,418.75845780032705,None,418.65846868415247,None,False,None,None,None,None,None,None,None,None,,,,,,,,,,,,,,,,,,,,,,,,,,,,ahsaer12,1,0x0378,C:\Users\admin\Desktop\FINALTasksLogfiles\,2021_Jun_11_1201,GoNoGo,2020.1.3,59.99657756446725,
DRÜCKEN SIE IM FOLGENDEN BITTE SO SCHNELL SIE KÖNNEN. BITTE ZEIGEN SIE IHRE MAXIMAL MÖGLICHE LEISTUNG!,200,Go,go,4,1,0,0,0,1,,,,,52,2,158,1,,,,,,,,,,,,,1,420.6250000437458,None,420.6250000437458,None,,,201,211,419.9085275653024,420.40843570021025,420.3917599986844,420.4917137686707,4,1,0.1944099828833714,420.3917599986844,None,420.4917137686707,None,420.3917599986844,None,False,None,None,None,None,None,None,None,None,,,,,,,,,,,,,,,,,,,,,,,,,,,,ahsaer12,1,0x0378,C:\Users\admin\Desktop\FINALTasksLogfiles\,2021_Jun_11_1201,GoNoGo,2020.1.3,59.99657756446725,
DRÜCKEN SIE IM FOLGENDEN BITTE SO SCHNELL SIE KÖNNEN. BITTE ZEIGEN SIE IHRE MAXIMAL MÖGLICHE LEISTUNG!,200,Go,go,4,1,0,0,0,1,,,,,53,0,159,0,,,,,,,,,,,,,1,422.34168844890155,None,422.34168844890155,None,,,201,211,421.6251361790637,422.12511710612034,422.1084123577275,422.20838012620334,4,1,0.2006956549739698,422.1084123577275,None,422.20838012620334,None,422.1084123577275,None,False,None,None,None,None,None,None,None,None,,,,,,,,,,,,,,,,,,,,,,,,,,,,ahsaer12,1,0x0378,C:\Users\admin\Desktop\FINALTasksLogfiles\,2021_Jun_11_1201,GoNoGo,2020.1.3,59.99657756446725,
DRÜCKEN SIE IM FOLGENDEN BITTE SO SCHNELL SIE KÖNNEN. BITTE ZEIGEN SIE IHRE MAXIMAL MÖGLICHE LEISTUNG!,200,Go,go,4,1,0,0,0,1,,,,,53,1,160,1,,,,,,,,,,,,,1,424.0583849031882,None,424.0583849031882,None,,,201,211,423.34174094323953,423.84178556342704,423.8251462579765,423.9251528722634,4,1,0.19199104376639298,423.8251462579765,None,423.9251528722634,None,423.8251462579765,None,False,None,None,None,None,None,None,None,None,,,,,,,,,,,,,,,,,,,,,,,,,,,,ahsaer12,1,0x0378,C:\Users\admin\Desktop\FINALTasksLogfiles\,2021_Jun_11_1201,GoNoGo,2020.1.3,59.99657756446725,
