"Onset","Duration","Participant","date_time","Target_Mapping","Order_Instruction","Running","Trial","Event","Type","InstructionCondition","Accuracy","RT","Post_Trial","TaskPerf"
74.3921995512792,0.5,"ahsaer12","2021_Jun_11_1201","circle","speed_accuracy_first","Practice",0,"Fixation","Go","speed_accuracy",1,0.306227473367471,NA,84.5238095238095
74.875451232585,0.1,"ahsaer12","2021_Jun_11_1201","circle","speed_accuracy_first","Practice",0,"Target","Go","speed_accuracy",1,0.306227473367471,NA,84.5238095238095
74.9754438483815,1.20622747336747,"ahsaer12","2021_Jun_11_1201","circle","speed_accuracy_first","Practice",0,"ITI","Go","speed_accuracy",1,0.306227473367471,NA,84.5238095238095
75.1816787059525,0,"ahsaer12","2021_Jun_11_1201","circle","speed_accuracy_first","Practice",0,"Response","Go","speed_accuracy",1,0.306227473367471,NA,84.5238095238095
76.2087230892148,0.5,"ahsaer12","2021_Jun_11_1201","circle","speed_accuracy_first","Practice",1,"Fixation","Go","speed_accuracy",0,NA,"post_correct_resp",84.5238095238095
76.6920762595755,0.1,"ahsaer12","2021_Jun_11_1201","circle","speed_accuracy_first","Practice",1,"Target","Go","speed_accuracy",0,NA,"post_correct_resp",84.5238095238095
76.7920762245794,1.5,"ahsaer12","2021_Jun_11_1201","circle","speed_accuracy_first","Practice",1,"ITI","Go","speed_accuracy",0,NA,"post_correct_resp",84.5238095238095
78.2921456920876,0.5,"ahsaer12","2021_Jun_11_1201","circle","speed_accuracy_first","Practice",2,"Fixation","NoGo","speed_accuracy",1,NA,"post_error_inh",84.5238095238095
78.775480314448,0.1,"ahsaer12","2021_Jun_11_1201","circle","speed_accuracy_first","Practice",2,"Target","NoGo","speed_accuracy",1,NA,"post_error_inh",84.5238095238095
78.8754827291878,1.5,"ahsaer12","2021_Jun_11_1201","circle","speed_accuracy_first","Practice",2,"ITI","NoGo","speed_accuracy",1,NA,"post_error_inh",84.5238095238095
80.3754234105854,0.5,"ahsaer12","2021_Jun_11_1201","circle","speed_accuracy_first","Practice",3,"Fixation","Go","speed_accuracy",1,0.0488974264126227,"post_correct_inh",84.5238095238095
80.8587562831353,0.1,"ahsaer12","2021_Jun_11_1201","circle","speed_accuracy_first","Practice",3,"Target","Go","speed_accuracy",1,0.0488974264126227,"post_correct_inh",84.5238095238095
80.9076537095479,0,"ahsaer12","2021_Jun_11_1201","circle","speed_accuracy_first","Practice",3,"Response","Go","speed_accuracy",1,0.0488974264126227,"post_correct_inh",84.5238095238095
81.9254044951258,0.5,"ahsaer12","2021_Jun_11_1201","circle","speed_accuracy_first","Practice",4,"Fixation","NoGo","speed_accuracy",0,0.145833471859987,"post_correct_resp",84.5238095238095
82.4087702641273,0.1,"ahsaer12","2021_Jun_11_1201","circle","speed_accuracy_first","Practice",4,"Target","NoGo","speed_accuracy",0,0.145833471859987,"post_correct_resp",84.5238095238095
82.5087821278476,1.04583347185999,"ahsaer12","2021_Jun_11_1201","circle","speed_accuracy_first","Practice",4,"ITI","NoGo","speed_accuracy",0,0.145833471859987,"post_correct_resp",84.5238095238095
82.5546037359873,0,"ahsaer12","2021_Jun_11_1201","circle","speed_accuracy_first","Practice",4,"Response","NoGo","speed_accuracy",0,0.145833471859987,"post_correct_resp",84.5238095238095
83.5754614864791,0.5,"ahsaer12","2021_Jun_11_1201","circle","speed_accuracy_first","Practice",5,"Fixation","Go","speed_accuracy",1,0.045831757045562,"post_error_resp",84.5238095238095
84.0587677618969,0.1,"ahsaer12","2021_Jun_11_1201","circle","speed_accuracy_first","Practice",5,"Target","Go","speed_accuracy",1,0.045831757045562,"post_error_resp",84.5238095238095
84.1045995189425,0,"ahsaer12","2021_Jun_11_1201","circle","speed_accuracy_first","Practice",5,"Response","Go","speed_accuracy",1,0.045831757045562,"post_error_resp",84.5238095238095
85.1254495702642,0.5,"ahsaer12","2021_Jun_11_1201","circle","speed_accuracy_first","Practice",6,"Fixation","Go","speed_accuracy",1,0.0238096821258296,"post_correct_resp",84.5238095238095
85.6087414972299,0.1,"ahsaer12","2021_Jun_11_1201","circle","speed_accuracy_first","Practice",6,"Target","Go","speed_accuracy",1,0.0238096821258296,"post_correct_resp",84.5238095238095
85.6325511793557,0,"ahsaer12","2021_Jun_11_1201","circle","speed_accuracy_first","Practice",6,"Response","Go","speed_accuracy",1,0.0238096821258296,"post_correct_resp",84.5238095238095
86.6587441044485,0.5,"ahsaer12","2021_Jun_11_1201","circle","speed_accuracy_first","Practice",7,"Fixation","Go","speed_accuracy",1,0.15448068925798,"post_correct_resp",84.5238095238095
87.1421105733752,0.1,"ahsaer12","2021_Jun_11_1201","circle","speed_accuracy_first","Practice",7,"Target","Go","speed_accuracy",1,0.15448068925798,"post_correct_resp",84.5238095238095
87.2420139487958,1.05448068925798,"ahsaer12","2021_Jun_11_1201","circle","speed_accuracy_first","Practice",7,"ITI","Go","speed_accuracy",1,0.15448068925798,"post_correct_resp",84.5238095238095
87.2965912626332,0,"ahsaer12","2021_Jun_11_1201","circle","speed_accuracy_first","Practice",7,"Response","Go","speed_accuracy",1,0.15448068925798,"post_correct_resp",84.5238095238095
88.325431652197,0.5,"ahsaer12","2021_Jun_11_1201","circle","speed_accuracy_first","Practice",8,"Fixation","NoGo","speed_accuracy",0,0.0867724415920748,"post_correct_resp",84.5238095238095
88.8087942715383,0.1,"ahsaer12","2021_Jun_11_1201","circle","speed_accuracy_first","Practice",8,"Target","NoGo","speed_accuracy",0,0.0867724415920748,"post_correct_resp",84.5238095238095
88.8955667131304,0,"ahsaer12","2021_Jun_11_1201","circle","speed_accuracy_first","Practice",8,"Response","NoGo","speed_accuracy",0,0.0867724415920748,"post_correct_resp",84.5238095238095
88.908742092166,1.08677244159207,"ahsaer12","2021_Jun_11_1201","circle","speed_accuracy_first","Practice",8,"ITI","NoGo","speed_accuracy",0,0.0867724415920748,"post_correct_resp",84.5238095238095
89.9254905858406,0.5,"ahsaer12","2021_Jun_11_1201","circle","speed_accuracy_first","Practice",9,"Fixation","Go","speed_accuracy",1,0.149739050642893,"post_error_resp",84.5238095238095
90.4087720139387,0.1,"ahsaer12","2021_Jun_11_1201","circle","speed_accuracy_first","Practice",9,"Target","Go","speed_accuracy",1,0.149739050642893,"post_error_resp",84.5238095238095
90.508767079471,1.04973905064289,"ahsaer12","2021_Jun_11_1201","circle","speed_accuracy_first","Practice",9,"ITI","Go","speed_accuracy",1,0.149739050642893,"post_error_resp",84.5238095238095
90.5585110645816,0,"ahsaer12","2021_Jun_11_1201","circle","speed_accuracy_first","Practice",9,"Response","Go","speed_accuracy",1,0.149739050642893,"post_error_resp",84.5238095238095
91.5754821342525,0.5,"ahsaer12","2021_Jun_11_1201","circle","speed_accuracy_first","Practice",10,"Fixation","Go","speed_accuracy",1,0.00273040552565362,"post_correct_resp",84.5238095238095
92.0587712615197,0.1,"ahsaer12","2021_Jun_11_1201","circle","speed_accuracy_first","Practice",10,"Target","Go","speed_accuracy",1,0.00273040552565362,"post_correct_resp",84.5238095238095
92.0615016670453,0,"ahsaer12","2021_Jun_11_1201","circle","speed_accuracy_first","Practice",10,"Response","Go","speed_accuracy",1,0.00273040552565362,"post_correct_resp",84.5238095238095
93.0921447121927,0.5,"ahsaer12","2021_Jun_11_1201","circle","speed_accuracy_first","Practice",11,"Fixation","NoGo","speed_accuracy",0,0.0350973647491628,"post_correct_resp",84.5238095238095
93.5753323504068,0.1,"ahsaer12","2021_Jun_11_1201","circle","speed_accuracy_first","Practice",11,"Target","NoGo","speed_accuracy",0,0.0350973647491628,"post_correct_resp",84.5238095238095
93.610429715156,0,"ahsaer12","2021_Jun_11_1201","circle","speed_accuracy_first","Practice",11,"Response","NoGo","speed_accuracy",0,0.0350973647491628,"post_correct_resp",84.5238095238095
94.6421474943927,0.5,"ahsaer12","2021_Jun_11_1201","circle","speed_accuracy_first","Practice",12,"Fixation","Go","speed_accuracy",1,0.0130752898294304,"post_error_resp",84.5238095238095
95.1254313722266,0.1,"ahsaer12","2021_Jun_11_1201","circle","speed_accuracy_first","Practice",12,"Target","Go","speed_accuracy",1,0.0130752898294304,"post_error_resp",84.5238095238095
95.138506662056,0,"ahsaer12","2021_Jun_11_1201","circle","speed_accuracy_first","Practice",12,"Response","Go","speed_accuracy",1,0.0130752898294304,"post_error_resp",84.5238095238095
96.1588048229005,0.5,"ahsaer12","2021_Jun_11_1201","circle","speed_accuracy_first","Practice",13,"Fixation","NoGo","speed_accuracy",1,NA,"post_correct_resp",84.5238095238095
96.6421492442041,0.1,"ahsaer12","2021_Jun_11_1201","circle","speed_accuracy_first","Practice",13,"Target","NoGo","speed_accuracy",1,NA,"post_correct_resp",84.5238095238095
96.7421208622654,1.5,"ahsaer12","2021_Jun_11_1201","circle","speed_accuracy_first","Practice",13,"ITI","NoGo","speed_accuracy",1,NA,"post_correct_resp",84.5238095238095
98.242034946531,0.5,"ahsaer12","2021_Jun_11_1201","circle","speed_accuracy_first","Practice",14,"Fixation","Go","speed_accuracy",0,NA,"post_correct_inh",84.5238095238095
98.7254318621744,0.1,"ahsaer12","2021_Jun_11_1201","circle","speed_accuracy_first","Practice",14,"Target","Go","speed_accuracy",0,NA,"post_correct_inh",84.5238095238095
98.8254279775929,1.5,"ahsaer12","2021_Jun_11_1201","circle","speed_accuracy_first","Practice",14,"ITI","Go","speed_accuracy",0,NA,"post_correct_inh",84.5238095238095
115.158688285469,0.5,"ahsaer12","2021_Jun_11_1201","circle","speed_accuracy_first","MainTask",0,"Fixation","Go","speed_accuracy",1,0.240051010498064,"post_error_inh",84.5238095238095
115.642131396129,0.1,"ahsaer12","2021_Jun_11_1201","circle","speed_accuracy_first","MainTask",0,"Target","Go","speed_accuracy",1,0.240051010498064,"post_error_inh",84.5238095238095
115.882182406627,0,"ahsaer12","2021_Jun_11_1201","circle","speed_accuracy_first","MainTask",0,"Response","Go","speed_accuracy",1,0.240051010498064,"post_error_inh",84.5238095238095
116.958786694855,0.5,"ahsaer12","2021_Jun_11_1201","circle","speed_accuracy_first","MainTask",1,"Fixation","NoGo","speed_accuracy",1,NA,"post_correct_resp",84.5238095238095
117.425410269503,0.1,"ahsaer12","2021_Jun_11_1201","circle","speed_accuracy_first","MainTask",1,"Target","NoGo","speed_accuracy",1,NA,"post_correct_resp",84.5238095238095
119.05863162658,0.5,"ahsaer12","2021_Jun_11_1201","circle","speed_accuracy_first","MainTask",2,"Fixation","Go","speed_accuracy",1,0.12427684674276,"post_correct_inh",84.5238095238095
119.541978847582,0.1,"ahsaer12","2021_Jun_11_1201","circle","speed_accuracy_first","MainTask",2,"Target","Go","speed_accuracy",1,0.12427684674276,"post_correct_inh",84.5238095238095
119.666255694325,0,"ahsaer12","2021_Jun_11_1201","circle","speed_accuracy_first","MainTask",2,"Response","Go","speed_accuracy",1,0.12427684674276,"post_correct_inh",84.5238095238095
120.725388116892,0.5,"ahsaer12","2021_Jun_11_1201","circle","speed_accuracy_first","MainTask",3,"Fixation","NoGo","speed_accuracy",1,NA,"post_correct_resp",84.5238095238095
121.192057186633,0.1,"ahsaer12","2021_Jun_11_1201","circle","speed_accuracy_first","MainTask",3,"Target","NoGo","speed_accuracy",1,NA,"post_correct_resp",84.5238095238095
122.825352735708,0.5,"ahsaer12","2021_Jun_11_1201","circle","speed_accuracy_first","MainTask",4,"Fixation","Go","speed_accuracy",1,0.179141829554283,"post_correct_inh",84.5238095238095
123.292077449448,0.1,"ahsaer12","2021_Jun_11_1201","circle","speed_accuracy_first","MainTask",4,"Target","Go","speed_accuracy",1,0.179141829554283,"post_correct_inh",84.5238095238095
123.471219279002,0,"ahsaer12","2021_Jun_11_1201","circle","speed_accuracy_first","MainTask",4,"Response","Go","speed_accuracy",1,0.179141829554283,"post_correct_inh",84.5238095238095
124.525377338055,0.5,"ahsaer12","2021_Jun_11_1201","circle","speed_accuracy_first","MainTask",5,"Fixation","NoGo","speed_accuracy",1,NA,"post_correct_resp",84.5238095238095
124.991975715419,0.1,"ahsaer12","2021_Jun_11_1201","circle","speed_accuracy_first","MainTask",5,"Target","NoGo","speed_accuracy",1,NA,"post_correct_resp",84.5238095238095
126.625423848039,0.5,"ahsaer12","2021_Jun_11_1201","circle","speed_accuracy_first","MainTask",6,"Fixation","Go","speed_accuracy",1,0.147089836360465,"post_correct_inh",84.5238095238095
127.092084518685,0.1,"ahsaer12","2021_Jun_11_1201","circle","speed_accuracy_first","MainTask",6,"Target","Go","speed_accuracy",1,0.147089836360465,"post_correct_inh",84.5238095238095
127.239174355045,0,"ahsaer12","2021_Jun_11_1201","circle","speed_accuracy_first","MainTask",6,"Response","Go","speed_accuracy",1,0.147089836360465,"post_correct_inh",84.5238095238095
128.292040003486,0.5,"ahsaer12","2021_Jun_11_1201","circle","speed_accuracy_first","MainTask",7,"Fixation","NoGo","speed_accuracy",1,NA,"post_correct_resp",84.5238095238095
128.775415571431,0.1,"ahsaer12","2021_Jun_11_1201","circle","speed_accuracy_first","MainTask",7,"Target","NoGo","speed_accuracy",1,NA,"post_correct_resp",84.5238095238095
130.391997623056,0.5,"ahsaer12","2021_Jun_11_1201","circle","speed_accuracy_first","MainTask",8,"Fixation","NoGo","speed_accuracy",0,0.127732724025918,"post_correct_inh",84.5238095238095
130.87541168685,0.1,"ahsaer12","2021_Jun_11_1201","circle","speed_accuracy_first","MainTask",8,"Target","NoGo","speed_accuracy",0,0.127732724025918,"post_correct_inh",84.5238095238095
131.003144410876,0,"ahsaer12","2021_Jun_11_1201","circle","speed_accuracy_first","MainTask",8,"Response","NoGo","speed_accuracy",0,0.127732724025918,"post_correct_inh",84.5238095238095
132.05869531971,0.5,"ahsaer12","2021_Jun_11_1201","circle","speed_accuracy_first","MainTask",9,"Fixation","Go","speed_accuracy",1,0.235686281234848,"post_error_resp",84.5238095238095
132.525371388696,0.1,"ahsaer12","2021_Jun_11_1201","circle","speed_accuracy_first","MainTask",9,"Target","Go","speed_accuracy",1,0.235686281234848,"post_error_resp",84.5238095238095
132.761057669931,0,"ahsaer12","2021_Jun_11_1201","circle","speed_accuracy_first","MainTask",9,"Response","Go","speed_accuracy",1,0.235686281234848,"post_error_resp",84.5238095238095
133.808635388674,0.5,"ahsaer12","2021_Jun_11_1201","circle","speed_accuracy_first","MainTask",10,"Fixation","Go","speed_accuracy",0,NA,"post_correct_resp",84.5238095238095
134.2921631902,0.1,"ahsaer12","2021_Jun_11_1201","circle","speed_accuracy_first","MainTask",10,"Target","Go","speed_accuracy",0,NA,"post_correct_resp",84.5238095238095
135.908635703639,0.5,"ahsaer12","2021_Jun_11_1201","circle","speed_accuracy_first","MainTask",11,"Fixation","Go","speed_accuracy",0,NA,"post_error_inh",84.5238095238095
136.392148456789,0.1,"ahsaer12","2021_Jun_11_1201","circle","speed_accuracy_first","MainTask",11,"Target","Go","speed_accuracy",0,NA,"post_error_inh",84.5238095238095
138.008781602904,0.5,"ahsaer12","2021_Jun_11_1201","circle","speed_accuracy_first","MainTask",12,"Fixation","Go","speed_accuracy",1,0.159962498044479,"post_error_inh",84.5238095238095
138.492058131531,0.1,"ahsaer12","2021_Jun_11_1201","circle","speed_accuracy_first","MainTask",12,"Target","Go","speed_accuracy",1,0.159962498044479,"post_error_inh",84.5238095238095
138.652020629575,0,"ahsaer12","2021_Jun_11_1201","circle","speed_accuracy_first","MainTask",12,"Response","Go","speed_accuracy",1,0.159962498044479,"post_error_inh",84.5238095238095
139.692028314746,0.5,"ahsaer12","2021_Jun_11_1201","circle","speed_accuracy_first","MainTask",13,"Fixation","Go","speed_accuracy",1,0.136678109266541,"post_correct_resp",84.5238095238095
140.175362587145,0.1,"ahsaer12","2021_Jun_11_1201","circle","speed_accuracy_first","MainTask",13,"Target","Go","speed_accuracy",1,0.136678109266541,"post_correct_resp",84.5238095238095
140.312040696412,0,"ahsaer12","2021_Jun_11_1201","circle","speed_accuracy_first","MainTask",13,"Response","Go","speed_accuracy",1,0.136678109266541,"post_correct_resp",84.5238095238095
141.358691365137,0.5,"ahsaer12","2021_Jun_11_1201","circle","speed_accuracy_first","MainTask",14,"Fixation","Go","speed_accuracy",1,0.0659472375900805,"post_correct_resp",84.5238095238095
141.842025987497,0.1,"ahsaer12","2021_Jun_11_1201","circle","speed_accuracy_first","MainTask",14,"Target","Go","speed_accuracy",1,0.0659472375900805,"post_correct_resp",84.5238095238095
141.907973225087,0,"ahsaer12","2021_Jun_11_1201","circle","speed_accuracy_first","MainTask",14,"Response","Go","speed_accuracy",1,0.0659472375900805,"post_correct_resp",84.5238095238095
142.942042050765,0.5,"ahsaer12","2021_Jun_11_1201","circle","speed_accuracy_first","MainTask",15,"Fixation","Go","speed_accuracy",1,0.0536565631391568,"post_correct_resp",84.5238095238095
143.425357425202,0.1,"ahsaer12","2021_Jun_11_1201","circle","speed_accuracy_first","MainTask",15,"Target","Go","speed_accuracy",1,0.0536565631391568,"post_correct_resp",84.5238095238095
143.479013988341,0,"ahsaer12","2021_Jun_11_1201","circle","speed_accuracy_first","MainTask",15,"Response","Go","speed_accuracy",1,0.0536565631391568,"post_correct_resp",84.5238095238095
144.542103434145,0.5,"ahsaer12","2021_Jun_11_1201","circle","speed_accuracy_first","MainTask",16,"Fixation","NoGo","speed_accuracy",0,0.136274602784397,"post_break",84.5238095238095
145.008727008792,0.1,"ahsaer12","2021_Jun_11_1201","circle","speed_accuracy_first","MainTask",16,"Target","NoGo","speed_accuracy",0,0.136274602784397,"post_break",84.5238095238095
145.145001611576,0,"ahsaer12","2021_Jun_11_1201","circle","speed_accuracy_first","MainTask",16,"Response","NoGo","speed_accuracy",0,0.136274602784397,"post_break",84.5238095238095
146.2086369985,0.5,"ahsaer12","2021_Jun_11_1201","circle","speed_accuracy_first","MainTask",17,"Fixation","Go","speed_accuracy",0,NA,"post_error_resp",84.5238095238095
146.692080459123,0.1,"ahsaer12","2021_Jun_11_1201","circle","speed_accuracy_first","MainTask",17,"Target","Go","speed_accuracy",0,NA,"post_error_resp",84.5238095238095
148.325294816955,0.5,"ahsaer12","2021_Jun_11_1201","circle","speed_accuracy_first","MainTask",18,"Fixation","NoGo","speed_accuracy",0,0.175170107903796,"post_error_inh",84.5238095238095
148.808783772671,0.1,"ahsaer12","2021_Jun_11_1201","circle","speed_accuracy_first","MainTask",18,"Target","NoGo","speed_accuracy",0,0.175170107903796,"post_error_inh",84.5238095238095
148.983953880575,0,"ahsaer12","2021_Jun_11_1201","circle","speed_accuracy_first","MainTask",18,"Response","NoGo","speed_accuracy",0,0.175170107903796,"post_error_inh",84.5238095238095
150.025412509262,0.5,"ahsaer12","2021_Jun_11_1201","circle","speed_accuracy_first","MainTask",19,"Fixation","NoGo","speed_accuracy",0,0.127267274225233,"post_error_resp",84.5238095238095
150.50866139087,0.1,"ahsaer12","2021_Jun_11_1201","circle","speed_accuracy_first","MainTask",19,"Target","NoGo","speed_accuracy",0,0.127267274225233,"post_error_resp",84.5238095238095
150.635928665095,0,"ahsaer12","2021_Jun_11_1201","circle","speed_accuracy_first","MainTask",19,"Response","NoGo","speed_accuracy",0,0.127267274225233,"post_error_resp",84.5238095238095
151.691986319276,0.5,"ahsaer12","2021_Jun_11_1201","circle","speed_accuracy_first","MainTask",20,"Fixation","Go","speed_accuracy",1,0.14656349312736,"post_error_resp",84.5238095238095
152.175354188052,0.1,"ahsaer12","2021_Jun_11_1201","circle","speed_accuracy_first","MainTask",20,"Target","Go","speed_accuracy",1,0.14656349312736,"post_error_resp",84.5238095238095
152.321917681179,0,"ahsaer12","2021_Jun_11_1201","circle","speed_accuracy_first","MainTask",20,"Response","Go","speed_accuracy",1,0.14656349312736,"post_error_resp",84.5238095238095
153.358727061287,0.5,"ahsaer12","2021_Jun_11_1201","circle","speed_accuracy_first","MainTask",21,"Fixation","Go","speed_accuracy",1,0.205851998861363,"post_correct_resp",84.5238095238095
153.84202948712,0.1,"ahsaer12","2021_Jun_11_1201","circle","speed_accuracy_first","MainTask",21,"Target","Go","speed_accuracy",1,0.205851998861363,"post_correct_resp",84.5238095238095
154.047881485981,0,"ahsaer12","2021_Jun_11_1201","circle","speed_accuracy_first","MainTask",21,"Response","Go","speed_accuracy",1,0.205851998861363,"post_correct_resp",84.5238095238095
155.092011726536,0.5,"ahsaer12","2021_Jun_11_1201","circle","speed_accuracy_first","MainTask",22,"Fixation","Go","speed_accuracy",1,0.155403539727558,"post_correct_resp",84.5238095238095
155.575439788819,0.1,"ahsaer12","2021_Jun_11_1201","circle","speed_accuracy_first","MainTask",22,"Target","Go","speed_accuracy",1,0.155403539727558,"post_correct_resp",84.5238095238095
155.730843328547,0,"ahsaer12","2021_Jun_11_1201","circle","speed_accuracy_first","MainTask",22,"Response","Go","speed_accuracy",1,0.155403539727558,"post_correct_resp",84.5238095238095
156.791999232883,0.5,"ahsaer12","2021_Jun_11_1201","circle","speed_accuracy_first","MainTask",23,"Fixation","NoGo","speed_accuracy",0,0.142210312617863,"post_correct_resp",84.5238095238095
157.258650104586,0.1,"ahsaer12","2021_Jun_11_1201","circle","speed_accuracy_first","MainTask",23,"Target","NoGo","speed_accuracy",0,0.142210312617863,"post_correct_resp",84.5238095238095
157.400860417204,0,"ahsaer12","2021_Jun_11_1201","circle","speed_accuracy_first","MainTask",23,"Response","NoGo","speed_accuracy",0,0.142210312617863,"post_correct_resp",84.5238095238095
158.458721076932,0.5,"ahsaer12","2021_Jun_11_1201","circle","speed_accuracy_first","MainTask",24,"Fixation","Go","speed_accuracy",1,0.0857704996515167,"post_error_resp",84.5238095238095
158.942077396953,0.1,"ahsaer12","2021_Jun_11_1201","circle","speed_accuracy_first","MainTask",24,"Target","Go","speed_accuracy",1,0.0857704996515167,"post_error_resp",84.5238095238095
159.027847896605,0,"ahsaer12","2021_Jun_11_1201","circle","speed_accuracy_first","MainTask",24,"Response","Go","speed_accuracy",1,0.0857704996515167,"post_error_resp",84.5238095238095
160.075353873085,0.5,"ahsaer12","2021_Jun_11_1201","circle","speed_accuracy_first","MainTask",25,"Fixation","Go","speed_accuracy",0,NA,"post_correct_resp",84.5238095238095
160.558689545333,0.1,"ahsaer12","2021_Jun_11_1201","circle","speed_accuracy_first","MainTask",25,"Target","Go","speed_accuracy",0,NA,"post_correct_resp",84.5238095238095
162.191983694559,0.5,"ahsaer12","2021_Jun_11_1201","circle","speed_accuracy_first","MainTask",26,"Fixation","NoGo","speed_accuracy",1,NA,"post_error_inh",84.5238095238095
162.67534001458,0.1,"ahsaer12","2021_Jun_11_1201","circle","speed_accuracy_first","MainTask",26,"Target","NoGo","speed_accuracy",1,NA,"post_error_inh",84.5238095238095
164.308673009617,0.5,"ahsaer12","2021_Jun_11_1201","circle","speed_accuracy_first","MainTask",27,"Fixation","Go","speed_accuracy",1,0.114717277741875,"post_correct_inh",84.5238095238095
164.792041928278,0.1,"ahsaer12","2021_Jun_11_1201","circle","speed_accuracy_first","MainTask",27,"Target","Go","speed_accuracy",1,0.114717277741875,"post_correct_inh",84.5238095238095
164.90675920602,0,"ahsaer12","2021_Jun_11_1201","circle","speed_accuracy_first","MainTask",27,"Response","Go","speed_accuracy",1,0.114717277741875,"post_correct_inh",84.5238095238095
165.942077046991,0.5,"ahsaer12","2021_Jun_11_1201","circle","speed_accuracy_first","MainTask",28,"Fixation","Go","speed_accuracy",1,0.220313839152368,"post_correct_resp",84.5238095238095
166.425381572598,0.1,"ahsaer12","2021_Jun_11_1201","circle","speed_accuracy_first","MainTask",28,"Target","Go","speed_accuracy",1,0.220313839152368,"post_correct_resp",84.5238095238095
166.64569541175,0,"ahsaer12","2021_Jun_11_1201","circle","speed_accuracy_first","MainTask",28,"Response","Go","speed_accuracy",1,0.220313839152368,"post_correct_resp",84.5238095238095
167.692056661689,0.5,"ahsaer12","2021_Jun_11_1201","circle","speed_accuracy_first","MainTask",29,"Fixation","Go","speed_accuracy",1,0.29133272976469,"post_correct_resp",84.5238095238095
168.175422080729,0.1,"ahsaer12","2021_Jun_11_1201","circle","speed_accuracy_first","MainTask",29,"Target","Go","speed_accuracy",1,0.29133272976469,"post_correct_resp",84.5238095238095
168.466754810494,0,"ahsaer12","2021_Jun_11_1201","circle","speed_accuracy_first","MainTask",29,"Response","Go","speed_accuracy",1,0.29133272976469,"post_correct_resp",84.5238095238095
169.50870023668,0.5,"ahsaer12","2021_Jun_11_1201","circle","speed_accuracy_first","MainTask",30,"Fixation","Go","speed_accuracy",1,0.0205606325362169,"post_correct_resp",84.5238095238095
169.992090853002,0.1,"ahsaer12","2021_Jun_11_1201","circle","speed_accuracy_first","MainTask",30,"Target","Go","speed_accuracy",1,0.0205606325362169,"post_correct_resp",84.5238095238095
170.012651485538,0,"ahsaer12","2021_Jun_11_1201","circle","speed_accuracy_first","MainTask",30,"Response","Go","speed_accuracy",1,0.0205606325362169,"post_correct_resp",84.5238095238095
171.042001070185,0.5,"ahsaer12","2021_Jun_11_1201","circle","speed_accuracy_first","MainTask",31,"Fixation","Go","speed_accuracy",1,0.0143372537268078,"post_correct_resp",84.5238095238095
171.525363339564,0.1,"ahsaer12","2021_Jun_11_1201","circle","speed_accuracy_first","MainTask",31,"Target","Go","speed_accuracy",1,0.0143372537268078,"post_correct_resp",84.5238095238095
171.539700593291,0,"ahsaer12","2021_Jun_11_1201","circle","speed_accuracy_first","MainTask",31,"Response","Go","speed_accuracy",1,0.0143372537268078,"post_correct_resp",84.5238095238095
172.592039198573,0.5,"ahsaer12","2021_Jun_11_1201","circle","speed_accuracy_first","MainTask",32,"Fixation","NoGo","speed_accuracy",0,0.00234194742097316,"post_correct_resp",84.5238095238095
173.075394118745,0.1,"ahsaer12","2021_Jun_11_1201","circle","speed_accuracy_first","MainTask",32,"Target","NoGo","speed_accuracy",0,0.00234194742097316,"post_correct_resp",84.5238095238095
173.077736066166,0,"ahsaer12","2021_Jun_11_1201","circle","speed_accuracy_first","MainTask",32,"Response","NoGo","speed_accuracy",0,0.00234194742097316,"post_correct_resp",84.5238095238095
174.125382027549,0.5,"ahsaer12","2021_Jun_11_1201","circle","speed_accuracy_first","MainTask",33,"Fixation","NoGo","speed_accuracy",0,0.0370081586697779,"post_error_resp",84.5238095238095
174.608665905383,0.1,"ahsaer12","2021_Jun_11_1201","circle","speed_accuracy_first","MainTask",33,"Target","NoGo","speed_accuracy",0,0.0370081586697779,"post_error_resp",84.5238095238095
174.645674064053,0,"ahsaer12","2021_Jun_11_1201","circle","speed_accuracy_first","MainTask",33,"Response","NoGo","speed_accuracy",0,0.0370081586697779,"post_error_resp",84.5238095238095
175.70866797016,0.5,"ahsaer12","2021_Jun_11_1201","circle","speed_accuracy_first","MainTask",34,"Fixation","Go","speed_accuracy",1,0.120268379055233,"post_error_resp",84.5238095238095
176.175375185787,0.1,"ahsaer12","2021_Jun_11_1201","circle","speed_accuracy_first","MainTask",34,"Target","Go","speed_accuracy",1,0.120268379055233,"post_error_resp",84.5238095238095
176.295643564842,0,"ahsaer12","2021_Jun_11_1201","circle","speed_accuracy_first","MainTask",34,"Response","Go","speed_accuracy",1,0.120268379055233,"post_error_resp",84.5238095238095
177.341996415687,0.5,"ahsaer12","2021_Jun_11_1201","circle","speed_accuracy_first","MainTask",35,"Fixation","Go","speed_accuracy",1,0.156238899635355,"post_correct_resp",84.5238095238095
177.825377583028,0.1,"ahsaer12","2021_Jun_11_1201","circle","speed_accuracy_first","MainTask",35,"Target","Go","speed_accuracy",1,0.156238899635355,"post_correct_resp",84.5238095238095
177.981616482663,0,"ahsaer12","2021_Jun_11_1201","circle","speed_accuracy_first","MainTask",35,"Response","Go","speed_accuracy",1,0.156238899635355,"post_correct_resp",84.5238095238095
179.025335167603,0.5,"ahsaer12","2021_Jun_11_1201","circle","speed_accuracy_first","MainTask",36,"Fixation","Go","speed_accuracy",1,0.185031344369236,"post_correct_resp",84.5238095238095
179.508614495927,0.1,"ahsaer12","2021_Jun_11_1201","circle","speed_accuracy_first","MainTask",36,"Target","Go","speed_accuracy",1,0.185031344369236,"post_correct_resp",84.5238095238095
179.693645840296,0,"ahsaer12","2021_Jun_11_1201","circle","speed_accuracy_first","MainTask",36,"Response","Go","speed_accuracy",1,0.185031344369236,"post_correct_resp",84.5238095238095
180.742027422343,0.5,"ahsaer12","2021_Jun_11_1201","circle","speed_accuracy_first","MainTask",37,"Fixation","Go","speed_accuracy",1,0.164367123004922,"post_correct_resp",84.5238095238095
181.225219610065,0.1,"ahsaer12","2021_Jun_11_1201","circle","speed_accuracy_first","MainTask",37,"Target","Go","speed_accuracy",1,0.164367123004922,"post_correct_resp",84.5238095238095
181.38958673307,0,"ahsaer12","2021_Jun_11_1201","circle","speed_accuracy_first","MainTask",37,"Response","Go","speed_accuracy",1,0.164367123004922,"post_correct_resp",84.5238095238095
182.441923588542,0.5,"ahsaer12","2021_Jun_11_1201","circle","speed_accuracy_first","MainTask",38,"Fixation","Go","speed_accuracy",1,0.176938467186119,"post_correct_resp",84.5238095238095
182.908659501073,0.1,"ahsaer12","2021_Jun_11_1201","circle","speed_accuracy_first","MainTask",38,"Target","Go","speed_accuracy",1,0.176938467186119,"post_correct_resp",84.5238095238095
183.085597968259,0,"ahsaer12","2021_Jun_11_1201","circle","speed_accuracy_first","MainTask",38,"Response","Go","speed_accuracy",1,0.176938467186119,"post_correct_resp",84.5238095238095
184.142041980773,0.5,"ahsaer12","2021_Jun_11_1201","circle","speed_accuracy_first","MainTask",39,"Fixation","NoGo","speed_accuracy",0,0.153878404214083,"post_correct_resp",84.5238095238095
184.608703001381,0.1,"ahsaer12","2021_Jun_11_1201","circle","speed_accuracy_first","MainTask",39,"Target","NoGo","speed_accuracy",0,0.153878404214083,"post_correct_resp",84.5238095238095
184.762581405595,0,"ahsaer12","2021_Jun_11_1201","circle","speed_accuracy_first","MainTask",39,"Response","NoGo","speed_accuracy",0,0.153878404214083,"post_correct_resp",84.5238095238095
185.825315989671,0.5,"ahsaer12","2021_Jun_11_1201","circle","speed_accuracy_first","MainTask",40,"Fixation","Go","speed_accuracy",1,0.163427474347372,"post_error_resp",84.5238095238095
186.292120844767,0.1,"ahsaer12","2021_Jun_11_1201","circle","speed_accuracy_first","MainTask",40,"Target","Go","speed_accuracy",1,0.163427474347372,"post_error_resp",84.5238095238095
186.455548319114,0,"ahsaer12","2021_Jun_11_1201","circle","speed_accuracy_first","MainTask",40,"Response","Go","speed_accuracy",1,0.163427474347372,"post_error_resp",84.5238095238095
187.492065480738,0.5,"ahsaer12","2021_Jun_11_1201","circle","speed_accuracy_first","MainTask",41,"Fixation","Go","speed_accuracy",1,0.249095435056915,"post_correct_resp",84.5238095238095
187.975368256534,0.1,"ahsaer12","2021_Jun_11_1201","circle","speed_accuracy_first","MainTask",41,"Target","Go","speed_accuracy",1,0.249095435056915,"post_correct_resp",84.5238095238095
188.224463691591,0,"ahsaer12","2021_Jun_11_1201","circle","speed_accuracy_first","MainTask",41,"Response","Go","speed_accuracy",1,0.249095435056915,"post_correct_resp",84.5238095238095
189.275255813661,0.5,"ahsaer12","2021_Jun_11_1201","circle","speed_accuracy_first","MainTask",42,"Fixation","NoGo","speed_accuracy",1,NA,"post_correct_resp",84.5238095238095
189.742072567474,0.1,"ahsaer12","2021_Jun_11_1201","circle","speed_accuracy_first","MainTask",42,"Target","NoGo","speed_accuracy",1,NA,"post_correct_resp",84.5238095238095
191.375452107491,0.5,"ahsaer12","2021_Jun_11_1201","circle","speed_accuracy_first","MainTask",43,"Fixation","Go","speed_accuracy",1,0.157825978468281,"post_correct_inh",84.5238095238095
191.8586453451,0.1,"ahsaer12","2021_Jun_11_1201","circle","speed_accuracy_first","MainTask",43,"Target","Go","speed_accuracy",1,0.157825978468281,"post_correct_inh",84.5238095238095
192.016471323568,0,"ahsaer12","2021_Jun_11_1201","circle","speed_accuracy_first","MainTask",43,"Response","Go","speed_accuracy",1,0.157825978468281,"post_correct_inh",84.5238095238095
193.058643525296,0.5,"ahsaer12","2021_Jun_11_1201","circle","speed_accuracy_first","MainTask",44,"Fixation","Go","speed_accuracy",1,0.206485430546309,"post_correct_resp",84.5238095238095
193.542030991958,0.1,"ahsaer12","2021_Jun_11_1201","circle","speed_accuracy_first","MainTask",44,"Target","Go","speed_accuracy",1,0.206485430546309,"post_correct_resp",84.5238095238095
193.748516422504,0,"ahsaer12","2021_Jun_11_1201","circle","speed_accuracy_first","MainTask",44,"Response","Go","speed_accuracy",1,0.206485430546309,"post_correct_resp",84.5238095238095
194.808768024369,0.5,"ahsaer12","2021_Jun_11_1201","circle","speed_accuracy_first","MainTask",45,"Fixation","NoGo","speed_accuracy",1,NA,"post_correct_resp",84.5238095238095
195.291982959639,0.1,"ahsaer12","2021_Jun_11_1201","circle","speed_accuracy_first","MainTask",45,"Target","NoGo","speed_accuracy",1,NA,"post_correct_resp",84.5238095238095
196.908714095185,0.5,"ahsaer12","2021_Jun_11_1201","circle","speed_accuracy_first","MainTask",46,"Fixation","NoGo","speed_accuracy",0,0.0414477798567532,"post_correct_inh",84.5238095238095
197.392019320717,0.1,"ahsaer12","2021_Jun_11_1201","circle","speed_accuracy_first","MainTask",46,"Target","NoGo","speed_accuracy",0,0.0414477798567532,"post_correct_inh",84.5238095238095
197.433467100574,0,"ahsaer12","2021_Jun_11_1201","circle","speed_accuracy_first","MainTask",46,"Response","NoGo","speed_accuracy",0,0.0414477798567532,"post_correct_inh",84.5238095238095
198.49191534693,0.5,"ahsaer12","2021_Jun_11_1201","circle","speed_accuracy_first","MainTask",47,"Fixation","Go","speed_accuracy",1,0.162711101607783,"post_error_resp",84.5238095238095
198.958725101498,0.1,"ahsaer12","2021_Jun_11_1201","circle","speed_accuracy_first","MainTask",47,"Target","Go","speed_accuracy",1,0.162711101607783,"post_error_resp",84.5238095238095
199.121436203106,0,"ahsaer12","2021_Jun_11_1201","circle","speed_accuracy_first","MainTask",47,"Response","Go","speed_accuracy",1,0.162711101607783,"post_error_resp",84.5238095238095
200.158662388262,0.5,"ahsaer12","2021_Jun_11_1201","circle","speed_accuracy_first","MainTask",48,"Fixation","Go","speed_accuracy",1,0.248414758468243,"post_correct_resp",84.5238095238095
200.641997010623,0.1,"ahsaer12","2021_Jun_11_1201","circle","speed_accuracy_first","MainTask",48,"Target","Go","speed_accuracy",1,0.248414758468243,"post_correct_resp",84.5238095238095
200.890411769091,0,"ahsaer12","2021_Jun_11_1201","circle","speed_accuracy_first","MainTask",48,"Response","Go","speed_accuracy",1,0.248414758468243,"post_correct_resp",84.5238095238095
201.925323653844,0.5,"ahsaer12","2021_Jun_11_1201","circle","speed_accuracy_first","MainTask",49,"Fixation","Go","speed_accuracy",1,0.187747051480073,"post_correct_resp",84.5238095238095
202.408647077413,0.1,"ahsaer12","2021_Jun_11_1201","circle","speed_accuracy_first","MainTask",49,"Target","Go","speed_accuracy",1,0.187747051480073,"post_correct_resp",84.5238095238095
202.596394128893,0,"ahsaer12","2021_Jun_11_1201","circle","speed_accuracy_first","MainTask",49,"Response","Go","speed_accuracy",1,0.187747051480073,"post_correct_resp",84.5238095238095
203.642030606999,0.5,"ahsaer12","2021_Jun_11_1201","circle","speed_accuracy_first","MainTask",50,"Fixation","Go","speed_accuracy",1,0.0419510255815112,"post_correct_resp",84.5238095238095
204.125397075925,0.1,"ahsaer12","2021_Jun_11_1201","circle","speed_accuracy_first","MainTask",50,"Target","Go","speed_accuracy",1,0.0419510255815112,"post_correct_resp",84.5238095238095
204.167348101507,0,"ahsaer12","2021_Jun_11_1201","circle","speed_accuracy_first","MainTask",50,"Response","Go","speed_accuracy",1,0.0419510255815112,"post_correct_resp",84.5238095238095
205.208613551029,0.5,"ahsaer12","2021_Jun_11_1201","circle","speed_accuracy_first","MainTask",51,"Fixation","Go","speed_accuracy",1,0.175423480577592,"post_correct_resp",84.5238095238095
205.691937674522,0.1,"ahsaer12","2021_Jun_11_1201","circle","speed_accuracy_first","MainTask",51,"Target","Go","speed_accuracy",1,0.175423480577592,"post_correct_resp",84.5238095238095
205.8673611551,0,"ahsaer12","2021_Jun_11_1201","circle","speed_accuracy_first","MainTask",51,"Response","Go","speed_accuracy",1,0.175423480577592,"post_correct_resp",84.5238095238095
206.908676649224,0.5,"ahsaer12","2021_Jun_11_1201","circle","speed_accuracy_first","MainTask",52,"Fixation","Go","speed_accuracy",1,0.0823867145927579,"post_correct_resp",84.5238095238095
207.391918181625,0.1,"ahsaer12","2021_Jun_11_1201","circle","speed_accuracy_first","MainTask",52,"Target","Go","speed_accuracy",1,0.0823867145927579,"post_correct_resp",84.5238095238095
207.474304896218,0,"ahsaer12","2021_Jun_11_1201","circle","speed_accuracy_first","MainTask",52,"Response","Go","speed_accuracy",1,0.0823867145927579,"post_correct_resp",84.5238095238095
208.525264300246,0.5,"ahsaer12","2021_Jun_11_1201","circle","speed_accuracy_first","MainTask",53,"Fixation","NoGo","speed_accuracy",1,NA,"post_correct_resp",84.5238095238095
208.992040808399,0.1,"ahsaer12","2021_Jun_11_1201","circle","speed_accuracy_first","MainTask",53,"Target","NoGo","speed_accuracy",1,NA,"post_correct_resp",84.5238095238095
210.625289462532,0.5,"ahsaer12","2021_Jun_11_1201","circle","speed_accuracy_first","MainTask",54,"Fixation","Go","speed_accuracy",1,0.204585485455027,"post_correct_inh",84.5238095238095
211.10870737591,0.1,"ahsaer12","2021_Jun_11_1201","circle","speed_accuracy_first","MainTask",54,"Target","Go","speed_accuracy",1,0.204585485455027,"post_correct_inh",84.5238095238095
211.313292861365,0,"ahsaer12","2021_Jun_11_1201","circle","speed_accuracy_first","MainTask",54,"Response","Go","speed_accuracy",1,0.204585485455027,"post_correct_inh",84.5238095238095
212.375293224626,0.5,"ahsaer12","2021_Jun_11_1201","circle","speed_accuracy_first","MainTask",55,"Fixation","NoGo","speed_accuracy",0,0.15228957556883,"post_correct_resp",84.5238095238095
212.842036486365,0.1,"ahsaer12","2021_Jun_11_1201","circle","speed_accuracy_first","MainTask",55,"Target","NoGo","speed_accuracy",0,0.15228957556883,"post_correct_resp",84.5238095238095
212.994326061934,0,"ahsaer12","2021_Jun_11_1201","circle","speed_accuracy_first","MainTask",55,"Response","NoGo","speed_accuracy",0,0.15228957556883,"post_correct_resp",84.5238095238095
214.058676421749,0.5,"ahsaer12","2021_Jun_11_1201","circle","speed_accuracy_first","MainTask",56,"Fixation","Go","speed_accuracy",1,0.157921868126323,"post_error_resp",84.5238095238095
214.525319944244,0.1,"ahsaer12","2021_Jun_11_1201","circle","speed_accuracy_first","MainTask",56,"Target","Go","speed_accuracy",1,0.157921868126323,"post_error_resp",84.5238095238095
214.68324181237,0,"ahsaer12","2021_Jun_11_1201","circle","speed_accuracy_first","MainTask",56,"Response","Go","speed_accuracy",1,0.157921868126323,"post_error_resp",84.5238095238095
215.742023572758,0.5,"ahsaer12","2021_Jun_11_1201","circle","speed_accuracy_first","MainTask",57,"Fixation","NoGo","speed_accuracy",1,NA,"post_correct_resp",84.5238095238095
216.225273504253,0.1,"ahsaer12","2021_Jun_11_1201","circle","speed_accuracy_first","MainTask",57,"Target","NoGo","speed_accuracy",1,NA,"post_correct_resp",84.5238095238095
217.858675441854,0.5,"ahsaer12","2021_Jun_11_1201","circle","speed_accuracy_first","MainTask",58,"Fixation","Go","speed_accuracy",1,0.153976043683542,"post_correct_inh",84.5238095238095
218.325294466992,0.1,"ahsaer12","2021_Jun_11_1201","circle","speed_accuracy_first","MainTask",58,"Target","Go","speed_accuracy",1,0.153976043683542,"post_correct_inh",84.5238095238095
218.479270510676,0,"ahsaer12","2021_Jun_11_1201","circle","speed_accuracy_first","MainTask",58,"Response","Go","speed_accuracy",1,0.153976043683542,"post_correct_inh",84.5238095238095
219.525337442357,0.5,"ahsaer12","2021_Jun_11_1201","circle","speed_accuracy_first","MainTask",59,"Fixation","NoGo","speed_accuracy",1,NA,"post_correct_resp",84.5238095238095
220.008604871965,0.1,"ahsaer12","2021_Jun_11_1201","circle","speed_accuracy_first","MainTask",59,"Target","NoGo","speed_accuracy",1,NA,"post_correct_resp",84.5238095238095
221.641993511,0.5,"ahsaer12","2021_Jun_11_1201","circle","speed_accuracy_first","MainTask",60,"Fixation","Go","speed_accuracy",1,0.148515582593973,"post_correct_inh",84.5238095238095
222.108655231534,0.1,"ahsaer12","2021_Jun_11_1201","circle","speed_accuracy_first","MainTask",60,"Target","Go","speed_accuracy",1,0.148515582593973,"post_correct_inh",84.5238095238095
222.257170814128,0,"ahsaer12","2021_Jun_11_1201","circle","speed_accuracy_first","MainTask",60,"Response","Go","speed_accuracy",1,0.148515582593973,"post_correct_inh",84.5238095238095
223.308661110899,0.5,"ahsaer12","2021_Jun_11_1201","circle","speed_accuracy_first","MainTask",61,"Fixation","NoGo","speed_accuracy",0,0.181243352903948,"post_correct_resp",84.5238095238095
223.791951987979,0.1,"ahsaer12","2021_Jun_11_1201","circle","speed_accuracy_first","MainTask",61,"Target","NoGo","speed_accuracy",0,0.181243352903948,"post_correct_resp",84.5238095238095
223.973195340883,0,"ahsaer12","2021_Jun_11_1201","circle","speed_accuracy_first","MainTask",61,"Response","NoGo","speed_accuracy",0,0.181243352903948,"post_correct_resp",84.5238095238095
225.025375763224,0.5,"ahsaer12","2021_Jun_11_1201","circle","speed_accuracy_first","MainTask",62,"Fixation","Go","speed_accuracy",1,0.154180421642195,"post_error_resp",84.5238095238095
225.491995838249,0.1,"ahsaer12","2021_Jun_11_1201","circle","speed_accuracy_first","MainTask",62,"Target","Go","speed_accuracy",1,0.154180421642195,"post_error_resp",84.5238095238095
225.646176259891,0,"ahsaer12","2021_Jun_11_1201","circle","speed_accuracy_first","MainTask",62,"Response","Go","speed_accuracy",1,0.154180421642195,"post_error_resp",84.5238095238095
226.692069960255,0.5,"ahsaer12","2021_Jun_11_1201","circle","speed_accuracy_first","MainTask",63,"Fixation","Go","speed_accuracy",1,0.208768584308018,"post_correct_resp",84.5238095238095
227.175377985484,0.1,"ahsaer12","2021_Jun_11_1201","circle","speed_accuracy_first","MainTask",63,"Target","Go","speed_accuracy",1,0.208768584308018,"post_correct_resp",84.5238095238095
227.384146569792,0,"ahsaer12","2021_Jun_11_1201","circle","speed_accuracy_first","MainTask",63,"Response","Go","speed_accuracy",1,0.208768584308018,"post_correct_resp",84.5238095238095
228.441923938503,0.5,"ahsaer12","2021_Jun_11_1201","circle","speed_accuracy_first","MainTask",64,"Fixation","Go","speed_accuracy",1,0.291339379048623,"post_correct_resp",84.5238095238095
228.908702196469,0.1,"ahsaer12","2021_Jun_11_1201","circle","speed_accuracy_first","MainTask",64,"Target","Go","speed_accuracy",1,0.291339379048623,"post_correct_resp",84.5238095238095
229.200041575518,0,"ahsaer12","2021_Jun_11_1201","circle","speed_accuracy_first","MainTask",64,"Response","Go","speed_accuracy",1,0.291339379048623,"post_correct_resp",84.5238095238095
230.242008699362,0.5,"ahsaer12","2021_Jun_11_1201","circle","speed_accuracy_first","MainTask",65,"Fixation","Go","speed_accuracy",1,0.202742934174239,"post_correct_resp",84.5238095238095
230.725349971006,0.1,"ahsaer12","2021_Jun_11_1201","circle","speed_accuracy_first","MainTask",65,"Target","Go","speed_accuracy",1,0.202742934174239,"post_correct_resp",84.5238095238095
230.92809290518,0,"ahsaer12","2021_Jun_11_1201","circle","speed_accuracy_first","MainTask",65,"Response","Go","speed_accuracy",1,0.202742934174239,"post_correct_resp",84.5238095238095
231.975335010119,0.5,"ahsaer12","2021_Jun_11_1201","circle","speed_accuracy_first","MainTask",66,"Fixation","Go","speed_accuracy",1,0.25348711141487,"post_correct_resp",84.5238095238095
232.45856254403,0.1,"ahsaer12","2021_Jun_11_1201","circle","speed_accuracy_first","MainTask",66,"Target","Go","speed_accuracy",1,0.25348711141487,"post_correct_resp",84.5238095238095
232.712049655445,0,"ahsaer12","2021_Jun_11_1201","circle","speed_accuracy_first","MainTask",66,"Response","Go","speed_accuracy",1,0.25348711141487,"post_correct_resp",84.5238095238095
233.758694374812,0.5,"ahsaer12","2021_Jun_11_1201","circle","speed_accuracy_first","MainTask",67,"Fixation","Go","speed_accuracy",1,0.145204589685818,"post_correct_resp",84.5238095238095
234.241884462761,0.1,"ahsaer12","2021_Jun_11_1201","circle","speed_accuracy_first","MainTask",67,"Target","Go","speed_accuracy",1,0.145204589685818,"post_correct_resp",84.5238095238095
234.387089052447,0,"ahsaer12","2021_Jun_11_1201","circle","speed_accuracy_first","MainTask",67,"Response","Go","speed_accuracy",1,0.145204589685818,"post_correct_resp",84.5238095238095
235.425326978486,0.5,"ahsaer12","2021_Jun_11_1201","circle","speed_accuracy_first","MainTask",68,"Fixation","Go","speed_accuracy",1,0.146413359319013,"post_correct_resp",84.5238095238095
235.908636753526,0.1,"ahsaer12","2021_Jun_11_1201","circle","speed_accuracy_first","MainTask",68,"Target","Go","speed_accuracy",1,0.146413359319013,"post_correct_resp",84.5238095238095
236.055050112845,0,"ahsaer12","2021_Jun_11_1201","circle","speed_accuracy_first","MainTask",68,"Response","Go","speed_accuracy",1,0.146413359319013,"post_correct_resp",84.5238095238095
237.092040773403,0.5,"ahsaer12","2021_Jun_11_1201","circle","speed_accuracy_first","MainTask",69,"Fixation","Go","speed_accuracy",1,0.151747134071229,"post_correct_resp",84.5238095238095
237.575278806181,0.1,"ahsaer12","2021_Jun_11_1201","circle","speed_accuracy_first","MainTask",69,"Target","Go","speed_accuracy",1,0.151747134071229,"post_correct_resp",84.5238095238095
237.727025940252,0,"ahsaer12","2021_Jun_11_1201","circle","speed_accuracy_first","MainTask",69,"Response","Go","speed_accuracy",1,0.151747134071229,"post_correct_resp",84.5238095238095
238.791948138393,0.5,"ahsaer12","2021_Jun_11_1201","circle","speed_accuracy_first","MainTask",70,"Fixation","NoGo","speed_accuracy",0,0.144640800489469,"post_correct_resp",84.5238095238095
239.275317407018,0.1,"ahsaer12","2021_Jun_11_1201","circle","speed_accuracy_first","MainTask",70,"Target","NoGo","speed_accuracy",0,0.144640800489469,"post_correct_resp",84.5238095238095
239.419958207507,0,"ahsaer12","2021_Jun_11_1201","circle","speed_accuracy_first","MainTask",70,"Response","NoGo","speed_accuracy",0,0.144640800489469,"post_correct_resp",84.5238095238095
240.458643735274,0.5,"ahsaer12","2021_Jun_11_1201","circle","speed_accuracy_first","MainTask",71,"Fixation","NoGo","speed_accuracy",1,NA,"post_error_resp",84.5238095238095
240.941952460427,0.1,"ahsaer12","2021_Jun_11_1201","circle","speed_accuracy_first","MainTask",71,"Target","NoGo","speed_accuracy",1,NA,"post_error_resp",84.5238095238095
242.558620952731,0.5,"ahsaer12","2021_Jun_11_1201","circle","speed_accuracy_first","MainTask",72,"Fixation","NoGo","speed_accuracy",1,NA,"post_correct_inh",84.5238095238095
243.041970623469,0.1,"ahsaer12","2021_Jun_11_1201","circle","speed_accuracy_first","MainTask",72,"Target","NoGo","speed_accuracy",1,NA,"post_correct_inh",84.5238095238095
244.675216127941,0.5,"ahsaer12","2021_Jun_11_1201","circle","speed_accuracy_first","MainTask",73,"Fixation","Go","speed_accuracy",1,0.163456871176095,"post_correct_inh",84.5238095238095
245.158571048113,0.1,"ahsaer12","2021_Jun_11_1201","circle","speed_accuracy_first","MainTask",73,"Target","Go","speed_accuracy",1,0.163456871176095,"post_correct_inh",84.5238095238095
245.322027919289,0,"ahsaer12","2021_Jun_11_1201","circle","speed_accuracy_first","MainTask",73,"Response","Go","speed_accuracy",1,0.163456871176095,"post_correct_inh",84.5238095238095
246.375318771871,0.5,"ahsaer12","2021_Jun_11_1201","circle","speed_accuracy_first","MainTask",74,"Fixation","NoGo","speed_accuracy",0,0.16900972230178,"post_correct_resp",84.5238095238095
246.84194094667,0.1,"ahsaer12","2021_Jun_11_1201","circle","speed_accuracy_first","MainTask",74,"Target","NoGo","speed_accuracy",0,0.16900972230178,"post_correct_resp",84.5238095238095
247.010950668972,0,"ahsaer12","2021_Jun_11_1201","circle","speed_accuracy_first","MainTask",74,"Response","NoGo","speed_accuracy",0,0.16900972230178,"post_correct_resp",84.5238095238095
248.058697419484,0.5,"ahsaer12","2021_Jun_11_1201","circle","speed_accuracy_first","MainTask",75,"Fixation","NoGo","speed_accuracy",1,NA,"post_error_resp",84.5238095238095
248.541933002526,0.1,"ahsaer12","2021_Jun_11_1201","circle","speed_accuracy_first","MainTask",75,"Target","NoGo","speed_accuracy",1,NA,"post_error_resp",84.5238095238095
250.175307993033,0.5,"ahsaer12","2021_Jun_11_1201","circle","speed_accuracy_first","MainTask",76,"Fixation","Go","speed_accuracy",1,0.207910826817169,"post_correct_inh",84.5238095238095
250.64200435983,0.1,"ahsaer12","2021_Jun_11_1201","circle","speed_accuracy_first","MainTask",76,"Target","Go","speed_accuracy",1,0.207910826817169,"post_correct_inh",84.5238095238095
250.849915186647,0,"ahsaer12","2021_Jun_11_1201","circle","speed_accuracy_first","MainTask",76,"Response","Go","speed_accuracy",1,0.207910826817169,"post_correct_inh",84.5238095238095
251.891942154039,0.5,"ahsaer12","2021_Jun_11_1201","circle","speed_accuracy_first","MainTask",77,"Fixation","Go","speed_accuracy",1,0.191470999852754,"post_correct_resp",84.5238095238095
252.375394013756,0.1,"ahsaer12","2021_Jun_11_1201","circle","speed_accuracy_first","MainTask",77,"Target","Go","speed_accuracy",1,0.191470999852754,"post_correct_resp",84.5238095238095
252.566865013609,0,"ahsaer12","2021_Jun_11_1201","circle","speed_accuracy_first","MainTask",77,"Response","Go","speed_accuracy",1,0.191470999852754,"post_correct_resp",84.5238095238095
253.608528020253,0.5,"ahsaer12","2021_Jun_11_1201","circle","speed_accuracy_first","MainTask",78,"Fixation","Go","speed_accuracy",1,0.244882239449908,"post_correct_resp",84.5238095238095
254.09201242646,0.1,"ahsaer12","2021_Jun_11_1201","circle","speed_accuracy_first","MainTask",78,"Target","Go","speed_accuracy",1,0.244882239449908,"post_correct_resp",84.5238095238095
254.33689466591,0,"ahsaer12","2021_Jun_11_1201","circle","speed_accuracy_first","MainTask",78,"Response","Go","speed_accuracy",1,0.244882239449908,"post_correct_resp",84.5238095238095
255.391981174831,0.5,"ahsaer12","2021_Jun_11_1201","circle","speed_accuracy_first","MainTask",79,"Fixation","NoGo","speed_accuracy",0,0.104464083548919,"post_correct_resp",84.5238095238095
255.875351843304,0.1,"ahsaer12","2021_Jun_11_1201","circle","speed_accuracy_first","MainTask",79,"Target","NoGo","speed_accuracy",0,0.104464083548919,"post_correct_resp",84.5238095238095
255.979815926853,0,"ahsaer12","2021_Jun_11_1201","circle","speed_accuracy_first","MainTask",79,"Response","NoGo","speed_accuracy",0,0.104464083548919,"post_correct_resp",84.5238095238095
257.041998620449,0.5,"ahsaer12","2021_Jun_11_1201","circle","speed_accuracy_first","MainTask",80,"Fixation","Go","speed_accuracy",1,0.260524502432418,"post_error_resp",84.5238095238095
257.525314694811,0.1,"ahsaer12","2021_Jun_11_1201","circle","speed_accuracy_first","MainTask",80,"Target","Go","speed_accuracy",1,0.260524502432418,"post_error_resp",84.5238095238095
257.785839197243,0,"ahsaer12","2021_Jun_11_1201","circle","speed_accuracy_first","MainTask",80,"Response","Go","speed_accuracy",1,0.260524502432418,"post_error_resp",84.5238095238095
258.825255096238,0.5,"ahsaer12","2021_Jun_11_1201","circle","speed_accuracy_first","MainTask",81,"Fixation","Go","speed_accuracy",1,0.215204740168701,"post_correct_resp",84.5238095238095
259.308580969543,0.1,"ahsaer12","2021_Jun_11_1201","circle","speed_accuracy_first","MainTask",81,"Target","Go","speed_accuracy",1,0.215204740168701,"post_correct_resp",84.5238095238095
259.523785709712,0,"ahsaer12","2021_Jun_11_1201","circle","speed_accuracy_first","MainTask",81,"Response","Go","speed_accuracy",1,0.215204740168701,"post_correct_resp",84.5238095238095
260.55859295575,0.5,"ahsaer12","2021_Jun_11_1201","circle","speed_accuracy_first","MainTask",82,"Fixation","Go","speed_accuracy",1,0.193832895121886,"post_correct_resp",84.5238095238095
261.041912879697,0.1,"ahsaer12","2021_Jun_11_1201","circle","speed_accuracy_first","MainTask",82,"Target","Go","speed_accuracy",1,0.193832895121886,"post_correct_resp",84.5238095238095
261.235745774819,0,"ahsaer12","2021_Jun_11_1201","circle","speed_accuracy_first","MainTask",82,"Response","Go","speed_accuracy",1,0.193832895121886,"post_correct_resp",84.5238095238095
262.275271212,0.5,"ahsaer12","2021_Jun_11_1201","circle","speed_accuracy_first","MainTask",83,"Fixation","Go","speed_accuracy",1,0.226193904987667,"post_correct_resp",84.5238095238095
262.758583786739,0.1,"ahsaer12","2021_Jun_11_1201","circle","speed_accuracy_first","MainTask",83,"Target","Go","speed_accuracy",1,0.226193904987667,"post_correct_resp",84.5238095238095
262.984777691727,0,"ahsaer12","2021_Jun_11_1201","circle","speed_accuracy_first","MainTask",83,"Response","Go","speed_accuracy",1,0.226193904987667,"post_correct_resp",84.5238095238095
264.025331318017,0.5,"ahsaer12","2021_Jun_11_1201","circle","speed_accuracy_first","MainTask",84,"Fixation","Go","speed_accuracy",1,0.233040566575255,"post_correct_resp",84.5238095238095
264.508691487624,0.1,"ahsaer12","2021_Jun_11_1201","circle","speed_accuracy_first","MainTask",84,"Target","Go","speed_accuracy",1,0.233040566575255,"post_correct_resp",84.5238095238095
264.741732054199,0,"ahsaer12","2021_Jun_11_1201","circle","speed_accuracy_first","MainTask",84,"Response","Go","speed_accuracy",1,0.233040566575255,"post_correct_resp",84.5238095238095
265.77538127513,0.5,"ahsaer12","2021_Jun_11_1201","circle","speed_accuracy_first","MainTask",85,"Fixation","Go","speed_accuracy",1,0.189082507451531,"post_correct_resp",84.5238095238095
266.258586761418,0.1,"ahsaer12","2021_Jun_11_1201","circle","speed_accuracy_first","MainTask",85,"Target","Go","speed_accuracy",1,0.189082507451531,"post_correct_resp",84.5238095238095
266.44766926887,0,"ahsaer12","2021_Jun_11_1201","circle","speed_accuracy_first","MainTask",85,"Response","Go","speed_accuracy",1,0.189082507451531,"post_correct_resp",84.5238095238095
267.49194789342,0.5,"ahsaer12","2021_Jun_11_1201","circle","speed_accuracy_first","MainTask",86,"Fixation","Go","speed_accuracy",1,0.173431145451104,"post_correct_resp",84.5238095238095
267.975309112912,0.1,"ahsaer12","2021_Jun_11_1201","circle","speed_accuracy_first","MainTask",86,"Target","Go","speed_accuracy",1,0.173431145451104,"post_correct_resp",84.5238095238095
268.148740258363,0,"ahsaer12","2021_Jun_11_1201","circle","speed_accuracy_first","MainTask",86,"Response","Go","speed_accuracy",1,0.173431145451104,"post_correct_resp",84.5238095238095
269.191902503316,0.5,"ahsaer12","2021_Jun_11_1201","circle","speed_accuracy_first","MainTask",87,"Fixation","Go","speed_accuracy",1,0.228509255276549,"post_correct_resp",84.5238095238095
269.675195480168,0.1,"ahsaer12","2021_Jun_11_1201","circle","speed_accuracy_first","MainTask",87,"Target","Go","speed_accuracy",1,0.228509255276549,"post_correct_resp",84.5238095238095
269.903704735445,0,"ahsaer12","2021_Jun_11_1201","circle","speed_accuracy_first","MainTask",87,"Response","Go","speed_accuracy",1,0.228509255276549,"post_correct_resp",84.5238095238095
270.941987456653,0.5,"ahsaer12","2021_Jun_11_1201","circle","speed_accuracy_first","MainTask",88,"Fixation","Go","speed_accuracy",1,0.1623922859917,"post_correct_resp",84.5238095238095
271.42528568294,0.1,"ahsaer12","2021_Jun_11_1201","circle","speed_accuracy_first","MainTask",88,"Target","Go","speed_accuracy",1,0.1623922859917,"post_correct_resp",84.5238095238095
271.587677968932,0,"ahsaer12","2021_Jun_11_1201","circle","speed_accuracy_first","MainTask",88,"Response","Go","speed_accuracy",1,0.1623922859917,"post_correct_resp",84.5238095238095
272.625411949321,0.5,"ahsaer12","2021_Jun_11_1201","circle","speed_accuracy_first","MainTask",89,"Fixation","Go","speed_accuracy",1,0.128027042283065,"post_correct_resp",84.5238095238095
273.108607636666,0.1,"ahsaer12","2021_Jun_11_1201","circle","speed_accuracy_first","MainTask",89,"Target","Go","speed_accuracy",1,0.128027042283065,"post_correct_resp",84.5238095238095
273.236634678949,0,"ahsaer12","2021_Jun_11_1201","circle","speed_accuracy_first","MainTask",89,"Response","Go","speed_accuracy",1,0.128027042283065,"post_correct_resp",84.5238095238095
274.275219417586,0.5,"ahsaer12","2021_Jun_11_1201","circle","speed_accuracy_first","MainTask",90,"Fixation","Go","speed_accuracy",1,0.14889879126531,"post_correct_resp",84.5238095238095
274.758670927341,0.1,"ahsaer12","2021_Jun_11_1201","circle","speed_accuracy_first","MainTask",90,"Target","Go","speed_accuracy",1,0.14889879126531,"post_correct_resp",84.5238095238095
274.907569718606,0,"ahsaer12","2021_Jun_11_1201","circle","speed_accuracy_first","MainTask",90,"Response","Go","speed_accuracy",1,0.14889879126531,"post_correct_resp",84.5238095238095
275.942001805106,0.5,"ahsaer12","2021_Jun_11_1201","circle","speed_accuracy_first","MainTask",91,"Fixation","Go","speed_accuracy",1,0.247282980530144,"post_correct_resp",84.5238095238095
276.4252888326,0.1,"ahsaer12","2021_Jun_11_1201","circle","speed_accuracy_first","MainTask",91,"Target","Go","speed_accuracy",1,0.247282980530144,"post_correct_resp",84.5238095238095
276.67257181313,0,"ahsaer12","2021_Jun_11_1201","circle","speed_accuracy_first","MainTask",91,"Response","Go","speed_accuracy",1,0.247282980530144,"post_correct_resp",84.5238095238095
277.725231683763,0.5,"ahsaer12","2021_Jun_11_1201","circle","speed_accuracy_first","MainTask",92,"Fixation","NoGo","speed_accuracy",0,0.190135193919559,"post_correct_resp",84.5238095238095
278.208513111861,0.1,"ahsaer12","2021_Jun_11_1201","circle","speed_accuracy_first","MainTask",92,"Target","NoGo","speed_accuracy",0,0.190135193919559,"post_correct_resp",84.5238095238095
278.398648305781,0,"ahsaer12","2021_Jun_11_1201","circle","speed_accuracy_first","MainTask",92,"Response","NoGo","speed_accuracy",0,0.190135193919559,"post_correct_resp",84.5238095238095
279.44206917284,0.5,"ahsaer12","2021_Jun_11_1201","circle","speed_accuracy_first","MainTask",93,"Fixation","NoGo","speed_accuracy",0,0.147373655750926,"post_error_resp",84.5238095238095
279.925224964488,0.1,"ahsaer12","2021_Jun_11_1201","circle","speed_accuracy_first","MainTask",93,"Target","NoGo","speed_accuracy",0,0.147373655750926,"post_error_resp",84.5238095238095
280.072598620239,0,"ahsaer12","2021_Jun_11_1201","circle","speed_accuracy_first","MainTask",93,"Response","NoGo","speed_accuracy",0,0.147373655750926,"post_error_resp",84.5238095238095
281.125145103101,0.5,"ahsaer12","2021_Jun_11_1201","circle","speed_accuracy_first","MainTask",94,"Fixation","Go","speed_accuracy",1,0.201029868928345,"post_error_resp",84.5238095238095
281.608572115498,0.1,"ahsaer12","2021_Jun_11_1201","circle","speed_accuracy_first","MainTask",94,"Target","Go","speed_accuracy",1,0.201029868928345,"post_error_resp",84.5238095238095
281.809601984426,0,"ahsaer12","2021_Jun_11_1201","circle","speed_accuracy_first","MainTask",94,"Response","Go","speed_accuracy",1,0.201029868928345,"post_error_resp",84.5238095238095
282.875239155457,0.5,"ahsaer12","2021_Jun_11_1201","circle","speed_accuracy_first","MainTask",95,"Fixation","NoGo","speed_accuracy",0,0.192920193557256,"post_correct_resp",84.5238095238095
283.358621722648,0.1,"ahsaer12","2021_Jun_11_1201","circle","speed_accuracy_first","MainTask",95,"Target","NoGo","speed_accuracy",0,0.192920193557256,"post_correct_resp",84.5238095238095
283.551541916205,0,"ahsaer12","2021_Jun_11_1201","circle","speed_accuracy_first","MainTask",95,"Response","NoGo","speed_accuracy",0,0.192920193557256,"post_correct_resp",84.5238095238095
284.608680953759,0.5,"ahsaer12","2021_Jun_11_1201","circle","speed_accuracy_first","MainTask",96,"Fixation","NoGo","speed_accuracy",0,0.113191792265752,"post_error_resp",84.5238095238095
285.075367171651,0.1,"ahsaer12","2021_Jun_11_1201","circle","speed_accuracy_first","MainTask",96,"Target","NoGo","speed_accuracy",0,0.113191792265752,"post_error_resp",84.5238095238095
285.188558963917,0,"ahsaer12","2021_Jun_11_1201","circle","speed_accuracy_first","MainTask",96,"Response","NoGo","speed_accuracy",0,0.113191792265752,"post_error_resp",84.5238095238095
286.241906510383,0.5,"ahsaer12","2021_Jun_11_1201","circle","speed_accuracy_first","MainTask",97,"Fixation","Go","speed_accuracy",1,0.206906085178161,"post_error_resp",84.5238095238095
286.708644172726,0.1,"ahsaer12","2021_Jun_11_1201","circle","speed_accuracy_first","MainTask",97,"Target","Go","speed_accuracy",1,0.206906085178161,"post_error_resp",84.5238095238095
286.915550257904,0,"ahsaer12","2021_Jun_11_1201","circle","speed_accuracy_first","MainTask",97,"Response","Go","speed_accuracy",1,0.206906085178161,"post_error_resp",84.5238095238095
287.958622562557,0.5,"ahsaer12","2021_Jun_11_1201","circle","speed_accuracy_first","MainTask",98,"Fixation","Go","speed_accuracy",1,0.177589396983421,"post_correct_resp",84.5238095238095
288.441956834956,0.1,"ahsaer12","2021_Jun_11_1201","circle","speed_accuracy_first","MainTask",98,"Target","Go","speed_accuracy",1,0.177589396983421,"post_correct_resp",84.5238095238095
288.619546231939,0,"ahsaer12","2021_Jun_11_1201","circle","speed_accuracy_first","MainTask",98,"Response","Go","speed_accuracy",1,0.177589396983421,"post_correct_resp",84.5238095238095
289.65856912332,0.5,"ahsaer12","2021_Jun_11_1201","circle","speed_accuracy_first","MainTask",99,"Fixation","Go","speed_accuracy",1,0.167608823388036,"post_correct_resp",84.5238095238095
290.141839002664,0.1,"ahsaer12","2021_Jun_11_1201","circle","speed_accuracy_first","MainTask",99,"Target","Go","speed_accuracy",1,0.167608823388036,"post_correct_resp",84.5238095238095
290.309447826052,0,"ahsaer12","2021_Jun_11_1201","circle","speed_accuracy_first","MainTask",99,"Response","Go","speed_accuracy",1,0.167608823388036,"post_correct_resp",84.5238095238095
291.358671767251,0.5,"ahsaer12","2021_Jun_11_1201","circle","speed_accuracy_first","MainTask",100,"Fixation","Go","speed_accuracy",0,NA,"post_correct_resp",84.5238095238095
291.841899301161,0.1,"ahsaer12","2021_Jun_11_1201","circle","speed_accuracy_first","MainTask",100,"Target","Go","speed_accuracy",0,NA,"post_correct_resp",84.5238095238095
293.475394328722,0.5,"ahsaer12","2021_Jun_11_1201","circle","speed_accuracy_first","MainTask",101,"Fixation","NoGo","speed_accuracy",0,0.17581228864492,"post_error_inh",84.5238095238095
293.958636561048,0.1,"ahsaer12","2021_Jun_11_1201","circle","speed_accuracy_first","MainTask",101,"Target","NoGo","speed_accuracy",0,0.17581228864492,"post_error_inh",84.5238095238095
294.134448849693,0,"ahsaer12","2021_Jun_11_1201","circle","speed_accuracy_first","MainTask",101,"Response","NoGo","speed_accuracy",0,0.17581228864492,"post_error_inh",84.5238095238095
295.175171507753,0.5,"ahsaer12","2021_Jun_11_1201","circle","speed_accuracy_first","MainTask",102,"Fixation","NoGo","speed_accuracy",0,0.128840354567728,"post_error_resp",84.5238095238095
295.658611818716,0.1,"ahsaer12","2021_Jun_11_1201","circle","speed_accuracy_first","MainTask",102,"Target","NoGo","speed_accuracy",0,0.128840354567728,"post_error_resp",84.5238095238095
295.787452173284,0,"ahsaer12","2021_Jun_11_1201","circle","speed_accuracy_first","MainTask",102,"Response","NoGo","speed_accuracy",0,0.128840354567728,"post_error_resp",84.5238095238095
296.84183560803,0.5,"ahsaer12","2021_Jun_11_1201","circle","speed_accuracy_first","MainTask",103,"Fixation","Go","speed_accuracy",1,0.163169552163708,"post_error_resp",84.5238095238095
297.325271019521,0.1,"ahsaer12","2021_Jun_11_1201","circle","speed_accuracy_first","MainTask",103,"Target","Go","speed_accuracy",1,0.163169552163708,"post_error_resp",84.5238095238095
297.488440571685,0,"ahsaer12","2021_Jun_11_1201","circle","speed_accuracy_first","MainTask",103,"Response","Go","speed_accuracy",1,0.163169552163708,"post_error_resp",84.5238095238095
298.525191858059,0.5,"ahsaer12","2021_Jun_11_1201","circle","speed_accuracy_first","MainTask",104,"Fixation","Go","speed_accuracy",1,0.257939331243506,"post_correct_resp",84.5238095238095
299.008495683741,0.1,"ahsaer12","2021_Jun_11_1201","circle","speed_accuracy_first","MainTask",104,"Target","Go","speed_accuracy",1,0.257939331243506,"post_correct_resp",84.5238095238095
299.266435014984,0,"ahsaer12","2021_Jun_11_1201","circle","speed_accuracy_first","MainTask",104,"Response","Go","speed_accuracy",1,0.257939331243506,"post_correct_resp",84.5238095238095
300.308540723883,0.5,"ahsaer12","2021_Jun_11_1201","circle","speed_accuracy_first","MainTask",105,"Fixation","Go","speed_accuracy",1,0.192553083150415,"post_correct_resp",84.5238095238095
300.791852248735,0.1,"ahsaer12","2021_Jun_11_1201","circle","speed_accuracy_first","MainTask",105,"Target","Go","speed_accuracy",1,0.192553083150415,"post_correct_resp",84.5238095238095
300.984405331885,0,"ahsaer12","2021_Jun_11_1201","circle","speed_accuracy_first","MainTask",105,"Response","Go","speed_accuracy",1,0.192553083150415,"post_correct_resp",84.5238095238095
302.041897831319,0.5,"ahsaer12","2021_Jun_11_1201","circle","speed_accuracy_first","MainTask",106,"Fixation","NoGo","speed_accuracy",0,0.160931193570832,"post_correct_resp",84.5238095238095
302.508455963025,0.1,"ahsaer12","2021_Jun_11_1201","circle","speed_accuracy_first","MainTask",106,"Target","NoGo","speed_accuracy",0,0.160931193570832,"post_correct_resp",84.5238095238095
302.669387156596,0,"ahsaer12","2021_Jun_11_1201","circle","speed_accuracy_first","MainTask",106,"Response","NoGo","speed_accuracy",0,0.160931193570832,"post_correct_resp",84.5238095238095
303.725225384443,0.5,"ahsaer12","2021_Jun_11_1201","circle","speed_accuracy_first","MainTask",107,"Fixation","Go","speed_accuracy",1,0.134842557230513,"post_error_resp",84.5238095238095
304.208530959936,0.1,"ahsaer12","2021_Jun_11_1201","circle","speed_accuracy_first","MainTask",107,"Target","Go","speed_accuracy",1,0.134842557230513,"post_error_resp",84.5238095238095
304.343373517167,0,"ahsaer12","2021_Jun_11_1201","circle","speed_accuracy_first","MainTask",107,"Response","Go","speed_accuracy",1,0.134842557230513,"post_error_resp",84.5238095238095
305.408592133339,0.5,"ahsaer12","2021_Jun_11_1201","circle","speed_accuracy_first","MainTask",108,"Fixation","NoGo","speed_accuracy",1,NA,"post_correct_resp",84.5238095238095
305.891969101132,0.1,"ahsaer12","2021_Jun_11_1201","circle","speed_accuracy_first","MainTask",108,"Target","NoGo","speed_accuracy",1,NA,"post_correct_resp",84.5238095238095
307.525259400774,0.5,"ahsaer12","2021_Jun_11_1201","circle","speed_accuracy_first","MainTask",109,"Fixation","Go","speed_accuracy",1,0.188633155913521,"post_correct_inh",84.5238095238095
308.008624119889,0.1,"ahsaer12","2021_Jun_11_1201","circle","speed_accuracy_first","MainTask",109,"Target","Go","speed_accuracy",1,0.188633155913521,"post_correct_inh",84.5238095238095
308.197257275803,0,"ahsaer12","2021_Jun_11_1201","circle","speed_accuracy_first","MainTask",109,"Response","Go","speed_accuracy",1,0.188633155913521,"post_correct_inh",84.5238095238095
309.241822519441,0.5,"ahsaer12","2021_Jun_11_1201","circle","speed_accuracy_first","MainTask",110,"Fixation","Go","speed_accuracy",1,0.190041404034673,"post_correct_resp",84.5238095238095
309.72527157946,0.1,"ahsaer12","2021_Jun_11_1201","circle","speed_accuracy_first","MainTask",110,"Target","Go","speed_accuracy",1,0.190041404034673,"post_correct_resp",84.5238095238095
309.915312983495,0,"ahsaer12","2021_Jun_11_1201","circle","speed_accuracy_first","MainTask",110,"Response","Go","speed_accuracy",1,0.190041404034673,"post_correct_resp",84.5238095238095
310.958620462783,0.5,"ahsaer12","2021_Jun_11_1201","circle","speed_accuracy_first","MainTask",111,"Fixation","Go","speed_accuracy",1,0.158372619513102,"post_correct_resp",84.5238095238095
311.441923588542,0.1,"ahsaer12","2021_Jun_11_1201","circle","speed_accuracy_first","MainTask",111,"Target","Go","speed_accuracy",1,0.158372619513102,"post_correct_resp",84.5238095238095
311.600296208055,0,"ahsaer12","2021_Jun_11_1201","circle","speed_accuracy_first","MainTask",111,"Response","Go","speed_accuracy",1,0.158372619513102,"post_correct_resp",84.5238095238095
312.658509279775,0.5,"ahsaer12","2021_Jun_11_1201","circle","speed_accuracy_first","MainTask",112,"Fixation","Go","speed_accuracy",1,0.224033937939566,"post_correct_resp",84.5238095238095
313.125255341211,0.1,"ahsaer12","2021_Jun_11_1201","circle","speed_accuracy_first","MainTask",112,"Target","Go","speed_accuracy",1,0.224033937939566,"post_correct_resp",84.5238095238095
313.349289279151,0,"ahsaer12","2021_Jun_11_1201","circle","speed_accuracy_first","MainTask",112,"Response","Go","speed_accuracy",1,0.224033937939566,"post_correct_resp",84.5238095238095
314.40869152262,0.5,"ahsaer12","2021_Jun_11_1201","circle","speed_accuracy_first","MainTask",113,"Fixation","NoGo","speed_accuracy",0,0.15592463352823,"post_correct_resp",84.5238095238095
314.875296549268,0.1,"ahsaer12","2021_Jun_11_1201","circle","speed_accuracy_first","MainTask",113,"Target","NoGo","speed_accuracy",0,0.15592463352823,"post_correct_resp",84.5238095238095
315.031221182796,0,"ahsaer12","2021_Jun_11_1201","circle","speed_accuracy_first","MainTask",113,"Response","NoGo","speed_accuracy",0,0.15592463352823,"post_correct_resp",84.5238095238095
316.091963781707,0.5,"ahsaer12","2021_Jun_11_1201","circle","speed_accuracy_first","MainTask",114,"Fixation","Go","speed_accuracy",1,0.176591304628346,"post_error_resp",84.5238095238095
316.558613953485,0.1,"ahsaer12","2021_Jun_11_1201","circle","speed_accuracy_first","MainTask",114,"Target","Go","speed_accuracy",1,0.176591304628346,"post_error_resp",84.5238095238095
316.735205258113,0,"ahsaer12","2021_Jun_11_1201","circle","speed_accuracy_first","MainTask",114,"Response","Go","speed_accuracy",1,0.176591304628346,"post_error_resp",84.5238095238095
317.775206643963,0.5,"ahsaer12","2021_Jun_11_1201","circle","speed_accuracy_first","MainTask",115,"Fixation","Go","speed_accuracy",0,NA,"post_correct_resp",84.5238095238095
318.258582561871,0.1,"ahsaer12","2021_Jun_11_1201","circle","speed_accuracy_first","MainTask",115,"Target","Go","speed_accuracy",0,NA,"post_correct_resp",84.5238095238095
319.875222007307,0.5,"ahsaer12","2021_Jun_11_1201","circle","speed_accuracy_first","MainTask",116,"Fixation","Go","speed_accuracy",1,0.190686734435985,"post_error_inh",84.5238095238095
320.358519183706,0.1,"ahsaer12","2021_Jun_11_1201","circle","speed_accuracy_first","MainTask",116,"Target","Go","speed_accuracy",1,0.190686734435985,"post_error_inh",84.5238095238095
320.549205918142,0,"ahsaer12","2021_Jun_11_1201","circle","speed_accuracy_first","MainTask",116,"Response","Go","speed_accuracy",1,0.190686734435985,"post_error_inh",84.5238095238095
321.591891164539,0.5,"ahsaer12","2021_Jun_11_1201","circle","speed_accuracy_first","MainTask",117,"Fixation","Go","speed_accuracy",1,0.15699131848578,"post_correct_resp",84.5238095238095
322.075205139126,0.1,"ahsaer12","2021_Jun_11_1201","circle","speed_accuracy_first","MainTask",117,"Target","Go","speed_accuracy",1,0.15699131848578,"post_correct_resp",84.5238095238095
322.232196457612,0,"ahsaer12","2021_Jun_11_1201","circle","speed_accuracy_first","MainTask",117,"Response","Go","speed_accuracy",1,0.15699131848578,"post_correct_resp",84.5238095238095
323.291873771414,0.5,"ahsaer12","2021_Jun_11_1201","circle","speed_accuracy_first","MainTask",118,"Fixation","NoGo","speed_accuracy",1,NA,"post_correct_resp",84.5238095238095
323.758568738362,0.1,"ahsaer12","2021_Jun_11_1201","circle","speed_accuracy_first","MainTask",118,"Target","NoGo","speed_accuracy",1,NA,"post_correct_resp",84.5238095238095
325.375234430967,0.5,"ahsaer12","2021_Jun_11_1201","circle","speed_accuracy_first","MainTask",119,"Fixation","NoGo","speed_accuracy",0,0.207524818448292,"post_correct_inh",84.5238095238095
325.858609298987,0.1,"ahsaer12","2021_Jun_11_1201","circle","speed_accuracy_first","MainTask",119,"Target","NoGo","speed_accuracy",0,0.207524818448292,"post_correct_inh",84.5238095238095
326.066134117435,0,"ahsaer12","2021_Jun_11_1201","circle","speed_accuracy_first","MainTask",119,"Response","NoGo","speed_accuracy",0,0.207524818448292,"post_correct_inh",84.5238095238095
327.125288237664,0.5,"ahsaer12","2021_Jun_11_1201","circle","speed_accuracy_first","MainTask",120,"Fixation","Go","speed_accuracy",1,0.155497679575092,"post_error_resp",84.5238095238095
327.608632309006,0.1,"ahsaer12","2021_Jun_11_1201","circle","speed_accuracy_first","MainTask",120,"Target","Go","speed_accuracy",1,0.155497679575092,"post_error_resp",84.5238095238095
327.764129988581,0,"ahsaer12","2021_Jun_11_1201","circle","speed_accuracy_first","MainTask",120,"Response","Go","speed_accuracy",1,0.155497679575092,"post_error_resp",84.5238095238095
328.808586393958,0.5,"ahsaer12","2021_Jun_11_1201","circle","speed_accuracy_first","MainTask",121,"Fixation","Go","speed_accuracy",1,0.196219287749955,"post_correct_resp",84.5238095238095
329.291866072244,0.1,"ahsaer12","2021_Jun_11_1201","circle","speed_accuracy_first","MainTask",121,"Target","Go","speed_accuracy",1,0.196219287749955,"post_correct_resp",84.5238095238095
329.488085359994,0,"ahsaer12","2021_Jun_11_1201","circle","speed_accuracy_first","MainTask",121,"Response","Go","speed_accuracy",1,0.196219287749955,"post_correct_resp",84.5238095238095
330.541917254224,0.5,"ahsaer12","2021_Jun_11_1201","circle","speed_accuracy_first","MainTask",122,"Fixation","NoGo","speed_accuracy",1,NA,"post_correct_resp",84.5238095238095
331.008595073022,0.1,"ahsaer12","2021_Jun_11_1201","circle","speed_accuracy_first","MainTask",122,"Target","NoGo","speed_accuracy",1,NA,"post_correct_resp",84.5238095238095
332.625192173025,0.5,"ahsaer12","2021_Jun_11_1201","circle","speed_accuracy_first","MainTask",123,"Fixation","NoGo","speed_accuracy",1,NA,"post_correct_inh",84.5238095238095
333.108580339611,0.1,"ahsaer12","2021_Jun_11_1201","circle","speed_accuracy_first","MainTask",123,"Target","NoGo","speed_accuracy",1,NA,"post_correct_inh",84.5238095238095
334.741942381514,0.5,"ahsaer12","2021_Jun_11_1201","circle","speed_accuracy_first","MainTask",124,"Fixation","Go","speed_accuracy",1,0.27386926320014,"post_correct_inh",84.5238095238095
335.225135269162,0.1,"ahsaer12","2021_Jun_11_1201","circle","speed_accuracy_first","MainTask",124,"Target","Go","speed_accuracy",1,0.27386926320014,"post_correct_inh",84.5238095238095
335.499004532362,0,"ahsaer12","2021_Jun_11_1201","circle","speed_accuracy_first","MainTask",124,"Response","Go","speed_accuracy",1,0.27386926320014,"post_correct_inh",84.5238095238095
336.558570908128,0.5,"ahsaer12","2021_Jun_11_1201","circle","speed_accuracy_first","MainTask",125,"Fixation","NoGo","speed_accuracy",1,NA,"post_correct_resp",84.5238095238095
337.025240677794,0.1,"ahsaer12","2021_Jun_11_1201","circle","speed_accuracy_first","MainTask",125,"Target","NoGo","speed_accuracy",1,NA,"post_correct_resp",84.5238095238095
338.691933474975,19.8699134298367,"ahsaer12","2021_Jun_11_1201","circle","speed_accuracy_first","MainTask",125,"Break",NA,NA,NA,NA,NA,84.5238095238095
360.558392427377,0.5,"ahsaer12","2021_Jun_11_1201","circle","speed_accuracy_first","MainTask",126,"Fixation","NoGo","speed_accuracy",1,NA,"post_break",84.5238095238095
361.04183903766,0.1,"ahsaer12","2021_Jun_11_1201","circle","speed_accuracy_first","MainTask",126,"Target","NoGo","speed_accuracy",1,NA,"post_break",84.5238095238095
362.65853027751,0.5,"ahsaer12","2021_Jun_11_1201","circle","speed_accuracy_first","MainTask",127,"Fixation","NoGo","speed_accuracy",1,NA,"post_correct_inh",84.5238095238095
363.141832003419,0.1,"ahsaer12","2021_Jun_11_1201","circle","speed_accuracy_first","MainTask",127,"Target","NoGo","speed_accuracy",1,NA,"post_correct_inh",84.5238095238095
364.775178646983,0.5,"ahsaer12","2021_Jun_11_1201","circle","speed_accuracy_first","MainTask",128,"Fixation","Go","speed_accuracy",1,0.190272379123599,"post_correct_inh",84.5238095238095
365.258474423534,0.1,"ahsaer12","2021_Jun_11_1201","circle","speed_accuracy_first","MainTask",128,"Target","Go","speed_accuracy",1,0.190272379123599,"post_correct_inh",84.5238095238095
365.448746802658,0,"ahsaer12","2021_Jun_11_1201","circle","speed_accuracy_first","MainTask",128,"Response","Go","speed_accuracy",1,0.190272379123599,"post_correct_inh",84.5238095238095
366.49187965078,0.5,"ahsaer12","2021_Jun_11_1201","circle","speed_accuracy_first","MainTask",129,"Fixation","Go","speed_accuracy",1,0.277406331727434,"post_correct_resp",84.5238095238095
366.975234220989,0.1,"ahsaer12","2021_Jun_11_1201","circle","speed_accuracy_first","MainTask",129,"Target","Go","speed_accuracy",1,0.277406331727434,"post_correct_resp",84.5238095238095
367.252640552716,0,"ahsaer12","2021_Jun_11_1201","circle","speed_accuracy_first","MainTask",129,"Response","Go","speed_accuracy",1,0.277406331727434,"post_correct_resp",84.5238095238095
368.308542473695,0.5,"ahsaer12","2021_Jun_11_1201","circle","speed_accuracy_first","MainTask",130,"Fixation","Go","speed_accuracy",1,0.181465228974957,"post_correct_resp",84.5238095238095
368.775249339359,0.1,"ahsaer12","2021_Jun_11_1201","circle","speed_accuracy_first","MainTask",130,"Target","Go","speed_accuracy",1,0.181465228974957,"post_correct_resp",84.5238095238095
368.956714568334,0,"ahsaer12","2021_Jun_11_1201","circle","speed_accuracy_first","MainTask",130,"Response","Go","speed_accuracy",1,0.181465228974957,"post_correct_resp",84.5238095238095
370.008502333024,0.5,"ahsaer12","2021_Jun_11_1201","circle","speed_accuracy_first","MainTask",131,"Fixation","NoGo","speed_accuracy",0,0.16579286923843,"post_correct_resp",84.5238095238095
370.491905198025,0.1,"ahsaer12","2021_Jun_11_1201","circle","speed_accuracy_first","MainTask",131,"Target","NoGo","speed_accuracy",0,0.16579286923843,"post_correct_resp",84.5238095238095
370.657698067263,0,"ahsaer12","2021_Jun_11_1201","circle","speed_accuracy_first","MainTask",131,"Response","NoGo","speed_accuracy",0,0.16579286923843,"post_correct_resp",84.5238095238095
371.6917728423,0.5,"ahsaer12","2021_Jun_11_1201","circle","speed_accuracy_first","MainTask",132,"Fixation","NoGo","speed_accuracy",0,0.190462408629173,"post_error_resp",84.5238095238095
372.175218052734,0.1,"ahsaer12","2021_Jun_11_1201","circle","speed_accuracy_first","MainTask",132,"Target","NoGo","speed_accuracy",0,0.190462408629173,"post_error_resp",84.5238095238095
372.365680461363,0,"ahsaer12","2021_Jun_11_1201","circle","speed_accuracy_first","MainTask",132,"Response","NoGo","speed_accuracy",0,0.190462408629173,"post_error_resp",84.5238095238095
373.425202741884,0.5,"ahsaer12","2021_Jun_11_1201","circle","speed_accuracy_first","MainTask",133,"Fixation","Go","speed_accuracy",1,0.182743641098568,"post_error_resp",84.5238095238095
373.891921506266,0.1,"ahsaer12","2021_Jun_11_1201","circle","speed_accuracy_first","MainTask",133,"Target","Go","speed_accuracy",1,0.182743641098568,"post_error_resp",84.5238095238095
374.074665147365,0,"ahsaer12","2021_Jun_11_1201","circle","speed_accuracy_first","MainTask",133,"Response","Go","speed_accuracy",1,0.182743641098568,"post_error_resp",84.5238095238095
375.108553392517,0.5,"ahsaer12","2021_Jun_11_1201","circle","speed_accuracy_first","MainTask",134,"Fixation","Go","speed_accuracy",1,0.186758758068208,"post_correct_resp",84.5238095238095
375.591878565897,0.1,"ahsaer12","2021_Jun_11_1201","circle","speed_accuracy_first","MainTask",134,"Target","Go","speed_accuracy",1,0.186758758068208,"post_correct_resp",84.5238095238095
375.778637323965,0,"ahsaer12","2021_Jun_11_1201","circle","speed_accuracy_first","MainTask",134,"Response","Go","speed_accuracy",1,0.186758758068208,"post_correct_resp",84.5238095238095
376.84187900335,0.5,"ahsaer12","2021_Jun_11_1201","circle","speed_accuracy_first","MainTask",135,"Fixation","NoGo","speed_accuracy",1,NA,"post_correct_resp",84.5238095238095
377.308542123732,0.1,"ahsaer12","2021_Jun_11_1201","circle","speed_accuracy_first","MainTask",135,"Target","NoGo","speed_accuracy",1,NA,"post_correct_resp",84.5238095238095
378.925250861695,0.5,"ahsaer12","2021_Jun_11_1201","circle","speed_accuracy_first","MainTask",136,"Fixation","NoGo","speed_accuracy",0,0.158917510746505,"post_correct_inh",84.5238095238095
379.408621530169,0.1,"ahsaer12","2021_Jun_11_1201","circle","speed_accuracy_first","MainTask",136,"Target","NoGo","speed_accuracy",0,0.158917510746505,"post_correct_inh",84.5238095238095
379.567539040916,0,"ahsaer12","2021_Jun_11_1201","circle","speed_accuracy_first","MainTask",136,"Response","NoGo","speed_accuracy",0,0.158917510746505,"post_correct_inh",84.5238095238095
380.608494073915,0.5,"ahsaer12","2021_Jun_11_1201","circle","speed_accuracy_first","MainTask",137,"Fixation","NoGo","speed_accuracy",0,0.159721024087048,"post_error_resp",84.5238095238095
381.091834295672,0.1,"ahsaer12","2021_Jun_11_1201","circle","speed_accuracy_first","MainTask",137,"Target","NoGo","speed_accuracy",0,0.159721024087048,"post_error_resp",84.5238095238095
381.251555319759,0,"ahsaer12","2021_Jun_11_1201","circle","speed_accuracy_first","MainTask",137,"Response","NoGo","speed_accuracy",0,0.159721024087048,"post_error_resp",84.5238095238095
382.308496978601,0.5,"ahsaer12","2021_Jun_11_1201","circle","speed_accuracy_first","MainTask",138,"Fixation","Go","speed_accuracy",1,0.15940990764102,"post_error_resp",84.5238095238095
382.775162898682,0.1,"ahsaer12","2021_Jun_11_1201","circle","speed_accuracy_first","MainTask",138,"Target","Go","speed_accuracy",1,0.15940990764102,"post_error_resp",84.5238095238095
382.934572806323,0,"ahsaer12","2021_Jun_11_1201","circle","speed_accuracy_first","MainTask",138,"Response","Go","speed_accuracy",1,0.15940990764102,"post_error_resp",84.5238095238095
383.975143930727,0.5,"ahsaer12","2021_Jun_11_1201","circle","speed_accuracy_first","MainTask",139,"Fixation","Go","speed_accuracy",1,0.15016180504881,"post_correct_resp",84.5238095238095
384.45842605875,0.1,"ahsaer12","2021_Jun_11_1201","circle","speed_accuracy_first","MainTask",139,"Target","Go","speed_accuracy",1,0.15016180504881,"post_correct_resp",84.5238095238095
384.608587863799,0,"ahsaer12","2021_Jun_11_1201","circle","speed_accuracy_first","MainTask",139,"Response","Go","speed_accuracy",1,0.15016180504881,"post_correct_resp",84.5238095238095
385.658451885964,0.5,"ahsaer12","2021_Jun_11_1201","circle","speed_accuracy_first","MainTask",140,"Fixation","NoGo","speed_accuracy",1,NA,"post_correct_resp",84.5238095238095
386.141758861308,0.1,"ahsaer12","2021_Jun_11_1201","circle","speed_accuracy_first","MainTask",140,"Target","NoGo","speed_accuracy",1,NA,"post_correct_resp",84.5238095238095
387.75856698855,0.5,"ahsaer12","2021_Jun_11_1201","circle","speed_accuracy_first","MainTask",141,"Fixation","NoGo","speed_accuracy",0,0.164717435224702,"post_correct_inh",84.5238095238095
388.241806421178,0.1,"ahsaer12","2021_Jun_11_1201","circle","speed_accuracy_first","MainTask",141,"Target","NoGo","speed_accuracy",0,0.164717435224702,"post_correct_inh",84.5238095238095
388.406523856403,0,"ahsaer12","2021_Jun_11_1201","circle","speed_accuracy_first","MainTask",141,"Response","NoGo","speed_accuracy",0,0.164717435224702,"post_correct_inh",84.5238095238095
389.458423259052,0.5,"ahsaer12","2021_Jun_11_1201","circle","speed_accuracy_first","MainTask",142,"Fixation","NoGo","speed_accuracy",0,0.127305070148395,"post_error_resp",84.5238095238095
389.925142373396,0.1,"ahsaer12","2021_Jun_11_1201","circle","speed_accuracy_first","MainTask",142,"Target","NoGo","speed_accuracy",0,0.127305070148395,"post_error_resp",84.5238095238095
390.052447443544,0,"ahsaer12","2021_Jun_11_1201","circle","speed_accuracy_first","MainTask",142,"Response","NoGo","speed_accuracy",0,0.127305070148395,"post_error_resp",84.5238095238095
391.108477450707,0.5,"ahsaer12","2021_Jun_11_1201","circle","speed_accuracy_first","MainTask",143,"Fixation","Go","speed_accuracy",0,NA,"post_error_resp",84.5238095238095
391.575144070713,0.1,"ahsaer12","2021_Jun_11_1201","circle","speed_accuracy_first","MainTask",143,"Target","Go","speed_accuracy",0,NA,"post_error_resp",84.5238095238095
393.191753769356,0.5,"ahsaer12","2021_Jun_11_1201","circle","speed_accuracy_first","MainTask",144,"Fixation","Go","speed_accuracy",1,0.364268713618912,"post_error_inh",84.5238095238095
393.675153834659,0.1,"ahsaer12","2021_Jun_11_1201","circle","speed_accuracy_first","MainTask",144,"Target","Go","speed_accuracy",1,0.364268713618912,"post_error_inh",84.5238095238095
394.039422548278,0,"ahsaer12","2021_Jun_11_1201","circle","speed_accuracy_first","MainTask",144,"Response","Go","speed_accuracy",1,0.364268713618912,"post_error_inh",84.5238095238095
395.09189308933,0.5,"ahsaer12","2021_Jun_11_1201","circle","speed_accuracy_first","MainTask",145,"Fixation","NoGo","speed_accuracy",0,0.141160425848284,"post_correct_resp",84.5238095238095
395.575185716221,0.1,"ahsaer12","2021_Jun_11_1201","circle","speed_accuracy_first","MainTask",145,"Target","NoGo","speed_accuracy",0,0.141160425848284,"post_correct_resp",84.5238095238095
395.716346142069,0,"ahsaer12","2021_Jun_11_1201","circle","speed_accuracy_first","MainTask",145,"Response","NoGo","speed_accuracy",0,0.141160425848284,"post_correct_resp",84.5238095238095
396.758417204705,0.5,"ahsaer12","2021_Jun_11_1201","circle","speed_accuracy_first","MainTask",146,"Fixation","NoGo","speed_accuracy",0,0.170640546417417,"post_error_resp",84.5238095238095
397.241787523216,0.1,"ahsaer12","2021_Jun_11_1201","circle","speed_accuracy_first","MainTask",146,"Target","NoGo","speed_accuracy",0,0.170640546417417,"post_error_resp",84.5238095238095
397.412428069633,0,"ahsaer12","2021_Jun_11_1201","circle","speed_accuracy_first","MainTask",146,"Response","NoGo","speed_accuracy",0,0.170640546417417,"post_error_resp",84.5238095238095
398.458527547805,0.5,"ahsaer12","2021_Jun_11_1201","circle","speed_accuracy_first","MainTask",147,"Fixation","NoGo","speed_accuracy",1,NA,"post_error_resp",84.5238095238095
398.941807576053,0.1,"ahsaer12","2021_Jun_11_1201","circle","speed_accuracy_first","MainTask",147,"Target","NoGo","speed_accuracy",1,NA,"post_error_resp",84.5238095238095
400.55841307515,0.5,"ahsaer12","2021_Jun_11_1201","circle","speed_accuracy_first","MainTask",148,"Fixation","NoGo","speed_accuracy",1,NA,"post_correct_inh",84.5238095238095
401.041814540302,0.1,"ahsaer12","2021_Jun_11_1201","circle","speed_accuracy_first","MainTask",148,"Target","NoGo","speed_accuracy",1,NA,"post_correct_inh",84.5238095238095
402.675155934433,0.5,"ahsaer12","2021_Jun_11_1201","circle","speed_accuracy_first","MainTask",149,"Fixation","Go","speed_accuracy",1,0.25567262570712,"post_correct_inh",84.5238095238095
403.141696568026,0.1,"ahsaer12","2021_Jun_11_1201","circle","speed_accuracy_first","MainTask",149,"Target","Go","speed_accuracy",1,0.25567262570712,"post_correct_inh",84.5238095238095
403.397369193733,0,"ahsaer12","2021_Jun_11_1201","circle","speed_accuracy_first","MainTask",149,"Response","Go","speed_accuracy",1,0.25567262570712,"post_correct_inh",84.5238095238095
404.441748607414,0.5,"ahsaer12","2021_Jun_11_1201","circle","speed_accuracy_first","MainTask",150,"Fixation","Go","speed_accuracy",1,0.240205693815369,"post_correct_resp",84.5238095238095
404.925138173849,0.1,"ahsaer12","2021_Jun_11_1201","circle","speed_accuracy_first","MainTask",150,"Target","Go","speed_accuracy",1,0.240205693815369,"post_correct_resp",84.5238095238095
405.165343867664,0,"ahsaer12","2021_Jun_11_1201","circle","speed_accuracy_first","MainTask",150,"Response","Go","speed_accuracy",1,0.240205693815369,"post_correct_resp",84.5238095238095
406.225245857235,0.5,"ahsaer12","2021_Jun_11_1201","circle","speed_accuracy_first","MainTask",151,"Fixation","Go","speed_accuracy",1,0.243472591480895,"post_correct_resp",84.5238095238095
406.691806088714,0.1,"ahsaer12","2021_Jun_11_1201","circle","speed_accuracy_first","MainTask",151,"Target","Go","speed_accuracy",1,0.243472591480895,"post_correct_resp",84.5238095238095
406.935278680195,0,"ahsaer12","2021_Jun_11_1201","circle","speed_accuracy_first","MainTask",151,"Response","Go","speed_accuracy",1,0.243472591480895,"post_correct_resp",84.5238095238095
407.991858128101,0.5,"ahsaer12","2021_Jun_11_1201","circle","speed_accuracy_first","MainTask",152,"Fixation","NoGo","speed_accuracy",1,NA,"post_correct_resp",84.5238095238095
408.458430258297,0.1,"ahsaer12","2021_Jun_11_1201","circle","speed_accuracy_first","MainTask",152,"Target","NoGo","speed_accuracy",1,NA,"post_correct_resp",84.5238095238095
410.091840944954,0.5,"ahsaer12","2021_Jun_11_1201","circle","speed_accuracy_first","MainTask",153,"Fixation","Go","speed_accuracy",1,0.263686411421077,"post_correct_inh",84.5238095238095
410.558561109185,0.1,"ahsaer12","2021_Jun_11_1201","circle","speed_accuracy_first","MainTask",153,"Target","Go","speed_accuracy",1,0.263686411421077,"post_correct_inh",84.5238095238095
410.822247520606,0,"ahsaer12","2021_Jun_11_1201","circle","speed_accuracy_first","MainTask",153,"Response","Go","speed_accuracy",1,0.263686411421077,"post_correct_inh",84.5238095238095
411.87514186595,0.5,"ahsaer12","2021_Jun_11_1201","circle","speed_accuracy_first","MainTask",154,"Fixation","NoGo","speed_accuracy",1,NA,"post_correct_resp",84.5238095238095
412.35850273548,0.1,"ahsaer12","2021_Jun_11_1201","circle","speed_accuracy_first","MainTask",154,"Target","NoGo","speed_accuracy",1,NA,"post_correct_resp",84.5238095238095
413.975131332087,0.5,"ahsaer12","2021_Jun_11_1201","circle","speed_accuracy_first","MainTask",155,"Fixation","NoGo","speed_accuracy",1,NA,"post_correct_inh",84.5238095238095
414.458399111656,0.1,"ahsaer12","2021_Jun_11_1201","circle","speed_accuracy_first","MainTask",155,"Target","NoGo","speed_accuracy",1,NA,"post_correct_inh",84.5238095238095
416.075127097542,0.5,"ahsaer12","2021_Jun_11_1201","circle","speed_accuracy_first","MainTask",156,"Fixation","NoGo","speed_accuracy",1,NA,"post_correct_inh",84.5238095238095
416.558495316281,0.1,"ahsaer12","2021_Jun_11_1201","circle","speed_accuracy_first","MainTask",156,"Target","NoGo","speed_accuracy",1,NA,"post_correct_inh",84.5238095238095
418.191734521432,0.5,"ahsaer12","2021_Jun_11_1201","circle","speed_accuracy_first","MainTask",157,"Fixation","Go","speed_accuracy",1,0.207743894820851,"post_correct_inh",84.5238095238095
418.658468684152,0.1,"ahsaer12","2021_Jun_11_1201","circle","speed_accuracy_first","MainTask",157,"Target","Go","speed_accuracy",1,0.207743894820851,"post_correct_inh",84.5238095238095
418.866212578973,0,"ahsaer12","2021_Jun_11_1201","circle","speed_accuracy_first","MainTask",157,"Response","Go","speed_accuracy",1,0.207743894820851,"post_correct_inh",84.5238095238095
419.908527565302,0.5,"ahsaer12","2021_Jun_11_1201","circle","speed_accuracy_first","MainTask",158,"Fixation","Go","speed_accuracy",1,0.194409982883371,"post_correct_resp",84.5238095238095
420.391759998684,0.1,"ahsaer12","2021_Jun_11_1201","circle","speed_accuracy_first","MainTask",158,"Target","Go","speed_accuracy",1,0.194409982883371,"post_correct_resp",84.5238095238095
420.586169981567,0,"ahsaer12","2021_Jun_11_1201","circle","speed_accuracy_first","MainTask",158,"Response","Go","speed_accuracy",1,0.194409982883371,"post_correct_resp",84.5238095238095
421.625136179064,0.5,"ahsaer12","2021_Jun_11_1201","circle","speed_accuracy_first","MainTask",159,"Fixation","Go","speed_accuracy",1,0.20069565497397,"post_correct_resp",84.5238095238095
422.108412357728,0.1,"ahsaer12","2021_Jun_11_1201","circle","speed_accuracy_first","MainTask",159,"Target","Go","speed_accuracy",1,0.20069565497397,"post_correct_resp",84.5238095238095
422.309108012702,0,"ahsaer12","2021_Jun_11_1201","circle","speed_accuracy_first","MainTask",159,"Response","Go","speed_accuracy",1,0.20069565497397,"post_correct_resp",84.5238095238095
423.34174094324,0.5,"ahsaer12","2021_Jun_11_1201","circle","speed_accuracy_first","MainTask",160,"Fixation","Go","speed_accuracy",1,0.191991043766393,"post_correct_resp",84.5238095238095
423.825146257976,0.1,"ahsaer12","2021_Jun_11_1201","circle","speed_accuracy_first","MainTask",160,"Target","Go","speed_accuracy",1,0.191991043766393,"post_correct_resp",84.5238095238095
424.017137301742,0,"ahsaer12","2021_Jun_11_1201","circle","speed_accuracy_first","MainTask",160,"Response","Go","speed_accuracy",1,0.191991043766393,"post_correct_resp",84.5238095238095
425.058448946282,0.5,"ahsaer12","2021_Jun_11_1201","circle","speed_accuracy_first","MainTask",161,"Fixation","Go","speed_accuracy",1,0.181265050564434,"post_correct_resp",84.5238095238095
425.541866509698,0.1,"ahsaer12","2021_Jun_11_1201","circle","speed_accuracy_first","MainTask",161,"Target","Go","speed_accuracy",1,0.181265050564434,"post_correct_resp",84.5238095238095
425.723131560262,0,"ahsaer12","2021_Jun_11_1201","circle","speed_accuracy_first","MainTask",161,"Response","Go","speed_accuracy",1,0.181265050564434,"post_correct_resp",84.5238095238095
426.75853269225,0.5,"ahsaer12","2021_Jun_11_1201","circle","speed_accuracy_first","MainTask",162,"Fixation","Go","speed_accuracy",1,0.175337739824499,"post_correct_resp",84.5238095238095
427.241789273027,0.1,"ahsaer12","2021_Jun_11_1201","circle","speed_accuracy_first","MainTask",162,"Target","Go","speed_accuracy",1,0.175337739824499,"post_correct_resp",84.5238095238095
427.417127012851,0,"ahsaer12","2021_Jun_11_1201","circle","speed_accuracy_first","MainTask",162,"Response","Go","speed_accuracy",1,0.175337739824499,"post_correct_resp",84.5238095238095
428.458417309694,0.5,"ahsaer12","2021_Jun_11_1201","circle","speed_accuracy_first","MainTask",163,"Fixation","Go","speed_accuracy",1,0.182250194316111,"post_correct_resp",84.5238095238095
428.941836972883,0.1,"ahsaer12","2021_Jun_11_1201","circle","speed_accuracy_first","MainTask",163,"Target","Go","speed_accuracy",1,0.182250194316111,"post_correct_resp",84.5238095238095
429.124087167199,0,"ahsaer12","2021_Jun_11_1201","circle","speed_accuracy_first","MainTask",163,"Response","Go","speed_accuracy",1,0.182250194316111,"post_correct_resp",84.5238095238095
430.158391167513,0.5,"ahsaer12","2021_Jun_11_1201","circle","speed_accuracy_first","MainTask",164,"Fixation","Go","speed_accuracy",1,0.180172468399178,"post_correct_resp",84.5238095238095
430.641854925947,0.1,"ahsaer12","2021_Jun_11_1201","circle","speed_accuracy_first","MainTask",164,"Target","Go","speed_accuracy",1,0.180172468399178,"post_correct_resp",84.5238095238095
430.822027394346,0,"ahsaer12","2021_Jun_11_1201","circle","speed_accuracy_first","MainTask",164,"Response","Go","speed_accuracy",1,0.180172468399178,"post_correct_resp",84.5238095238095
431.858384973181,0.5,"ahsaer12","2021_Jun_11_1201","circle","speed_accuracy_first","MainTask",165,"Fixation","Go","speed_accuracy",1,0.177083001598476,"post_correct_resp",84.5238095238095
432.341907175311,0.1,"ahsaer12","2021_Jun_11_1201","circle","speed_accuracy_first","MainTask",165,"Target","Go","speed_accuracy",1,0.177083001598476,"post_correct_resp",84.5238095238095
432.518990176909,0,"ahsaer12","2021_Jun_11_1201","circle","speed_accuracy_first","MainTask",165,"Response","Go","speed_accuracy",1,0.177083001598476,"post_correct_resp",84.5238095238095
433.558530662468,0.5,"ahsaer12","2021_Jun_11_1201","circle","speed_accuracy_first","MainTask",166,"Fixation","Go","speed_accuracy",1,0.154190920508881,"post_correct_resp",84.5238095238095
434.04181104068,0.1,"ahsaer12","2021_Jun_11_1201","circle","speed_accuracy_first","MainTask",166,"Target","Go","speed_accuracy",1,0.154190920508881,"post_correct_resp",84.5238095238095
434.196001961189,0,"ahsaer12","2021_Jun_11_1201","circle","speed_accuracy_first","MainTask",166,"Response","Go","speed_accuracy",1,0.154190920508881,"post_correct_resp",84.5238095238095
435.241715081029,0.5,"ahsaer12","2021_Jun_11_1201","circle","speed_accuracy_first","MainTask",167,"Fixation","Go","speed_accuracy",1,0.192780908578243,"post_correct_resp",84.5238095238095
435.725202286933,0.1,"ahsaer12","2021_Jun_11_1201","circle","speed_accuracy_first","MainTask",167,"Target","Go","speed_accuracy",1,0.192780908578243,"post_correct_resp",84.5238095238095
435.917983195511,0,"ahsaer12","2021_Jun_11_1201","circle","speed_accuracy_first","MainTask",167,"Response","Go","speed_accuracy",1,0.192780908578243,"post_correct_resp",84.5238095238095
436.958480477881,0.5,"ahsaer12","2021_Jun_11_1201","circle","speed_accuracy_first","MainTask",168,"Fixation","Go","speed_accuracy",1,0.217295414689943,"post_correct_resp",84.5238095238095
437.441718510659,0.1,"ahsaer12","2021_Jun_11_1201","circle","speed_accuracy_first","MainTask",168,"Target","Go","speed_accuracy",1,0.217295414689943,"post_correct_resp",84.5238095238095
437.659013925349,0,"ahsaer12","2021_Jun_11_1201","circle","speed_accuracy_first","MainTask",168,"Response","Go","speed_accuracy",1,0.217295414689943,"post_correct_resp",84.5238095238095
438.691737846074,0.5,"ahsaer12","2021_Jun_11_1201","circle","speed_accuracy_first","MainTask",169,"Fixation","Go","speed_accuracy",1,0.253726835560883,"post_correct_resp",84.5238095238095
439.175198104885,0.1,"ahsaer12","2021_Jun_11_1201","circle","speed_accuracy_first","MainTask",169,"Target","Go","speed_accuracy",1,0.253726835560883,"post_correct_resp",84.5238095238095
439.428924940446,0,"ahsaer12","2021_Jun_11_1201","circle","speed_accuracy_first","MainTask",169,"Response","Go","speed_accuracy",1,0.253726835560883,"post_correct_resp",84.5238095238095
440.475045766315,0.5,"ahsaer12","2021_Jun_11_1201","circle","speed_accuracy_first","MainTask",170,"Fixation","Go","speed_accuracy",1,0.159529594732703,"post_correct_resp",84.5238095238095
440.958444431769,0.1,"ahsaer12","2021_Jun_11_1201","circle","speed_accuracy_first","MainTask",170,"Target","Go","speed_accuracy",1,0.159529594732703,"post_correct_resp",84.5238095238095
441.117974026502,0,"ahsaer12","2021_Jun_11_1201","circle","speed_accuracy_first","MainTask",170,"Response","Go","speed_accuracy",1,0.159529594732703,"post_correct_resp",84.5238095238095
442.158332373854,0.5,"ahsaer12","2021_Jun_11_1201","circle","speed_accuracy_first","MainTask",171,"Fixation","Go","speed_accuracy",1,0.0521468259648827,"post_correct_resp",84.5238095238095
442.641766035534,0.1,"ahsaer12","2021_Jun_11_1201","circle","speed_accuracy_first","MainTask",171,"Target","Go","speed_accuracy",1,0.0521468259648827,"post_correct_resp",84.5238095238095
442.693912861499,0,"ahsaer12","2021_Jun_11_1201","circle","speed_accuracy_first","MainTask",171,"Response","Go","speed_accuracy",1,0.0521468259648827,"post_correct_resp",84.5238095238095
443.741782798726,0.5,"ahsaer12","2021_Jun_11_1201","circle","speed_accuracy_first","MainTask",172,"Fixation","Go","speed_accuracy",0,NA,"post_correct_resp",84.5238095238095
444.225074375729,0.1,"ahsaer12","2021_Jun_11_1201","circle","speed_accuracy_first","MainTask",172,"Target","Go","speed_accuracy",0,NA,"post_correct_resp",84.5238095238095
445.841710321542,0.5,"ahsaer12","2021_Jun_11_1201","circle","speed_accuracy_first","MainTask",173,"Fixation","Go","speed_accuracy",0,NA,"post_error_inh",84.5238095238095
446.325179329409,0.1,"ahsaer12","2021_Jun_11_1201","circle","speed_accuracy_first","MainTask",173,"Target","Go","speed_accuracy",0,NA,"post_error_inh",84.5238095238095
447.958367790035,0.5,"ahsaer12","2021_Jun_11_1201","circle","speed_accuracy_first","MainTask",174,"Fixation","Go","speed_accuracy",1,0.134680524704891,"post_error_inh",84.5238095238095
448.425186993583,0.1,"ahsaer12","2021_Jun_11_1201","circle","speed_accuracy_first","MainTask",174,"Target","Go","speed_accuracy",1,0.134680524704891,"post_error_inh",84.5238095238095
448.559867518288,0,"ahsaer12","2021_Jun_11_1201","circle","speed_accuracy_first","MainTask",174,"Response","Go","speed_accuracy",1,0.134680524704891,"post_error_inh",84.5238095238095
449.625146677931,0.5,"ahsaer12","2021_Jun_11_1201","circle","speed_accuracy_first","MainTask",175,"Fixation","Go","speed_accuracy",1,0.0411177654486892,"post_correct_resp",84.5238095238095
450.091762903371,0.1,"ahsaer12","2021_Jun_11_1201","circle","speed_accuracy_first","MainTask",175,"Target","Go","speed_accuracy",1,0.0411177654486892,"post_correct_resp",84.5238095238095
450.13288066882,0,"ahsaer12","2021_Jun_11_1201","circle","speed_accuracy_first","MainTask",175,"Response","Go","speed_accuracy",1,0.0411177654486892,"post_correct_resp",84.5238095238095
451.175116563679,0.5,"ahsaer12","2021_Jun_11_1201","circle","speed_accuracy_first","MainTask",176,"Fixation","Go","speed_accuracy",0,NA,"post_correct_resp",84.5238095238095
451.658429838342,0.1,"ahsaer12","2021_Jun_11_1201","circle","speed_accuracy_first","MainTask",176,"Target","Go","speed_accuracy",0,NA,"post_correct_resp",84.5238095238095
