Trial,Congruency,ACC,RT,Subject,Lab,Experimenter,N2_FCZ,N2_CZ,P3_PZ,P3_ FZ,P3_ CZ,FMT_FCZ,FMT_CZ
0,1,1,0.33012,sub-AA06WI11,Hamburg_Riesel,HRBL,-5.6382,47.6588,71.9422,-3.8204,-45.6322,6.4945,-0.021366
1,0.66,1,0.2686,sub-AA06WI11,Hamburg_Riesel,HRBL,29.7849,37.3223,-80.892,25.0328,19.8944,3.9082,-0.56133
2,0.33,1,0.4276,sub-AA06WI11,Hamburg_Riesel,HRBL,-21.5125,-9.8654,16.0212,72.184,-57.0787,2.3443,1.6616
3,0.33,1,0.43512,sub-AA06WI11,Hamburg_Riesel,HRBL,7.0679,-3.2894,37.4673,-71.9032,71.9955,-3.6968,-1.6485
4,0.66,1,0.28634,sub-AA06WI11,Hamburg_Riesel,HRBL,17.9345,-22.4563,-37.4103,31.3836,-4.7979,8.5979,1.9379
5,0.33,1,0.33668,sub-AA06WI11,Hamburg_Riesel,HRBL,17.6223,16.2612,13.9773,118.7523,-57.5404,4.2172,-2.5461
6,1,1,0.28099,sub-AA06WI11,Hamburg_Riesel,HRBL,30.6382,-26.4865,-26.0601,-60.6335,40.1197,3.3919,3.3267
7,0.33,1,0.33425,sub-AA06WI11,Hamburg_Riesel,HRBL,-56.4688,-16.8598,-27.0752,53.5607,30.8179,-6.9129,-4.5697
8,0.66,1,0.28211,sub-AA06WI11,Hamburg_Riesel,HRBL,-34.0013,26.7147,23.3729,-8.6681,-29.0593,4.7197,5.2927
9,0.33,1,0.25517,sub-AA06WI11,Hamburg_Riesel,HRBL,-11.5753,-6.0441,3.4408,-38.9871,29.1018,-4.926,7.0421
10,1,1,0.24733,sub-AA06WI11,Hamburg_Riesel,HRBL,-13.4484,-46.931,116.9167,-7.335,50.2496,3.8305,-1.085
12,0.66,1,0.42595,sub-AA06WI11,Hamburg_Riesel,HRBL,20.9302,-80.89,-81.2413,22.4234,8.4562,-3.9429,-0.71976
13,1,1,0.34919,sub-AA06WI11,Hamburg_Riesel,HRBL,27.8943,51.767,65.4689,-40.7967,34.237,3.8911,-3.4411
14,1,1,0.28608,sub-AA06WI11,Hamburg_Riesel,HRBL,20.5835,23.0663,-14.1644,40.5048,33.9961,-2.8824,2.389
15,0.66,1,0.26326,sub-AA06WI11,Hamburg_Riesel,HRBL,18.4138,21.8637,-7.303,27.6081,7.9936,-0.55746,-0.15877
17,1,1,0.35511,sub-AA06WI11,Hamburg_Riesel,HRBL,33.2181,25.5168,-4.7621,-26.066,33.2115,3.2607,-0.64098
20,0.33,1,0.28107,sub-AA06WI11,Hamburg_Riesel,HRBL,18.4789,9.0247,-44.1975,-49.5125,-39.394,0.30127,-3.4687
21,1,1,0.25576,sub-AA06WI11,Hamburg_Riesel,HRBL,-43.1769,23.2665,46.1097,3.9574,13.0405,-4.6655,-3.4746
23,0.66,1,0.31331,sub-AA06WI11,Hamburg_Riesel,HRBL,16.3738,-24.4407,58.7766,18.3589,43.1638,7.2705,1.7851
24,1,1,0.24264,sub-AA06WI11,Hamburg_Riesel,HRBL,4.1301,-49.6057,-47.3394,-2.9776,68.2554,-3.9928,0.38977
25,1,1,0.27024,sub-AA06WI11,Hamburg_Riesel,HRBL,-3.5655,-12.9006,24.0279,-8.0035,-74.3622,3.1603,6.5409
26,0.33,1,0.21842,sub-AA06WI11,Hamburg_Riesel,HRBL,-13.4964,32.1483,73.7865,0.54084,44.503,-3.2968,9.6961
27,1,1,0.26147,sub-AA06WI11,Hamburg_Riesel,HRBL,-6.2548,53.5245,-17.8521,22.1355,52.2406,2.4386,-1.9064
28,1,1,0.21538,sub-AA06WI11,Hamburg_Riesel,HRBL,5.2333,43.8123,40.8988,83.3329,29.6998,7.7431,5.4082
29,1,1,0.2376,sub-AA06WI11,Hamburg_Riesel,HRBL,3.6963,-17.8172,17.6562,29.5647,-49.3009,-3.4659,2.0714
30,1,1,0.28779,sub-AA06WI11,Hamburg_Riesel,HRBL,-32.5685,25.5223,49.6677,-32.4586,12.2092,9.0261,-4.8091
31,1,1,0.26691,sub-AA06WI11,Hamburg_Riesel,HRBL,55.4499,5.3283,-37.7893,-3.9804,35.5946,3.2675,-0.8729
32,1,1,0.29778,sub-AA06WI11,Hamburg_Riesel,HRBL,17.1535,-30.7052,-17.4757,58.552,6.471,0.30922,4.3951
33,0.33,1,0.23405,sub-AA06WI11,Hamburg_Riesel,HRBL,38.7406,-13.9256,59.7671,-8.3935,24.289,6.0407,-2.502
35,0.66,1,0.23706,sub-AA06WI11,Hamburg_Riesel,HRBL,1.6899,9.0499,30.8041,-5.9343,-21.3802,-0.14281,-0.38089
36,1,1,0.17251,sub-AA06WI11,Hamburg_Riesel,HRBL,0.97246,-23.6816,-43.422,-79.869,89.5808,-0.015315,6.3081
37,1,1,0.2578,sub-AA06WI11,Hamburg_Riesel,HRBL,66.1946,11.321,-20.5391,84.9997,54.0777,0.9992,-0.23277
38,1,1,0.22786,sub-AA06WI11,Hamburg_Riesel,HRBL,6.8921,-14.6755,-12.2708,-35.1036,-6.1696,-4.5015,-3.8136
39,0.33,1,0.25518,sub-AA06WI11,Hamburg_Riesel,HRBL,8.9068,-6.1821,73.6722,-99.4555,87.7038,-0.34236,-6.7929
41,0,1,0.25377,sub-AA06WI11,Hamburg_Riesel,HRBL,-11.1892,5.5835,-54.5857,9.4867,-3.9806,-0.40651,5.3761
43,1,1,0.29301,sub-AA06WI11,Hamburg_Riesel,HRBL,-13.8131,5.5276,18.4613,95.5153,-5.6691,-12.052,0.21271
44,1,1,0.27878,sub-AA06WI11,Hamburg_Riesel,HRBL,-42.0013,52.7286,16.4995,58.0328,50.1247,7.8745,7.5178
45,1,1,0.25322,sub-AA06WI11,Hamburg_Riesel,HRBL,-1.7203,5.1997,19.5659,-26.3562,3.1686,15.1231,3.8131
46,1,1,0.27608,sub-AA06WI11,Hamburg_Riesel,HRBL,44.1953,27.9448,-10.3255,-16.5435,-32.4999,5.4902,-4.1257
47,1,1,0.16583,sub-AA06WI11,Hamburg_Riesel,HRBL,15.4583,-4.4902,-28.214,6.5853,-11.7558,4.0933,-0.90907
50,1,1,0.31164,sub-AA06WI11,Hamburg_Riesel,HRBL,20.9874,26.4657,32.6667,-12.5083,7.6749,6.6658,-0.45038
51,1,1,0.16584,sub-AA06WI11,Hamburg_Riesel,HRBL,1.0512,47.5274,8.8413,16.842,-8.0462,-2.7792,-1.5992
52,0.66,1,0.24694,sub-AA06WI11,Hamburg_Riesel,HRBL,39.8995,-67.3073,23.8293,-83.0069,50.405,3.0656,4.3774
53,1,1,0.297,sub-AA06WI11,Hamburg_Riesel,HRBL,7.3564,-46.765,30.342,56.0714,14.752,2.8972,-4.1458
54,0.33,1,0.26114,sub-AA06WI11,Hamburg_Riesel,HRBL,15.6229,34.5838,-18.6325,-1.7365,31.1195,-5.9208,-0.48476
56,0.33,1,0.34883,sub-AA06WI11,Hamburg_Riesel,HRBL,-35.7286,-41.6166,98.1292,-7.142,71.6954,-1.2349,-2.9628
57,0.66,1,0.2865,sub-AA06WI11,Hamburg_Riesel,HRBL,-1.3918,-6.4279,-48.9304,-28.8097,-29.534,4.4329,1.8517
58,1,1,0.30491,sub-AA06WI11,Hamburg_Riesel,HRBL,28.4292,52.7015,48.9295,1.6667,6.6419,7.8116,6.7039
59,0.66,1,0.30062,sub-AA06WI11,Hamburg_Riesel,HRBL,-19.4663,-33.3375,-84.2167,-40.5442,-56.0826,-2.3119,-1.6884
60,1,1,0.21867,sub-AA06WI11,Hamburg_Riesel,HRBL,52.6177,1.8815,-7.2382,-19.2178,13.7613,4.8864,-0.44596
61,0.33,1,0.26047,sub-AA06WI11,Hamburg_Riesel,HRBL,0.68777,35.6403,40.3708,17.289,7.8683,3.9662,-5.5039
63,0,1,0.34906,sub-AA06WI11,Hamburg_Riesel,HRBL,20.9303,-11.375,19.1686,71.5703,-4.7128,8.2335,-9.5339
64,1,1,0.23946,sub-AA06WI11,Hamburg_Riesel,HRBL,-9.3966,5.2155,3.9117,-14.7545,141.8589,13.52,2.0012
67,1,1,0.33738,sub-AA06WI11,Hamburg_Riesel,HRBL,-16.585,-53.1455,11.7553,-54.647,-20.3905,11.5871,-2.2042
68,0.66,1,0.23616,sub-AA06WI11,Hamburg_Riesel,HRBL,85.2445,95.0944,67.7845,-57.9876,44.9477,7.7079,6.7279
70,0.66,1,0.42725,sub-AA06WI11,Hamburg_Riesel,HRBL,0.52041,13.8376,-63.3424,-55.3644,78.2194,11.6376,-4.1741
71,0.66,1,0.36579,sub-AA06WI11,Hamburg_Riesel,HRBL,26.9697,-25.9343,6.0695,9.4858,6.2191,-7.5165,-7.702
75,1,1,0.38161,sub-AA06WI11,Hamburg_Riesel,HRBL,15.2081,31.929,25.0086,-15.7337,22.3081,1.6914,-1.5031
77,1,1,0.30007,sub-AA06WI11,Hamburg_Riesel,HRBL,-28.3837,-20.1757,-44.6036,14.1706,72.125,-0.2015,-2.1035
78,0.66,1,0.2647,sub-AA06WI11,Hamburg_Riesel,HRBL,21.6135,10.1244,38.0434,68.5989,-62.6162,0.5171,1.243
79,0.33,1,0.22518,sub-AA06WI11,Hamburg_Riesel,HRBL,-33.7438,52.3298,4.0416,4.2098,46.6423,1.4891,11.576
80,1,1,0.18091,sub-AA06WI11,Hamburg_Riesel,HRBL,10.3838,28.544,80.5864,2.1651,30.9281,-2.7238,1.5542
82,1,1,0.24606,sub-AA06WI11,Hamburg_Riesel,HRBL,17.6517,59.6951,2.3193,29.8769,63.7261,-0.12289,0.61256
83,0,1,0.17584,sub-AA06WI11,Hamburg_Riesel,HRBL,39.7585,44.196,-89.809,61.8814,18.6054,-1.4218,2.4828
85,1,1,0.40023,sub-AA06WI11,Hamburg_Riesel,HRBL,17.9604,-36.6369,48.6339,-114.0337,15.4529,11.6875,-1.0066
86,1,1,0.2933,sub-AA06WI11,Hamburg_Riesel,HRBL,-44.0457,-56.1777,18.8272,27.4413,8.6351,-2.238,-0.55268
87,1,1,0.28008,sub-AA06WI11,Hamburg_Riesel,HRBL,25.3549,2.8176,0.38216,3.2436,37.3811,2.5975,2.5925
89,1,1,0.32358,sub-AA06WI11,Hamburg_Riesel,HRBL,-15.8486,-77.405,85.3073,-34.0354,77.3535,-0.18623,-5.9647
90,0.66,1,0.26566,sub-AA06WI11,Hamburg_Riesel,HRBL,-20.8297,-25.6384,10.4625,-2.2983,-30.8871,5.9685,2.772
94,1,1,0.30994,sub-AA06WI11,Hamburg_Riesel,HRBL,-46.5626,-44.9799,19.1463,-46.2554,65.4788,-5.3802,-5.7958
96,0,1,0.55009,sub-AA06WI11,Hamburg_Riesel,HRBL,-86.2057,-1.472,-37.4383,54.3637,15.8806,-1.6311,3.1615
97,0.66,1,0.38385,sub-AA06WI11,Hamburg_Riesel,HRBL,-2.0945,57.6028,37.9323,-55.9915,37.3667,5.1203,-5.2224
99,1,1,0.39541,sub-AA06WI11,Hamburg_Riesel,HRBL,37.3348,-25.5629,79.6006,73.851,56.0039,7.5413,0.77304
100,0.66,1,0.30015,sub-AA06WI11,Hamburg_Riesel,HRBL,46.5871,26.1505,-112.2387,-40.9203,83.7788,-1.9306,-1.0296
101,0.33,1,0.23707,sub-AA06WI11,Hamburg_Riesel,HRBL,76.5625,-74.641,54.7744,-34.1258,38.0217,-4.6079,0.76431
102,1,1,0.27915,sub-AA06WI11,Hamburg_Riesel,HRBL,46.3259,-2.3813,55.1033,-49.4349,-31.4279,-12.7422,4.0515
104,0.33,1,0.30131,sub-AA06WI11,Hamburg_Riesel,HRBL,52.4737,10.3031,-83.1604,77.4414,20.6807,-6.4595,1.0044
105,0.66,1,0.30784,sub-AA06WI11,Hamburg_Riesel,HRBL,-12.7472,32.5065,18.5311,91.5479,-54.7667,-0.83438,0.26225
107,1,1,0.29982,sub-AA06WI11,Hamburg_Riesel,HRBL,60.8226,4.775,75.2129,-74.0269,61.9762,-6.115,3.5042
108,1,1,0.34781,sub-AA06WI11,Hamburg_Riesel,HRBL,-25.3534,18.2773,45.3624,26.6726,26.3022,-2.9166,0.37889
109,0.33,1,0.37003,sub-AA06WI11,Hamburg_Riesel,HRBL,-64.8969,91.5348,-17.2003,-36.195,-3.6227,6.119,10.1227
110,0.66,1,0.34281,sub-AA06WI11,Hamburg_Riesel,HRBL,-41.9535,20.9247,-57.1427,44.8358,100.4155,-2.0512,2.7099
111,1,1,0.32636,sub-AA06WI11,Hamburg_Riesel,HRBL,21.9817,-21.4793,85.7219,-25.1731,-12.1759,0.77669,0.058299
112,1,1,0.23753,sub-AA06WI11,Hamburg_Riesel,HRBL,31.6657,33.4289,12.5031,49.1641,-43.1054,6.8464,3.4254
113,1,1,0.30382,sub-AA06WI11,Hamburg_Riesel,HRBL,44.4247,-30.459,-41.7549,32.0457,60.4607,0.0085574,-7.4721
114,1,1,0.36721,sub-AA06WI11,Hamburg_Riesel,HRBL,21.4113,-77.0656,27.366,-28.5922,94.1955,-7.6384,2.2047
116,1,1,0.30849,sub-AA06WI11,Hamburg_Riesel,HRBL,31.4989,-9.419,45.3879,-11.4253,39.715,-3.8033,-0.35659
117,1,1,0.26945,sub-AA06WI11,Hamburg_Riesel,HRBL,-18.9233,14.7074,44.0674,-60.1953,-28.1308,2.3244,-5.379
120,0.66,1,0.31834,sub-AA06WI11,Hamburg_Riesel,HRBL,31.303,-35.304,-73.9612,37.0955,75.2406,5.4808,4.9683
121,1,1,0.21681,sub-AA06WI11,Hamburg_Riesel,HRBL,58.0757,53.5693,58.1337,0.91851,10.5854,-9.641,0.9768
122,0,1,0.34453,sub-AA06WI11,Hamburg_Riesel,HRBL,-10.1255,78.9097,-20.3234,49.7644,52.0351,3.21,-1.5517
123,1,1,0.36111,sub-AA06WI11,Hamburg_Riesel,HRBL,11.3667,106.583,-57.5989,-0.70159,3.0829,4.2876,-0.32564
124,0,1,0.37365,sub-AA06WI11,Hamburg_Riesel,HRBL,-40.3987,56.6017,-3.0869,20.0725,-41.2094,-2.3229,6.5161
126,0.33,1,0.49108,sub-AA06WI11,Hamburg_Riesel,HRBL,22.6785,30.1236,46.0344,46.5139,0.125,-0.69139,-5.4048
128,1,1,0.36516,sub-AA06WI11,Hamburg_Riesel,HRBL,33.6041,-66.8822,-19.0861,-13.6938,18.933,-3.6928,-3.7901
129,0.33,1,0.24928,sub-AA06WI11,Hamburg_Riesel,HRBL,-34.3922,-36.21,40.8648,-20.5461,-46.8619,-5.3035,-1.3347
131,0,1,0.44105,sub-AA06WI11,Hamburg_Riesel,HRBL,28.4053,9.3902,-0.49667,-26.7611,23.0741,3.3632,2.9905
132,0.33,1,0.37971,sub-AA06WI11,Hamburg_Riesel,HRBL,28.0358,3.5795,38.5777,68.7983,-44.2709,-0.068388,0.53136
134,1,1,0.33465,sub-AA06WI11,Hamburg_Riesel,HRBL,58.9099,10.8901,-37.8411,24.4693,-7.6449,-7.9933,-9.5362
135,0.66,1,0.29089,sub-AA06WI11,Hamburg_Riesel,HRBL,19.1488,7.1581,96.5262,-53.7453,50.8678,-3.6843,0.98928
136,1,1,0.34514,sub-AA06WI11,Hamburg_Riesel,HRBL,-14.9362,-13.0111,140.0905,70.0457,50.8142,-3.5296,11.4729
137,1,1,0.34408,sub-AA06WI11,Hamburg_Riesel,HRBL,-35.5003,-60.8855,-9.8248,-40.1815,-8.0665,1.6806,1.2034
138,1,1,0.26069,sub-AA06WI11,Hamburg_Riesel,HRBL,-55.6224,8.2806,27.604,38.1668,-0.28788,6.8131,-0.18251
140,1,1,0.35115,sub-AA06WI11,Hamburg_Riesel,HRBL,-4.4584,-35.1216,-13.8335,-16.4912,92.7931,-0.61776,10.2644
142,1,1,0.29081,sub-AA06WI11,Hamburg_Riesel,HRBL,8.4912,-27.0224,-13.5153,79.5133,24.7052,-9.0528,1.5216
143,0.33,1,0.25132,sub-AA06WI11,Hamburg_Riesel,HRBL,30.9868,18.7118,-30.8527,-48.1462,14.5596,0.90724,-8.2834
144,1,1,0.25143,sub-AA06WI11,Hamburg_Riesel,HRBL,-115.2576,-30.9642,-157.8264,54.6826,62.446,6.1159,-0.53954
145,1,1,0.25559,sub-AA06WI11,Hamburg_Riesel,HRBL,-26.1438,-5.4765,42.7212,7.0895,-28.6588,2.6967,6.0522
146,0.66,1,0.25659,sub-AA06WI11,Hamburg_Riesel,HRBL,2.5772,-6.7496,-9.0524,-45.6535,83.1445,-1.0287,17.8581
147,1,1,0.37405,sub-AA06WI11,Hamburg_Riesel,HRBL,25.1068,23.2634,-17.7615,-2.0747,-23.9302,-3.6376,4.5619
148,0.66,1,0.38618,sub-AA06WI11,Hamburg_Riesel,HRBL,7.1878,36.781,52.0307,-3.1817,-11.2102,-3.2558,1.4879
149,1,1,0.25014,sub-AA06WI11,Hamburg_Riesel,HRBL,-38.162,-2.9739,-44.784,-45.2467,48.5596,0.21705,6.2273
153,0.66,1,0.24868,sub-AA06WI11,Hamburg_Riesel,HRBL,-22.8382,16.0014,95.6174,52.162,-102.4045,-3.6337,-1.7284
155,0.33,1,0.21057,sub-AA06WI11,Hamburg_Riesel,HRBL,-81.6002,11.3981,58.6418,12.188,-78.5065,3.9788,-2.3658
156,1,1,0.2867,sub-AA06WI11,Hamburg_Riesel,HRBL,49.1643,-15.0355,9.0634,-9.1941,63.0581,-1.0102,1.3475
158,0.33,1,0.33006,sub-AA06WI11,Hamburg_Riesel,HRBL,24.77,-1.35,95.7618,-13.7222,-32.7112,7.4556,2.4766
160,1,1,0.41364,sub-AA06WI11,Hamburg_Riesel,HRBL,-42.5329,14.7231,11.9132,-12.66,0.98301,0.71243,-1.6329
161,1,1,0.25911,sub-AA06WI11,Hamburg_Riesel,HRBL,5.5012,23.4758,68.9872,27.5106,-28.2878,-4.7412,-3.4839
162,1,1,0.21877,sub-AA06WI11,Hamburg_Riesel,HRBL,-11.1144,-40.1339,47.0154,-2.7762,131.1645,6.5009,3.3734
163,0.66,1,0.28025,sub-AA06WI11,Hamburg_Riesel,HRBL,-28.7998,-47.0813,-38.8054,-72.4362,57.7068,-3.5017,6.0368
165,1,1,0.32681,sub-AA06WI11,Hamburg_Riesel,HRBL,73.5561,5.4654,2.8075,17.5039,25.5657,-2.9446,0.74714
166,0.33,1,0.26691,sub-AA06WI11,Hamburg_Riesel,HRBL,-13.1927,15.5367,-71.4898,-62.7894,54.203,-6.0862,3.8043
167,1,1,0.26138,sub-AA06WI11,Hamburg_Riesel,HRBL,13.3542,49.8166,-20.5854,1.6234,-11.4233,-7.9897,11.2212
168,1,1,0.22469,sub-AA06WI11,Hamburg_Riesel,HRBL,-1.8181,64.1524,-56.435,-18.4141,25.9883,-4.9202,6.465
170,1,1,0.35818,sub-AA06WI11,Hamburg_Riesel,HRBL,-62.9633,-1.1376,45.5728,54.3297,59.4577,5.9254,-4.8389
171,1,1,0.36104,sub-AA06WI11,Hamburg_Riesel,HRBL,-62.6269,17.6894,63.2842,82.5857,-2.7863,-0.43156,-5.1469
172,1,1,0.33221,sub-AA06WI11,Hamburg_Riesel,HRBL,-39.1929,-0.69936,-51.3349,-7.6929,33.0672,-2.9116,3.8443
174,0.33,1,0.40541,sub-AA06WI11,Hamburg_Riesel,HRBL,3.0871,-18.8183,66.7203,41.5329,-64.629,7.575,13.1458
175,0,1,0.25092,sub-AA06WI11,Hamburg_Riesel,HRBL,5.1119,11.7992,36.6581,4.3757,-58.3717,10.2164,-7.104
177,0.33,1,0.2412,sub-AA06WI11,Hamburg_Riesel,HRBL,7.0308,33.6509,34.7698,-19.7611,92.1368,2.6976,-13.9974
178,1,1,0.25137,sub-AA06WI11,Hamburg_Riesel,HRBL,51.6317,-9.201,132.9875,69.8585,96.9714,-4.2218,-3.8956
179,1,1,0.2968,sub-AA06WI11,Hamburg_Riesel,HRBL,24.6272,-9.1562,1.321,46.2479,2.3391,-8.2403,-3.2953
181,0.66,1,0.3588,sub-AA06WI11,Hamburg_Riesel,HRBL,37.2676,-39.7149,67.7917,-9.8447,-56.3869,1.6761,4.979
182,1,1,0.18394,sub-AA06WI11,Hamburg_Riesel,HRBL,25.2607,-17.9594,-14.3913,-30.0174,18.759,3.7501,13.4124
183,0,1,0.12397,sub-AA06WI11,Hamburg_Riesel,HRBL,-29.5245,5.6572,86.574,70.3641,-9.2767,6.1234,-7.2374
185,0.66,1,0.27615,sub-AA06WI11,Hamburg_Riesel,HRBL,36.2433,16.4852,-22.7677,-12.2042,77.1166,3.5298,-0.11783
189,1,1,0.29764,sub-AA06WI11,Hamburg_Riesel,HRBL,27.5868,18.7281,-58.8702,82.6986,-47.4998,-0.82261,3.3351
190,1,1,0.37855,sub-AA06WI11,Hamburg_Riesel,HRBL,29.0187,-13.3247,37.9653,55.0022,-65.275,10.5993,-1.4685
192,0.66,1,0.61017,sub-AA06WI11,Hamburg_Riesel,HRBL,-46.4951,-16.8866,-38.626,24.7606,-8.3793,-0.77918,1.314
193,1,1,0.25281,sub-AA06WI11,Hamburg_Riesel,HRBL,-11.616,-1.5385,-28.1948,56.7877,-93.4655,9.7165,-3.0307
194,1,1,0.23948,sub-AA06WI11,Hamburg_Riesel,HRBL,-87.0657,-1.028,60.9669,-80.1206,3.8958,12.1094,0.15069
195,1,1,0.2405,sub-AA06WI11,Hamburg_Riesel,HRBL,-21.7556,48.7015,-2.9368,-59.8172,48.5641,-1.9515,-1.0668
196,1,1,0.2771,sub-AA06WI11,Hamburg_Riesel,HRBL,-34.6111,42.9175,79.2772,-13.5827,-9.2536,-6.4639,5.701
197,1,1,0.2624,sub-AA06WI11,Hamburg_Riesel,HRBL,13.569,33.6508,-24.8692,49.0344,-14.7657,1.6754,3.3301
199,1,1,0.26477,sub-AA06WI11,Hamburg_Riesel,HRBL,-61.486,3.5998,15.215,84.6649,10.1306,5.285,-9.946
200,1,1,0.26668,sub-AA06WI11,Hamburg_Riesel,HRBL,-52.6923,25.0923,16.641,-53.0073,42.2699,-0.15343,3.51
201,1,1,0.26361,sub-AA06WI11,Hamburg_Riesel,HRBL,-36.6218,-15.5366,57.4449,107.141,61.4039,-8.183,-1.3343
202,1,1,0.24929,sub-AA06WI11,Hamburg_Riesel,HRBL,2.2828,-42.0583,52.2525,57.5042,-35.8939,1.0443,-0.65623
203,1,1,0.26453,sub-AA06WI11,Hamburg_Riesel,HRBL,-1.8318,31.3775,23.1211,43.5119,42.2354,-1.0339,8.7299
204,1,1,0.23756,sub-AA06WI11,Hamburg_Riesel,HRBL,-49.0467,2.0929,47.2447,35.0837,-41.6042,-5.8921,5.2256
205,1,1,0.27786,sub-AA06WI11,Hamburg_Riesel,HRBL,-14.8837,-21.5948,12.1462,12.9824,23.4905,3.5048,1.6407
207,0.66,1,0.39043,sub-AA06WI11,Hamburg_Riesel,HRBL,-15.0416,9.9197,-62.1313,51.2308,8.4372,-0.87385,0.81894
209,0.66,1,0.23871,sub-AA06WI11,Hamburg_Riesel,HRBL,53.677,30.6642,-35.3527,-33.2113,-18.4382,-3.6732,-2.0907
210,0.33,1,0.2673,sub-AA06WI11,Hamburg_Riesel,HRBL,-24.1865,-9.3622,-0.01572,-50.6906,12.1369,-0.16345,-6.2622
212,1,1,0.28138,sub-AA06WI11,Hamburg_Riesel,HRBL,4.2135,-2.2742,-73.0587,-23.6126,-31.608,-1.124,-2.9379
214,0.33,1,0.33404,sub-AA06WI11,Hamburg_Riesel,HRBL,-53.1398,47.0747,30.4396,-99.6235,38.5545,-1.6198,-1.5085
215,1,1,0.25106,sub-AA06WI11,Hamburg_Riesel,HRBL,-1.3892,-63.7937,-65.3288,-75.6776,15.7053,1.3485,11.0934
216,1,1,0.23702,sub-AA06WI11,Hamburg_Riesel,HRBL,-8.3322,-60.279,13.8835,16.2194,6.5329,-4.404,2.2691
217,0.33,1,0.33584,sub-AA06WI11,Hamburg_Riesel,HRBL,-8.7812,-22.2878,47.294,66.7838,-3.3403,6.6938,0.51984
219,1,1,0.26681,sub-AA06WI11,Hamburg_Riesel,HRBL,34.7928,35.8068,71.8443,43.1571,21.3698,2.4682,-4.881
220,1,1,0.28645,sub-AA06WI11,Hamburg_Riesel,HRBL,-56.5521,-53.2347,-104.1173,27.7391,59.8985,-1.7246,3.9121
221,0.66,1,0.28628,sub-AA06WI11,Hamburg_Riesel,HRBL,-9.3551,-29.3818,35.1956,57.7116,-71.8159,-4.5832,-1.4421
222,1,1,0.2916,sub-AA06WI11,Hamburg_Riesel,HRBL,-11.2703,43.6819,52.5246,55.8372,-22.1406,2.0119,1.9807
223,1,1,0.25258,sub-AA06WI11,Hamburg_Riesel,HRBL,-30.047,14.5604,-46.0625,13.5988,-78.0333,-0.34081,-2.1178
225,0.66,1,0.27245,sub-AA06WI11,Hamburg_Riesel,HRBL,-42.0784,9.5338,39.5857,42.0129,-15.3876,3.7056,-4.6194
226,1,1,0.22776,sub-AA06WI11,Hamburg_Riesel,HRBL,-25.3198,-31.7726,10.7791,9.5327,-66.4094,11.4774,-8.2217
228,1,1,0.29828,sub-AA06WI11,Hamburg_Riesel,HRBL,-39.2887,10.5624,-26.8491,70.5343,-49.5403,-5.0995,4.8725
229,0.33,1,0.22616,sub-AA06WI11,Hamburg_Riesel,HRBL,41.3011,-33.8312,-29.2062,-37.1315,20.9337,1.4295,-4.6269
230,0.33,1,0.30978,sub-AA06WI11,Hamburg_Riesel,HRBL,-26.7451,-23.1882,-8.1775,-78.3949,5.1076,4.2063,11.7715
231,1,1,0.27713,sub-AA06WI11,Hamburg_Riesel,HRBL,-56.5438,-1.5842,-19.3509,-18.2347,2.1633,-1.1223,10.8066
232,1,1,0.25844,sub-AA06WI11,Hamburg_Riesel,HRBL,-27.2509,36.321,-29.6309,6.1854,99.2069,0.94274,-8.3659
234,0.33,1,0.31551,sub-AA06WI11,Hamburg_Riesel,HRBL,-34.938,5.6323,-42.3546,65.0023,79.7666,-0.94053,-0.96377
235,1,1,0.27275,sub-AA06WI11,Hamburg_Riesel,HRBL,31.8546,29.6211,-34.5649,-45.5243,76.834,-3.7907,3.1893
236,1,1,0.27404,sub-AA06WI11,Hamburg_Riesel,HRBL,-32.0733,-18.4889,73.7974,43.0565,-98.3638,-4.7717,-1.3301
237,0.33,1,0.25348,sub-AA06WI11,Hamburg_Riesel,HRBL,-50.0349,-1.5327,84.9651,-32.686,73.5291,3.5682,0.12541
239,0.33,1,0.26308,sub-AA06WI11,Hamburg_Riesel,HRBL,-59.4756,-4.5198,-61.3029,101.2373,59.3704,-1.3741,-1.6474
241,1,1,0.25505,sub-AA06WI11,Hamburg_Riesel,HRBL,-8.1541,-26.0551,74.7146,31.8592,3.2578,0.28461,0.15111
242,0.66,1,0.29742,sub-AA06WI11,Hamburg_Riesel,HRBL,-27.4079,-21.3554,30.0052,-95.2498,-10.8222,4.863,-1.6643
243,0,1,0.39264,sub-AA06WI11,Hamburg_Riesel,HRBL,5.4698,-92.1907,-36.0883,40.0565,-34.0516,-3.2833,7.567
244,1,1,0.5218,sub-AA06WI11,Hamburg_Riesel,HRBL,-4.49,-59.1399,-24.7761,-45.6323,15.0615,-4.7042,6.272
245,1,1,0.28395,sub-AA06WI11,Hamburg_Riesel,HRBL,-2.2131,-8.7918,66.0824,34.8162,51.7484,7.3979,-0.87418
246,1,1,0.31136,sub-AA06WI11,Hamburg_Riesel,HRBL,-116.4394,-13.5565,39.3192,17.2163,19.5242,4.8689,-5.7147
247,1,1,0.24656,sub-AA06WI11,Hamburg_Riesel,HRBL,-37.7197,98.9446,-6.3001,-44.6844,-34.7956,9.8716,-4.0115
249,0,1,0.27773,sub-AA06WI11,Hamburg_Riesel,HRBL,-43.9083,47.855,-7.3713,35.9717,101.8932,-3.0124,5.7804
250,1,1,0.27395,sub-AA06WI11,Hamburg_Riesel,HRBL,-9.7489,-16.8238,-24.3741,-63.855,-29.1877,-1.8566,-1.4292
252,1,1,0.26983,sub-AA06WI11,Hamburg_Riesel,HRBL,33.4514,19.4892,30.4074,58.9582,-50.2653,-3.7041,-5.2227
257,1,1,0.23915,sub-AA06WI11,Hamburg_Riesel,HRBL,10.5632,-16.1669,3.207,55.5926,-62.696,0.35804,-4.1582
260,0.33,1,0.15552,sub-AA06WI11,Hamburg_Riesel,HRBL,-60.4413,-43.1311,15.9569,24.4869,167.7384,7.9587,-0.92593
261,1,1,0.22382,sub-AA06WI11,Hamburg_Riesel,HRBL,-10.0379,18.9004,-32.977,19.2441,20.0486,-6.1157,2.9694
263,1,1,0.34659,sub-AA06WI11,Hamburg_Riesel,HRBL,20.5421,14.907,55.9557,-55.719,-2.5619,3.4206,-0.37041
264,1,1,0.27993,sub-AA06WI11,Hamburg_Riesel,HRBL,-64.6917,17.9051,-76.6838,21.437,34.3572,1.5246,11.04
266,1,1,0.36344,sub-AA06WI11,Hamburg_Riesel,HRBL,-0.28664,70.4899,48.4602,-20.4717,-29.1968,-4.0184,3.926
268,1,1,0.29487,sub-AA06WI11,Hamburg_Riesel,HRBL,-15.0795,-63.8883,62.8384,-24.3118,-29.9206,3.0127,9.0034
269,0.66,1,0.29484,sub-AA06WI11,Hamburg_Riesel,HRBL,-49.5338,-58.3322,-28.8787,46.2651,-6.339,2.7283,-0.14625
270,1,1,0.21739,sub-AA06WI11,Hamburg_Riesel,HRBL,41.4218,-25.9903,51.9982,-11.0403,-30.2212,0.035193,2.4168
271,1,1,0.29144,sub-AA06WI11,Hamburg_Riesel,HRBL,-33.8148,3.9863,-5.7741,-16.3362,65.4658,4.309,-3.6951
273,0.33,1,0.3047,sub-AA06WI11,Hamburg_Riesel,HRBL,-18.8067,-40.249,-24.0239,42.6491,-90.0461,-3.3506,-3.9731
275,0,1,0.36518,sub-AA06WI11,Hamburg_Riesel,HRBL,-10.4916,-46.4679,37.6764,-57.7931,-32.8366,-4.5772,-4.7276
276,1,1,0.35644,sub-AA06WI11,Hamburg_Riesel,HRBL,39.4461,9.0831,18.4342,-4.8585,62.5454,0.67006,5.7673
277,1,1,0.19584,sub-AA06WI11,Hamburg_Riesel,HRBL,-25.2781,35.8649,61.0525,82.9219,-19.2303,-0.67984,7.4048
278,1,1,0.26985,sub-AA06WI11,Hamburg_Riesel,HRBL,19.2383,68.6976,28.2441,-13.1972,-24.4012,6.9802,2.1984
279,1,1,0.29444,sub-AA06WI11,Hamburg_Riesel,HRBL,0.55219,61.6031,40.7345,46.1957,88.1739,5.6303,-7.3806
280,1,1,0.20666,sub-AA06WI11,Hamburg_Riesel,HRBL,-13.2913,54.3533,-103.9692,-59.3056,94.3573,2.4448,-6.7051
282,1,1,0.30693,sub-AA06WI11,Hamburg_Riesel,HRBL,35.3062,47.4376,55.2674,-24.944,38.0511,7.1553,-16.2898
283,0.66,1,0.2795,sub-AA06WI11,Hamburg_Riesel,HRBL,-11.5264,-32.5136,42.3819,3.9343,-16.1908,-6.9806,6.3784
284,1,1,0.3295,sub-AA06WI11,Hamburg_Riesel,HRBL,48.5155,-40.0574,-45.904,-75.1728,77.865,-12.597,10.7739
286,0,1,0.26976,sub-AA06WI11,Hamburg_Riesel,HRBL,25.7143,41.5266,68.9859,111.4917,16.7796,0.33309,-2.2268
287,0.66,1,0.26867,sub-AA06WI11,Hamburg_Riesel,HRBL,-27.5754,30.5778,74.0683,-4.5394,47.3887,3.9161,-5.6929
289,1,1,0.41962,sub-AG04EN28,Marburg,MBSB,749.2871,233.5613,1202.6255,-640.2244,553.7249,-13.7536,-4.2996
290,1,1,0.29845,sub-AG04EN28,Marburg,MBSB,772.764,206.1553,1035.679,-652.4033,425.0446,-13.2406,-3.3224
291,1,1,0.30946,sub-AG04EN28,Marburg,MBSB,429.323,10.24,1156.8704,27.0208,473.1683,-5.6724,-7.4556
292,0.33,1,0.25244,sub-AG04EN28,Marburg,MBSB,453.4864,30.156,930.6228,10.7648,498.628,-5.553,-7.9281
293,1,1,0.18475,sub-AG04EN28,Marburg,MBSB,68.5934,182.4712,940.9069,27.327,74.0387,0.28803,5.7514
294,1,1,0.25529,sub-AG04EN28,Marburg,MBSB,48.9708,241.8858,1028.0167,583.1793,73.8647,0.81428,5.1229
296,1,1,0.26489,sub-AG04EN28,Marburg,MBSB,203.5988,18.3118,17.7022,596.9846,74.5512,-1.9001,-6.0433
297,1,1,0.27619,sub-AG04EN28,Marburg,MBSB,220.2666,53.5443,25.5615,561.092,-261.0139,-2.0131,-5.3969
298,1,1,0.21415,sub-AG04EN28,Marburg,MBSB,-41.0142,731.8599,1.87,370.9724,-304.1345,1.6969,0.99779
299,1,1,0.26277,sub-AG04EN28,Marburg,MBSB,-30.4273,704.8006,218.8019,356.2459,-279.7115,1.6304,1.6691
300,1,1,0.23899,sub-AG04EN28,Marburg,MBSB,31.0529,-226.8401,216.7024,384.8513,442.2335,-2.9263,-0.042848
301,1,1,0.27218,sub-AG04EN28,Marburg,MBSB,65.4384,-277.1107,235.2792,183.7984,452.7934,-3.432,0.81747
302,0.33,1,0.27416,sub-AG04EN28,Marburg,MBSB,313.6223,-21.7018,-169.2606,181.7099,486.2135,-2.1114,3.3387
305,1,1,0.22159,sub-AG04EN28,Marburg,MBSB,307.8503,13.3282,-167.6423,186.224,1432.1738,-1.5277,2.7107
307,1,1,0.3619,sub-AG04EN28,Marburg,MBSB,26.0459,169.8966,-159.6674,330.7252,1355.0894,13.9128,3.2766
308,1,1,0.28216,sub-AG04EN28,Marburg,MBSB,53.0747,166.666,167.1027,340.142,1483.7368,12.4769,4.0345
309,0.66,1,0.35497,sub-AG04EN28,Marburg,MBSB,107.1391,463.3632,167.2344,362.174,220.5678,-6.4573,-6.3075
310,0.33,1,0.2159,sub-AG04EN28,Marburg,MBSB,108.2141,395.6536,228.1068,-346.0166,197.4684,-7.1934,-6.7571
311,0.66,1,0.32546,sub-AG04EN28,Marburg,MBSB,-67.6972,-327.5574,-59.0145,-321.6397,242.0633,-3.8901,-4.7337
312,0.66,1,0.2808,sub-AG04EN28,Marburg,MBSB,-55.1132,-343.5676,-0.88258,-368.9699,656.1158,-3.0327,-3.7345
313,1,1,0.30512,sub-AG04EN28,Marburg,MBSB,-156.5922,86.5723,13.5844,-228.5149,662.9431,0.77167,-1.3892
314,0.66,1,0.37467,sub-AG04EN28,Marburg,MBSB,-198.2796,113.5043,216.0958,-261.5623,714.5283,2.2535,-1.3846
316,1,1,0.2564,sub-AG04EN28,Marburg,MBSB,-439.2919,433.3782,142.8225,-115.9216,643.5266,-0.76377,6.1284
317,0.66,1,0.20673,sub-AG04EN28,Marburg,MBSB,-435.2862,436.408,197.0373,822.7872,639.3643,-0.42918,7.3921
318,0.66,1,0.34975,sub-AG04EN28,Marburg,MBSB,167.8912,253.2223,139.2425,741.0515,694.6301,-1.3666,-0.030939
319,1,1,0.23131,sub-AG04EN28,Marburg,MBSB,201.525,291.1092,128.7233,775.4564,-4.6764,-2.4116,-2.9743
320,1,1,0.25384,sub-AG04EN28,Marburg,MBSB,643.5685,301.5379,200.1888,-101.6903,-4.38,-0.86198,3.3672
321,1,1,0.24297,sub-AG04EN28,Marburg,MBSB,635.9599,319.047,156.0214,-64.317,28.5435,0.053993,4.5781
322,1,1,0.26507,sub-AG04EN28,Marburg,MBSB,190.4941,382.1758,159.2369,-100.0167,-79.0474,6.9629,-2.4693
323,0.33,1,0.34543,sub-AG04EN28,Marburg,MBSB,182.9019,405.7561,166.3875,419.4498,-101.3582,8.8486,-1.465
324,1,1,0.17182,sub-AG04EN28,Marburg,MBSB,203.3956,311.219,-351.4335,443.8806,-78.517,-6.1384,-0.065168
326,1,1,0.23574,sub-AG04EN28,Marburg,MBSB,221.3386,334.6182,-324.5714,461.5813,422.079,-6.2022,-0.84737
327,0.33,1,0.34772,sub-AG04EN28,Marburg,MBSB,-23.9239,450.7158,-324.4107,-525.8538,408.5985,8.4143,3.9714
329,0.33,1,0.3848,sub-AG04EN28,Marburg,MBSB,-8.741,496.3723,-406.4839,-468.0741,497.8797,6.2318,3.1852
330,0.66,1,0.24563,sub-AG04EN28,Marburg,MBSB,-77.4051,-15.5378,-371.8874,-543.2205,559.0268,-2.409,-4.9959
331,0,1,0.39462,sub-AG04EN28,Marburg,MBSB,-84.7238,-49.1889,-372.7068,418.9218,523.7009,-2.0572,-5.9978
332,1,1,0.3276,sub-AG04EN28,Marburg,MBSB,692.4094,186.5799,514.4855,380.6352,671.542,-8.0343,-1.8643
333,1,1,0.27452,sub-AG04EN28,Marburg,MBSB,678.1302,169.0377,433.8353,408.0829,-167.5059,-8.7685,-0.33264
335,1,1,0.25925,sub-AG04EN28,Marburg,MBSB,214.452,290.3243,490.2149,668.9858,-185.8522,7.6174,3.4237
336,1,1,0.28411,sub-AG04EN28,Marburg,MBSB,238.4277,285.0588,347.6544,634.975,-175.3117,10.5497,2.4141
337,1,1,0.23411,sub-AG04EN28,Marburg,MBSB,107.2467,-99.1908,336.5196,657.9051,253.4359,-0.60196,9.3943
339,0.66,1,0.24725,sub-AG04EN28,Marburg,MBSB,105.8951,-59.1715,323.6794,-559.4698,207.8622,0.017339,7.7594
340,1,1,0.22116,sub-AG04EN28,Marburg,MBSB,-26.1124,4.5962,70.8455,-573.843,242.1944,11.4658,-0.94112
341,1,1,0.2477,sub-AG04EN28,Marburg,MBSB,-9.9498,10.7084,77.4457,-524.1808,-638.0239,11.1783,-0.38819
343,0.33,1,0.32524,sub-AG04EN28,Marburg,MBSB,191.1458,409.1965,110.5468,239.6207,-541.5093,12.1377,5.3281
344,1,1,0.34726,sub-AG04EN28,Marburg,MBSB,233.1085,425.1721,70.9512,258.2149,-532.4073,10.6877,4.9378
346,0,1,0.27527,sub-AG04EN28,Marburg,MBSB,171.2494,169.4919,87.0493,187.4313,-119.133,8.7979,1.3701
347,0.66,1,0.34806,sub-AG04EN28,Marburg,MBSB,169.0738,164.6977,136.5841,-151.728,-72.1305,10.4562,1.3424
349,0.33,1,0.27914,sub-AG04EN28,Marburg,MBSB,-299.251,-309.364,-157.0773,-243.5228,-149.7375,-4.7453,5.893
350,1,1,0.32814,sub-AG04EN28,Marburg,MBSB,-306.531,-279.9973,-148.7013,-202.5665,-307.9274,-1.2543,6.8559
351,1,1,0.33722,sub-AG04EN28,Marburg,MBSB,315.6985,-131.4993,-102.5929,-15.8481,-321.2549,6.986,-2.1243
352,1,1,0.2945,sub-AG04EN28,Marburg,MBSB,336.7695,-136.7915,-204.549,63.4068,-243.9866,6.7061,-2.6821
353,0.66,1,0.37646,sub-AG04EN28,Marburg,MBSB,-84.9185,344.5938,-200.5876,-6.8106,-496.7807,-1.2806,1.9458
354,1,1,0.25744,sub-AG04EN28,Marburg,MBSB,-74.5193,367.4788,-195.1624,204.2659,-441.7869,-1.6436,2.8087
355,1,1,0.30555,sub-AG04EN28,Marburg,MBSB,-155.5579,-271.2076,617.3149,253.3065,-406.0675,2.7176,6.0232
356,1,1,0.28717,sub-AG04EN28,Marburg,MBSB,-189.9527,-284.6404,603.79,229.3765,134.7717,4.1358,6.506
357,0.66,1,0.34775,sub-AG04EN28,Marburg,MBSB,44.9701,-73.9818,656.6445,31.8921,134.4336,2.9577,3.3731
358,0,1,0.34061,sub-AG04EN28,Marburg,MBSB,0.43761,-64.7273,155.3448,25.6208,141.1345,3.7308,3.9049
359,1,1,0.34192,sub-AG04EN28,Marburg,MBSB,-216.0458,52.309,169.7591,-54.5054,-228.823,6.4806,-8.3727
360,0,1,0.36816,sub-AG04EN28,Marburg,MBSB,-208.6623,112.9637,226.702,51.2264,-209.3351,6.022,-8.0429
362,1,1,0.23462,sub-AG04EN28,Marburg,MBSB,418.1521,157.5692,100.9944,26.4355,-132.5298,-0.3799,4.9073
363,1,1,0.20081,sub-AG04EN28,Marburg,MBSB,457.5021,131.7275,115.8202,194.9095,40.5976,-0.029993,4.6512
364,0.66,1,0.4201,sub-AG04EN28,Marburg,MBSB,409.7046,3.5766,139.4811,129.0938,45.0346,-2.9541,-0.35784
367,0.33,1,0.29399,sub-AG04EN28,Marburg,MBSB,420.8932,-11.6507,44.9597,75.9289,90.9956,-2.3615,-0.8145
368,0.66,1,0.19542,sub-AG04EN28,Marburg,MBSB,286.1414,449.8435,38.4773,150.7002,859.729,-6.4524,3.9634
369,1,1,0.2357,sub-AG04EN28,Marburg,MBSB,244.9781,442.0695,48.6027,-103.6417,775.9849,-7.3418,2.873
370,1,1,0.29885,sub-AG04EN28,Marburg,MBSB,-32.0762,525.1738,8.0983,-29.3519,838.2494,8.9642,-3.2795
371,0.66,1,0.20175,sub-AG04EN28,Marburg,MBSB,-32.8757,517.0079,3.6581,-110.1306,205.846,8.511,-3.6532
372,0.33,1,0.37707,sub-AG04EN28,Marburg,MBSB,367.4311,412.9695,83.4424,478.3438,228.5827,-4.1981,2.0658
373,1,1,0.18584,sub-AG04EN28,Marburg,MBSB,347.9096,387.4162,96.9563,464.3092,198.025,-3.9906,2.7768
374,1,1,0.25605,sub-AG04EN28,Marburg,MBSB,92.836,-62.7741,109.5956,432.6198,-59.4215,-2.9622,-5.462
375,1,1,0.24159,sub-AG04EN28,Marburg,MBSB,101.7535,-70.8967,130.41,-659.8386,-117.2123,-2.5668,-4.7339
377,1,1,0.21133,sub-AG04EN28,Marburg,MBSB,154.9237,-306.9268,-83.6883,-565.7673,-22.9831,7.9171,10.3031
378,0,1,0.35044,sub-AG04EN28,Marburg,MBSB,156.8548,-309.9233,-86.4942,-607.9883,196.9988,8.8115,10.7712
379,0.66,1,0.29285,sub-AG04EN28,Marburg,MBSB,362.6084,235.1517,-91.1263,-227.7201,189.0454,-6.7377,-8.8581
380,1,1,0.26163,sub-AG04EN28,Marburg,MBSB,331.8914,266.3199,347.8407,-227.2632,224.8385,-5.4338,-8.9677
382,1,1,0.26745,sub-AG04EN28,Marburg,MBSB,214.443,1229.8918,323.6052,-205.891,-455.3628,-2.5719,-1.5163
385,0.33,1,0.30853,sub-AG04EN28,Marburg,MBSB,253.8664,1269.2606,364.8712,104.4181,-370.9903,-1.3083,-0.92197
388,1,1,0.27358,sub-AG04EN28,Marburg,MBSB,550.2795,239.2872,-0.40273,112.4629,-359.9763,5.2976,-4.0868
389,0.33,1,0.20686,sub-AG04EN28,Marburg,MBSB,530.8133,261.7735,-36.3973,96.5355,143.0799,5.4412,-4.4139
390,0.66,1,0.2068,sub-AG04EN28,Marburg,MBSB,613.5475,656.313,-27.4809,-504.532,144.8151,3.4988,2.72
391,1,1,0.22055,sub-AG04EN28,Marburg,MBSB,611.9013,691.2218,-138.7765,-494.5226,215.7438,3.0172,1.8625
394,0.66,1,0.37271,sub-AG04EN28,Marburg,MBSB,91.2304,404.8791,-156.9698,-519.3956,251.6275,-2.0853,-0.39109
398,1,1,0.26583,sub-AG04EN28,Marburg,MBSB,123.5332,406.8945,-173.1473,475.0011,249.5797,-1.0373,-0.33539
399,1,1,0.31252,sub-AG04EN28,Marburg,MBSB,26.1745,229.7112,-185.5806,469.0341,279.0535,-9.6865,-3.7059
400,1,1,0.31387,sub-AG04EN28,Marburg,MBSB,38.8395,242.2452,-156.3825,466.7377,-165.3757,-9.2931,-3.0435
403,0,1,0.3202,sub-AG04EN28,Marburg,MBSB,388.3348,-220.2575,-225.4614,326.1752,-189.3835,-0.048567,2.4626
406,1,1,0.25888,sub-AG04EN28,Marburg,MBSB,348.8169,-217.2461,72.2314,346.2445,-226.6286,-0.017139,3.0625
407,1,1,0.24984,sub-AG04EN28,Marburg,MBSB,-39.4523,353.9178,43.9112,361.5159,-86.7062,-3.5974,12.968
408,1,1,0.29079,sub-AG04EN28,Marburg,MBSB,-74.8807,410.1786,55.1763,199.8863,-68.2787,-2.123,14.016
412,1,1,0.21745,sub-AG04EN28,Marburg,MBSB,-170.3302,351.1879,329.3521,180.7638,-66.1216,-4.973,3.444
413,0,1,0.34258,sub-AG04EN28,Marburg,MBSB,-167.616,420.516,298.1951,196.1006,342.9313,-4.7113,3.9885
414,1,1,0.25752,sub-AG04EN28,Marburg,MBSB,88.888,-30.8521,349.0014,-22.6207,351.2953,-3.4096,4.6516
417,0.33,1,0.26636,sub-AG04EN28,Marburg,MBSB,89.3636,-73.0089,222.5179,-136.9809,349.3225,-4.7987,5.0392
418,0.33,1,0.36443,sub-AG04EN28,Marburg,MBSB,206.2332,-13.7998,277.3527,-87.3515,403.447,-7.8433,3.743
419,1,1,0.36395,sub-AG04EN28,Marburg,MBSB,209.3035,-22.8504,329.4951,642.8063,409.6908,-6.895,3.2667
420,0,1,0.38599,sub-AG04EN28,Marburg,MBSB,752.9189,-257.8631,158.9393,627.913,416.6719,6.9586,-9.7142
421,0,1,0.36887,sub-AG04EN28,Marburg,MBSB,750.3841,-272.6531,155.2646,649.8542,-241.1231,6.3212,-8.8541
424,1,1,0.28329,sub-AG04EN28,Marburg,MBSB,-196.742,61.6841,126.3995,301.2734,-216.7069,4.4138,-14.3402
425,1,1,0.29824,sub-AG04EN28,Marburg,MBSB,-225.4345,25.5263,143.5443,342.068,-217.6237,4.6156,-14.4609
427,1,1,0.21618,sub-AG04EN28,Marburg,MBSB,167.422,-147.8504,117.3259,328.9634,-124.1259,-2.9424,2.7719
428,1,1,0.37344,sub-AG04EN28,Marburg,MBSB,156.1778,-115.2292,98.9275,423.9661,-133.0937,-2.9335,3.9272
431,0.33,1,0.34516,sub-AG04EN28,Marburg,MBSB,709.8046,-613.3712,288.458,425.7982,-97.1137,9.0225,2.7992
433,0.66,1,0.26978,sub-AG04EN28,Marburg,MBSB,699.356,-597.5505,240.1497,427.2184,-273.388,8.8552,3.5668
434,0,1,0.36366,sub-AG04EN28,Marburg,MBSB,144.5382,259.711,246.1934,37.9485,-267.6029,2.3615,-9.7653
435,0.33,1,0.27006,sub-AG04EN28,Marburg,MBSB,137.7437,242.8171,174.3575,3.0572,-283.424,3.0049,-9.5442
436,0.33,1,0.31993,sub-AG04EN28,Marburg,MBSB,74.6013,-187.1097,154.3512,80.751,123.9717,-3.3637,-7.3379
437,0,1,0.43415,sub-AG04EN28,Marburg,MBSB,114.7801,-181.6604,136.5212,397.8758,151.4432,-3.3429,-6.4154
438,0.33,1,0.25344,sub-AG04EN28,Marburg,MBSB,274.5584,-186.9735,229.7053,352.2392,157.1969,-1.4335,-5.0217
439,1,1,0.23061,sub-AG04EN28,Marburg,MBSB,256.574,-193.8662,234.7037,417.6626,221.8168,-0.53629,-3.9036
440,1,1,0.25518,sub-AG04EN28,Marburg,MBSB,112.2044,496.169,284.5391,65.4522,193.6945,4.1501,0.88991
441,1,1,0.25445,sub-AG04EN28,Marburg,MBSB,168.8862,508.7167,383.6819,41.3299,223.8364,4.0009,0.5082
442,0.66,1,0.3168,sub-AG04EN28,Marburg,MBSB,-331.5916,420.1301,387.812,102.1608,-365.8083,6.5043,-6.5269
443,0,1,0.37315,sub-AG04EN28,Marburg,MBSB,-311.4193,384.0206,396.0792,691.204,-396.9872,6.0688,-6.7351
444,1,1,0.25426,sub-AG04EN28,Marburg,MBSB,-165.2591,34.158,194.2718,653.8989,-407.9705,10.8943,-8.9189
445,1,1,0.25222,sub-AG04EN28,Marburg,MBSB,-140.4736,95.3957,183.0047,647.24,662.9521,7.8075,-7.6923
446,1,1,0.26472,sub-AG04EN28,Marburg,MBSB,266.0207,349.3908,248.547,-250.4263,638.3542,15.7254,-8.8726
447,1,1,0.22621,sub-AG04EN28,Marburg,MBSB,265.7903,377.0673,696.5705,-209.7323,668.0369,13.187,-8.5314
448,1,1,0.2749,sub-AG04EN28,Marburg,MBSB,326.861,-399.4387,665.4719,-241.8687,427.8953,1.3258,1.7852
449,0.66,1,0.28002,sub-AG04EN28,Marburg,MBSB,362.1766,-416.8436,720.0236,-48.0063,414.2904,0.89971,0.54839
450,1,1,0.26746,sub-AG04EN28,Marburg,MBSB,10.5304,-11.74,601.5705,-102.4062,471.7913,-2.3911,-0.63331
451,1,1,0.30581,sub-AG04EN28,Marburg,MBSB,3.5413,-14.6587,576.3486,-126.5149,-4.1386,-1.7293,0.47285
452,1,1,0.29264,sub-AG04EN28,Marburg,MBSB,432.9833,456.8697,615.5316,119.9834,-62.4524,-5.6578,-3.7666
453,1,1,0.29519,sub-AG04EN28,Marburg,MBSB,431.7287,479.8882,-383.8473,73.8549,-43.14,-6.2889,-1.9441
455,0.33,1,0.32844,sub-AG04EN28,Marburg,MBSB,205.574,-462.3262,-356.4851,92.4599,1300.7573,10.3616,3.6459
457,0.66,1,0.34218,sub-AG04EN28,Marburg,MBSB,216.9514,-472.8222,-328.7401,398.5417,1268.3656,10.4478,4.6372
458,0.33,1,0.28624,sub-AG04EN28,Marburg,MBSB,367.9197,-35.3611,-98.0935,396.35,1344.0585,-8.2312,-1.0606
459,1,1,0.31078,sub-AG04EN28,Marburg,MBSB,350.4231,-30.0148,-66.3723,360.2783,-119.7449,-8.9631,-0.94552
460,0,1,0.41755,sub-AG04EN28,Marburg,MBSB,228.3609,374.5282,-65.0161,-254.578,-110.4228,-1.0148,-6.8267
462,1,1,0.28885,sub-AG04EN28,Marburg,MBSB,253.7909,357.1856,381.9016,-258.8006,-47.288,-1.2744,-7.387
463,1,1,0.23658,sub-AG04EN28,Marburg,MBSB,121.7913,155.9095,391.404,-271.2441,300.4655,0.12211,1.2735
465,0.33,1,0.30308,sub-AG04EN28,Marburg,MBSB,134.9009,129.0117,351.0091,63.2045,266.3928,-1.3955,2.4603
467,0.33,1,0.32155,sub-AG04EN28,Marburg,MBSB,102.4249,-457.2552,-46.8309,3.239,324.8481,2.0881,-2.8574
468,1,1,0.248,sub-AG04EN28,Marburg,MBSB,99.3949,-456.4731,9.1368,66.1371,494.3581,0.71391,-2.1222
469,1,1,0.35759,sub-AG04EN28,Marburg,MBSB,-366.295,-165.9348,-18.8365,645.5474,448.3864,-6.5847,-8.3218
470,0.66,1,0.35134,sub-AG04EN28,Marburg,MBSB,-366.1412,-153.5264,-179.9846,612.4312,450.6863,-7.1172,-7.7789
471,0,1,0.31919,sub-AG04EN28,Marburg,MBSB,-149.4652,-334.4897,-205.6117,652.5259,-174.0314,-4.825,2.8592
472,0.66,1,0.23013,sub-AG04EN28,Marburg,MBSB,-128.9036,-368.2383,-167.6155,252.797,-115.1936,-5.6058,3.6505
473,0.66,1,0.34594,sub-AG04EN28,Marburg,MBSB,463.0603,110.1389,-87.0865,257.6342,-161.8081,0.871,-2.1972
475,0.66,1,0.3092,sub-AG04EN28,Marburg,MBSB,437.2102,97.6051,-60.3874,319.4739,698.6926,1.4149,-1.3166
476,1,1,0.24954,sub-AG04EN28,Marburg,MBSB,399.4443,103.2959,-18.1452,462.3415,658.5854,-6.8944,3.0636
478,1,1,0.29007,sub-AG04EN28,Marburg,MBSB,383.3522,160.3564,270.2305,431.3639,691.9255,-7.1811,4.1126
486,1,1,0.23153,sub-AG04EN28,Marburg,MBSB,360.3402,-186.4068,354.2184,488.7936,-110.9612,-3.6889,-5.9852
487,1,1,0.22684,sub-AG04EN28,Marburg,MBSB,362.7767,-182.6582,372.1199,426.5037,-85.4771,-2.8379,-6.2432
488,1,1,0.22897,sub-AG04EN28,Marburg,MBSB,395.5157,698.2584,877.3299,384.2522,-111.4831,2.8648,6.5147
490,1,1,0.27933,sub-AG04EN28,Marburg,MBSB,402.6745,677.6595,831.111,443.2907,-299.5511,1.9588,6.0771
491,0.66,1,0.26693,sub-AG04EN28,Marburg,MBSB,-260.6808,299.4465,873.806,420.6636,-333.9036,-1.6505,-11.2903
492,1,1,0.25048,sub-AG04EN28,Marburg,MBSB,-289.8793,318.4925,-320.4851,397.072,-321.2524,-0.89625,-10.016
495,0.33,1,0.35646,sub-AG04EN28,Marburg,MBSB,-211.0869,-123.062,-330.069,447.0037,624.6543,-0.92994,-2.9539
497,1,1,0.30905,sub-AG04EN28,Marburg,MBSB,-132.7452,-101.8849,-319.0197,396.717,655.2599,-0.37195,-4.1243
498,1,1,0.28098,sub-AG04EN28,Marburg,MBSB,512.6899,708.6946,303.7493,350.413,645.867,-5.3671,5.4538
501,1,1,0.29052,sub-AG04EN28,Marburg,MBSB,545.5074,719.051,272.8206,413.8723,989.9453,-6.0802,5.9613
502,0.66,1,0.33577,sub-AG04EN28,Marburg,MBSB,-165.0088,-55.7393,274.0446,-45.7256,940.0792,-1.3044,8.213
505,0,1,0.35019,sub-AG04EN28,Marburg,MBSB,-183.6965,-27.4986,765.6631,-68.7752,951.7933,-0.79724,6.8626
506,0.33,1,0.30649,sub-AG04EN28,Marburg,MBSB,492.3656,253.4892,750.5764,-107.7295,360.1011,-6.2121,3.033
507,0.33,1,0.30632,sub-AG04EN28,Marburg,MBSB,485.4609,280.4634,785.4802,474.9468,348.8837,-3.7219,4.2267
508,0.33,1,0.33094,sub-AG04EN28,Marburg,MBSB,-196.7778,277.1949,148.9484,477.3862,354.8959,1.0857,4.7435
509,1,1,0.26439,sub-AG04EN28,Marburg,MBSB,-258.7195,274.2132,144.3619,474.3124,31.8896,1.783,1.0373
510,1,1,0.2429,sub-AG04EN28,Marburg,MBSB,284.7757,-15.1258,114.0683,120.7884,33.6317,-0.20785,-3.9783
512,1,1,0.23004,sub-AG04EN28,Marburg,MBSB,284.571,-45.3007,137.6249,133.5761,63.3637,-0.65226,-4.5777
515,0.33,1,0.32673,sub-AG04EN28,Marburg,MBSB,732.4994,535.3737,194.5198,120.1622,-760.0467,-0.4351,0.58516
516,0.33,1,0.33854,sub-AG04EN28,Marburg,MBSB,723.9984,564.9248,236.591,-65.3614,-723.0328,-0.85313,1.3794
519,1,1,0.19851,sub-AG04EN28,Marburg,MBSB,-447.5183,-81.2539,103.8888,-70.5477,-711.329,-7.6732,-6.4808
520,1,1,0.33412,sub-AG04EN28,Marburg,MBSB,-428.3951,-100.7218,99.9594,-5.0235,162.2291,-10.3359,-6.6012
521,1,1,0.27817,sub-AG04EN28,Marburg,MBSB,135.5134,-223.3729,101.8009,31.1461,124.9708,-2.329,-4.0051
523,0,1,0.26663,sub-AG04EN28,Marburg,MBSB,119.909,-233.4808,499.1246,19.3082,131.4798,-2.2471,-4.4729
524,0.66,1,0.31512,sub-AG04EN28,Marburg,MBSB,-272.7369,445.6212,419.3374,28.6512,9.212,-10.9456,7.8532
525,1,1,0.26365,sub-AG04EN28,Marburg,MBSB,-243.3898,425.0428,507.2149,412.4722,39.3942,-10.4947,6.3709
526,1,1,0.22351,sub-AG04EN28,Marburg,MBSB,-89.1063,504.0251,3.5013,389.865,45.765,-1.7532,-1.7824
527,1,1,0.22489,sub-AG04EN28,Marburg,MBSB,-115.8828,488.4918,-11.4856,437.4038,448.731,0.37908,-1.1088
528,1,1,0.24948,sub-AG04EN28,Marburg,MBSB,132.1922,214.715,11.4844,283.8302,407.6909,5.6067,-5.1624
529,0.66,1,0.30793,sub-AG04EN28,Marburg,MBSB,76.8003,225.7121,-0.071048,249.2465,428.5598,2.7442,-3.7743
530,1,1,0.18668,sub-AG04EN28,Marburg,MBSB,-52.8697,-56.6912,-8.6136,298.7953,734.0757,5.8794,-5.7666
531,1,1,0.24117,sub-AG04EN28,Marburg,MBSB,-102.8596,-39.3166,55.2411,-9.0308,751.4694,5.4178,-6.2908
532,1,1,0.23914,sub-AG04EN28,Marburg,MBSB,369.8972,-481.2311,184.2151,-33.1566,813.3552,-3.8117,-2.0786
534,1,1,0.24429,sub-AG04EN28,Marburg,MBSB,429.0822,-475.1638,175.8755,27.0841,1055.7433,-3.3008,-2.8506
537,1,1,0.24825,sub-AG04EN28,Marburg,MBSB,150.7124,76.9808,219.8014,-79.5387,1021.6331,-1.4811,0.88883
538,1,1,0.24847,sub-AG04EN28,Marburg,MBSB,224.5592,94.9149,504.3395,-118.4534,1066.4113,0.91815,0.79025
539,1,1,0.24635,sub-AG04EN28,Marburg,MBSB,380.0793,-14.6171,466.7193,-122.2133,378.1909,-5.1196,6.6321
540,0,1,0.34646,sub-AG04EN28,Marburg,MBSB,341.665,-21.2127,517.6929,785.2812,397.0832,-5.5666,6.4858
541,0.66,1,0.32446,sub-AG04EN28,Marburg,MBSB,250.4698,465.5698,198.4786,702.311,384.9949,-3.7561,0.47703
546,0.66,1,0.25037,sub-AG04EN28,Marburg,MBSB,260.4255,477.8268,199.5374,709.1025,249.2122,-5.2808,-0.72227
547,0.66,1,0.27629,sub-AG04EN28,Marburg,MBSB,-117.9226,486.59,204.2581,-139.6515,206.1983,-2.665,-1.631
548,1,1,0.22557,sub-AG04EN28,Marburg,MBSB,-119.5106,513.6274,286.2821,-155.5148,225.7395,-3.8683,-2.4528
550,0.33,1,0.25573,sub-AG04EN28,Marburg,MBSB,-359.9379,1011.8519,269.5965,-167.119,-34.3677,-9.7979,-0.21944
551,0,1,0.29303,sub-AG04EN28,Marburg,MBSB,-355.4137,1032.5079,228.7338,22.0481,-109.2597,-9.6262,-1.0354
552,1,1,0.26204,sub-AG04EN28,Marburg,MBSB,-155.2446,362.7087,180.3149,-25.9678,-59.427,4.3799,-11.9976
553,1,1,0.35925,sub-AG04EN28,Marburg,MBSB,-197.1644,339.4736,189.2372,-16.4617,178.362,4.3127,-12.6558
555,1,1,0.25589,sub-AG04EN28,Marburg,MBSB,-512.3282,96.6251,234.164,-24.3028,159.803,3.227,7.2651
556,0,1,0.39993,sub-AG04EN28,Marburg,MBSB,-534.223,85.5919,399.1224,-71.2252,187.5984,2.3956,5.9115
559,1,1,0.18268,sub-AG04EN28,Marburg,MBSB,478.1353,-147.5611,422.4571,-13.2968,141.1267,6.8859,1.5721
560,0.66,1,0.27243,sub-AG04EN28,Marburg,MBSB,464.0651,-113.3579,444.1589,436.5216,159.3549,7.4439,1.82
563,0.66,1,0.26088,sub-AG04EN28,Marburg,MBSB,202.6113,82.5006,57.2056,431.7551,179.8375,-1.7359,1.0672
564,1,1,0.23776,sub-AG04EN28,Marburg,MBSB,180.9102,94.3667,54.4852,446.9294,1016.2905,1.2509,0.89101
565,1,1,0.26761,sub-AG04EN28,Marburg,MBSB,250.6517,128.6041,31.0513,147.3739,913.2488,0.20013,-9.3885
566,1,1,0.26452,sub-AG04EN28,Marburg,MBSB,225.6515,131.8861,117.313,174.8546,973.6223,0.25044,-9.3074
568,1,1,0.30255,sub-AG04EN28,Marburg,MBSB,-232.1943,504.9303,99.4014,167.4603,378.5524,0.8323,7.5116
569,0.33,1,0.33123,sub-AG04EN28,Marburg,MBSB,-211.6192,515.912,135.9406,462.2143,283.7687,0.70931,5.9027
571,1,1,0.3482,sub-AG04EN28,Marburg,MBSB,495.8079,372.7639,107.7991,421.5082,385.0984,-2.2725,-2.6798
572,1,1,0.29531,sub-AG04EN28,Marburg,MBSB,494.1867,427.278,125.4618,444.9483,251.9611,-3.6592,-3.4557
573,1,1,0.24467,sub-AG04EN28,Marburg,MBSB,254.686,103.5103,134.5579,523.1613,213.7829,4.4973,-1.8181
575,1,1,0.29991,sub-AG04EN28,Marburg,MBSB,240.7824,130.0988,-625.5845,535.0052,247.3488,3.4118,-2.5067
0,0,1,0.48063,sub-AG05AS29,Marburg,MBSB,412.6843,636.7878,446.7909,477.1157,209.8444,-1.6564,-6.4242
1,1,1,0.31133,sub-AG05AS29,Marburg,MBSB,407.2869,998.7236,367.5813,224.362,22.1553,-0.55568,2.1293
2,1,1,0.33108,sub-AG05AS29,Marburg,MBSB,526.8873,1005.5588,360.7196,124.074,454.9062,-0.44828,1.5597
3,1,1,0.31539,sub-AG05AS29,Marburg,MBSB,582.3374,1021.4748,779.9705,158.2177,397.1903,0.028267,-4.7768
4,1,1,0.33218,sub-AG05AS29,Marburg,MBSB,912.5335,966.9265,732.1268,-748.6878,449.6938,6.6039,-5.4108
5,1,1,0.34365,sub-AG05AS29,Marburg,MBSB,933.4125,-423.3112,878.0742,-664.9122,311.2769,6.7559,4.6792
6,1,1,0.3321,sub-AG05AS29,Marburg,MBSB,265.3296,-525.1073,782.6671,-726.6602,150.7181,-0.86082,3.5762
7,0,1,0.47843,sub-AG05AS29,Marburg,MBSB,259.4133,-16.0513,664.7553,749.1622,280.4068,-1.0805,-3.4303
8,1,1,0.32696,sub-AG05AS29,Marburg,MBSB,-100.6531,28.3627,751.2404,732.9235,829.1685,0.62941,-5.0056
9,0.66,1,0.28527,sub-AG05AS29,Marburg,MBSB,-129.9391,-102.4973,302.9211,816.4914,682.5065,0.73763,-2.0835
10,1,1,0.33753,sub-AG05AS29,Marburg,MBSB,311.3972,-35.3841,200.066,485.6732,790.6404,7.6379,-1.7697
11,0.66,1,0.30814,sub-AG05AS29,Marburg,MBSB,331.113,466.3064,267.6954,607.0659,266.1621,9.7755,4.5024
12,0,1,0.33046,sub-AG05AS29,Marburg,MBSB,981.84,593.6375,156.8938,613.5649,255.2839,1.8716,4.2902
13,1,1,0.37561,sub-AG05AS29,Marburg,MBSB,990.9771,870.0261,118.2498,-918.6962,254.597,2.1079,0.22568
14,0.33,1,0.42253,sub-AG05AS29,Marburg,MBSB,398.6527,846.6015,177.9958,-907.1747,-96.2109,-6.4816,0.67076
15,1,1,0.33555,sub-AG05AS29,Marburg,MBSB,396.0011,212.9539,-76.7086,-796.783,-253.6831,-6.3346,-2.5458
16,1,1,0.32628,sub-AG05AS29,Marburg,MBSB,503.8521,259.2979,-91.1298,341.9828,-113.8519,3.8065,-2.7293
17,0.33,1,0.32438,sub-AG05AS29,Marburg,MBSB,480.1538,296.4933,-26.0322,295.8887,336.9177,4.7307,-5.8858
18,0,1,0.46398,sub-AG05AS29,Marburg,MBSB,-36.7655,328.5384,1263.2853,392.8477,306.8075,3.1512,-6.6704
19,1,1,0.30551,sub-AG05AS29,Marburg,MBSB,2.1546,-377.4042,1203.7488,437.7518,326.8158,3.4686,-4.9905
20,0.66,1,0.35158,sub-AG05AS29,Marburg,MBSB,914.8324,-344.5403,1293.441,424.5103,290.8887,-8.1232,-4.2151
21,0,1,0.47563,sub-AG05AS29,Marburg,MBSB,892.041,950.3419,690.7806,391.3686,188.6584,-7.913,4.2159
22,1,1,0.43286,sub-AG05AS29,Marburg,MBSB,950.1137,1041.275,594.2747,1042.8282,326.8112,2.0571,7.6105
23,0.66,1,0.30507,sub-AG05AS29,Marburg,MBSB,977.4859,414.8711,702.3079,896.5192,541.1119,2.5038,-6.93
24,1,1,0.40529,sub-AG05AS29,Marburg,MBSB,88.0078,476.2491,697.2389,1001.3098,512.8649,2.1253,-7.0334
25,0,1,0.37319,sub-AG05AS29,Marburg,MBSB,102.2839,258.3142,654.1944,280.0671,590.3931,1.4443,-2.3534
26,0.33,1,0.41542,sub-AG05AS29,Marburg,MBSB,73.1827,330.8996,708.2322,110.9842,860.4125,1.5285,-2.3318
27,1,1,0.30124,sub-AG05AS29,Marburg,MBSB,118.1125,-241.036,93.2339,320.9649,738.0694,0.98142,-11.0717
28,1,1,0.34827,sub-AG05AS29,Marburg,MBSB,-98.0836,-240.936,19.7789,-619.2172,871.234,6.102,-10.0999
30,1,1,0.37731,sub-AG05AS29,Marburg,MBSB,-127.9655,278.0352,86.3674,-688.4412,1182.8777,4.8595,-1.4509
31,0.66,1,0.40635,sub-AG05AS29,Marburg,MBSB,511.4442,200.7779,1101.8544,-624.2212,1089.4569,0.068156,-3.5704
32,1,1,0.37132,sub-AG05AS29,Marburg,MBSB,553.8618,52.5082,1095.7976,15.7656,1137.1516,0.16356,-8.4165
33,1,1,0.50784,sub-AG05AS29,Marburg,MBSB,599.0626,39.1421,1048.6289,-41.3647,-295.3174,-1.6138,-8.2634
34,0,1,0.45375,sub-AG05AS29,Marburg,MBSB,622.7951,330.139,922.5165,-8.0344,-387.5482,-3.1811,3.9819
35,1,1,0.38089,sub-AG05AS29,Marburg,MBSB,343.7244,341.2994,857.3138,744.2723,-427.788,3.4835,3.2002
36,1,1,0.36608,sub-AG05AS29,Marburg,MBSB,288.7851,524.9937,902.5138,682.3334,62.506,4.227,0.32724
37,0.33,1,0.36148,sub-AG05AS29,Marburg,MBSB,361.7561,566.2218,310.557,746.2296,-81.6562,1.3079,0.037548
38,1,1,0.30487,sub-AG05AS29,Marburg,MBSB,410.6949,565.5826,233.0032,-303.8306,234.4566,1.1383,-3.1428
39,1,1,0.30529,sub-AG05AS29,Marburg,MBSB,1118.4818,574.8945,278.8712,-330.2604,-236.0661,7.0174,-3.7074
40,1,1,0.2891,sub-AG05AS29,Marburg,MBSB,1150.624,160.5249,31.4481,-283.8465,-225.8555,6.5229,5.5063
41,1,1,0.29917,sub-AG05AS29,Marburg,MBSB,353.8643,200.0762,-22.8248,953.7983,-210.2236,-11.6988,5.742
42,1,1,0.29374,sub-AG05AS29,Marburg,MBSB,422.6816,32.6988,106.5501,816.3936,-297.6946,-9.5636,8.9805
43,0.33,1,0.35189,sub-AG05AS29,Marburg,MBSB,1276.2112,59.8081,201.6441,966.1782,-407.7408,-3.7925,8.335
44,0.33,1,0.39736,sub-AG05AS29,Marburg,MBSB,1345.6255,3.1764,241.4528,1196.2755,-195.8087,-4.2859,-1.602
45,0.66,1,0.36022,sub-AG05AS29,Marburg,MBSB,293.8475,54.1994,287.1411,1114.6501,506.4552,-2.6937,-1.0128
46,0.66,1,0.31393,sub-AG05AS29,Marburg,MBSB,329.9018,124.0685,358.2133,1286.6444,462.9746,-2.6086,-0.69451
47,1,1,0.43891,sub-AG05AS29,Marburg,MBSB,385.2489,199.812,221.5453,278.0537,564.6475,-0.12999,-1.2627
48,0.33,1,0.36222,sub-AG05AS29,Marburg,MBSB,397.6694,659.0804,290.5331,209.7497,615.8853,1.2869,5.0597
49,0.33,1,0.36225,sub-AG05AS29,Marburg,MBSB,1058.9072,609.0327,473.6469,326.9107,550.6164,-0.32297,4.8769
50,0,1,0.44691,sub-AG05AS29,Marburg,MBSB,973.9778,705.1974,460.7519,810.4028,587.3808,-1.0261,-0.66405
51,0,1,0.33119,sub-AG05AS29,Marburg,MBSB,365.6705,779.754,530.6313,734.3489,869.8633,-3.5589,-0.76481
52,0.33,1,0.3223,sub-AG05AS29,Marburg,MBSB,428.558,474.1838,203.9277,853.662,1013.1827,-2.9818,8.5949
53,0.33,1,0.29258,sub-AG05AS29,Marburg,MBSB,698.3542,545.2153,145.7914,789.0182,905.5285,-7.1503,10.5187
54,0,1,0.36247,sub-AG05AS29,Marburg,MBSB,687.4349,477.1397,143.3018,698.3656,272.1426,-7.6857,-7.127
55,1,1,0.29932,sub-AG05AS29,Marburg,MBSB,1371.9835,493.57,421.7309,752.0657,173.3517,1.0706,-6.7253
56,1,1,0.31001,sub-AG05AS29,Marburg,MBSB,1412.6288,175.4163,331.8192,726.2743,262.2412,0.96913,-11.8314
57,1,1,0.35817,sub-AG05AS29,Marburg,MBSB,-319.3928,254.3881,511.3659,765.991,-140.5033,-5.1229,-11.6985
58,1,1,0.30212,sub-AG05AS29,Marburg,MBSB,-280.7007,722.226,1178.1366,659.4871,-174.7653,-4.971,-0.057885
59,0.66,1,0.27347,sub-AG05AS29,Marburg,MBSB,453.6803,657.5338,1073.3938,-108.0505,-109.9595,-1.5951,0.29873
60,0.66,1,0.25863,sub-AG05AS29,Marburg,MBSB,487.2201,1040.592,1104.2499,-127.1295,113.0235,-1.1526,4.285
61,0.66,1,0.33344,sub-AG05AS29,Marburg,MBSB,-171.6598,985.0712,356.5901,-48.5856,142.6936,-5.9726,3.7611
62,0,1,0.30723,sub-AG05AS29,Marburg,MBSB,-127.1372,15.372,284.7033,185.1019,205.0449,-6.0915,-0.56615
63,1,1,0.3161,sub-AG05AS29,Marburg,MBSB,-298.175,96.1313,379.3785,125.2569,164.2936,0.5468,-0.66658
64,0,1,0.39327,sub-AG05AS29,Marburg,MBSB,-290.6106,216.631,1292.4537,245.1437,129.9065,1.302,2.7534
65,1,1,0.36958,sub-AG05AS29,Marburg,MBSB,711.926,350.36,1034.9868,786.4838,268.6083,-6.671,2.0491
66,0.33,1,0.32468,sub-AG05AS29,Marburg,MBSB,699.4609,989.4232,1157.0343,631.3416,-99.728,-6.5867,-12.9233
67,0.33,1,0.29977,sub-AG05AS29,Marburg,MBSB,-147.6886,953.2746,573.8133,822.8376,-338.3601,-8.1228,-12.8824
68,0.33,1,0.33399,sub-AG05AS29,Marburg,MBSB,-129.0236,-90.5863,567.6207,117.6474,-91.1765,-8.3502,-2.6077
69,1,1,0.28625,sub-AG05AS29,Marburg,MBSB,786.7969,-52.4304,610.9448,58.4581,243.0141,-1.2861,-3.3238
70,0.66,1,0.34548,sub-AG05AS29,Marburg,MBSB,811.1005,263.3161,732.4874,151.4402,325.8586,-1.5254,0.75117
71,1,1,0.36195,sub-AG05AS29,Marburg,MBSB,328.3961,310.9464,624.9702,706.5831,183.7133,3.9699,0.65855
72,1,1,0.35433,sub-AG05AS29,Marburg,MBSB,370.2167,531.0982,635.252,650.8216,266.5839,3.3999,-1.67
73,1,1,0.37853,sub-AG05AS29,Marburg,MBSB,1273.2582,579.1349,1504.1611,696.9011,210.5412,4.0363,-1.1655
74,1,1,0.3942,sub-AG05AS29,Marburg,MBSB,1372.5496,515.8698,1492.3724,-82.5626,281.5565,4.5903,-2.9694
75,0.33,1,0.32266,sub-AG05AS29,Marburg,MBSB,214.5469,546.6321,1338.0486,-152.7922,-280.985,0.91028,-3.2029
77,0.66,1,0.56136,sub-AG05AS29,Marburg,MBSB,254.5017,656.5166,377.2864,-130.2305,-419.1335,1.4425,-4.6337
78,1,1,0.28845,sub-AG05AS29,Marburg,MBSB,586.2476,647.152,331.0423,987.5409,-309.3692,-0.99928,-5.0276
81,0.33,1,0.52819,sub-AG05AS29,Marburg,MBSB,576.3878,777.8766,370.6141,823.1169,806.095,-0.60501,7.7011
82,0.66,1,0.31456,sub-AG05AS29,Marburg,MBSB,280.5808,851.2424,826.1019,924.7851,701.9669,2.0411,7.4715
83,1,1,0.31132,sub-AG05AS29,Marburg,MBSB,272.5416,388.1136,806.6429,175.7178,755.9185,1.2607,9.4413
84,1,1,0.3123,sub-AG05AS29,Marburg,MBSB,387.6177,522.9092,828.0372,261.4401,49.8654,-6.054,10.0652
85,0.33,1,0.428,sub-AG05AS29,Marburg,MBSB,493.4208,-13.0604,1013.6977,151.2521,12.1463,-8.5432,-6.0561
86,1,1,0.33296,sub-AG05AS29,Marburg,MBSB,930.4296,86.2779,974.5471,650.2792,102.3416,1.4658,-5.2265
87,0,1,0.51153,sub-AG05AS29,Marburg,MBSB,1022.2149,308.1502,1051.3397,588.6284,-770.1428,2.0001,-2.2543
88,0,1,0.35556,sub-AG05AS29,Marburg,MBSB,197.1245,285.7272,-201.7503,604.1523,-923.5033,-8.8407,-2.6611
89,1,1,0.29155,sub-AG05AS29,Marburg,MBSB,198.2298,133.3795,-307.8067,-99.7622,-779.772,-9.8789,-4.0439
90,1,1,0.39092,sub-AG05AS29,Marburg,MBSB,660.9929,48.1549,-179.1894,-142.5183,958.8428,2.4341,-4.0706
91,1,1,0.38053,sub-AG05AS29,Marburg,MBSB,676.671,204.9931,523.4243,-121.6965,819.989,2.8639,-6.2025
93,0.66,1,0.27327,sub-AG05AS29,Marburg,MBSB,-9.5524,220.2173,410.5868,579.3329,872.0186,-1.9844,-5.4883
94,0,1,0.35045,sub-AG05AS29,Marburg,MBSB,-60.5976,271.3983,416.9309,569.5438,562.4502,-2.0185,-5.6678
98,0.33,1,0.36712,sub-AG05AS29,Marburg,MBSB,746.2288,296.0967,-117.6395,522.8023,473.3766,3.4252,-6.1169
99,1,1,0.28608,sub-AG05AS29,Marburg,MBSB,766.0119,622.0029,-202.4585,869.2728,676.4006,5.0963,-1.2313
100,1,1,0.38105,sub-AG05AS29,Marburg,MBSB,267.104,708.3636,-58.2996,693.0692,474.2844,-12.0354,0.6726
101,0.66,1,0.27806,sub-AG05AS29,Marburg,MBSB,315.7369,365.5703,162.985,760.4128,492.7974,-11.9574,2.5155
102,0,1,0.31058,sub-AG05AS29,Marburg,MBSB,279.4337,363.4291,-27.7331,897.519,451.8614,-0.55421,2.1962
103,0.33,1,0.30462,sub-AG05AS29,Marburg,MBSB,321.4005,10.9232,-27.9683,785.2411,568.6905,-0.27121,-2.8217
104,1,1,0.30886,sub-AG05AS29,Marburg,MBSB,52.67,125.3561,672.106,950.9736,496.8575,-6.6904,-2.4679
105,0.66,1,0.36832,sub-AG05AS29,Marburg,MBSB,-1.9754,455.3543,613.6658,7.2817,644.9601,-7.6909,-0.19691
107,1,1,0.28877,sub-AG05AS29,Marburg,MBSB,494.4635,444.6876,568.5405,-8.4514,1270.7461,-6.7324,0.67046
108,1,1,0.31398,sub-AG05AS29,Marburg,MBSB,546.8156,-62.9884,-392.9629,39.1987,1202.8425,-7.5867,4.014
109,1,1,0.32887,sub-AG05AS29,Marburg,MBSB,441.2417,-20.2849,-494.9631,-279.938,1220.7262,-3.4271,2.5614
110,0.33,1,0.29802,sub-AG05AS29,Marburg,MBSB,467.9889,312.4664,-268.7351,-224.6945,-296.3004,-2.2506,3.98
111,0.33,1,0.30373,sub-AG05AS29,Marburg,MBSB,610.8771,313.4184,467.2193,-116.158,-321.161,1.5479,4.113
112,1,1,0.28132,sub-AG05AS29,Marburg,MBSB,655.3013,663.8253,396.5384,-522.699,-246.9165,2.1501,1.5237
113,0.66,1,0.26212,sub-AG05AS29,Marburg,MBSB,402.8721,740.4794,591.8774,-592.3566,379.4312,4.1993,1.2402
114,0,1,0.45545,sub-AG05AS29,Marburg,MBSB,474.7661,740.6053,514.2876,-514.3748,349.5032,4.8262,-2.8831
115,0,1,0.31606,sub-AG05AS29,Marburg,MBSB,421.4106,775.6806,482.2437,446.2287,365.1251,-5.4365,-2.7368
116,0.33,1,0.36752,sub-AG05AS29,Marburg,MBSB,391.5435,-570.7482,546.374,428.4891,567.6498,-5.9015,3.8115
117,0.33,1,0.32277,sub-AG05AS29,Marburg,MBSB,583.9365,-566.44,850.4246,388.7685,558.7866,5.9418,2.236
118,0,1,0.42555,sub-AG05AS29,Marburg,MBSB,640.3685,213.7761,733.7947,418.4888,572.5129,5.4308,-0.014221
119,1,1,0.36925,sub-AG05AS29,Marburg,MBSB,717.46,340.6423,900.4634,341.9238,15.8719,1.3615,0.42806
120,0,1,0.39249,sub-AG05AS29,Marburg,MBSB,719.7266,-106.4811,140.6038,466.0089,-117.7267,1.4484,1.9996
121,1,1,0.30857,sub-AG05AS29,Marburg,MBSB,1038.3903,-89.9367,100.3505,825.5992,28.5501,3.0738,3.6914
122,0.33,1,0.37091,sub-AG05AS29,Marburg,MBSB,1080.2034,-169.125,194.8742,647.2177,-369.8308,2.2594,4.5908
123,0.33,1,0.3124,sub-AG05AS29,Marburg,MBSB,529.6241,-148.6752,748.1036,880.2596,-501.5298,-5.7564,4.4134
124,0.33,1,0.31239,sub-AG05AS29,Marburg,MBSB,516.7714,496.2851,694.1779,484.862,-324.8657,-5.9372,-4.6296
125,1,1,0.4282,sub-AG05AS29,Marburg,MBSB,125.8159,536.8606,687.6973,427.0349,1394.8875,-2.3463,-3.3132
126,0.33,1,0.39716,sub-AG05AS29,Marburg,MBSB,122.5166,581.7772,-153.5608,455.9129,1275.7498,-4.3463,2.8459
127,0.66,1,0.33917,sub-AG05AS29,Marburg,MBSB,567.5599,581.8582,-70.188,498.0455,1374.6378,-1.8305,2.1023
128,1,1,0.2992,sub-AG05AS29,Marburg,MBSB,582.071,928.2265,-165.9614,495.4962,282.0432,-2.3367,3.4212
129,0.66,1,0.27879,sub-AG05AS29,Marburg,MBSB,573.9005,909.2401,588.3585,459.3354,89.5359,-3.1739,4.5957
130,1,1,0.40896,sub-AG05AS29,Marburg,MBSB,616.5057,468.4458,419.8014,698.277,272.4091,-2.5207,-1.6786
131,1,1,0.2852,sub-AG05AS29,Marburg,MBSB,691.2092,545.8316,595.6115,662.6261,-167.6295,1.5147,-1.0738
132,0,1,0.45728,sub-AG05AS29,Marburg,MBSB,707.2981,-153.4756,714.8635,642.5062,-82.1977,1.2824,-1.447
133,1,1,0.36483,sub-AG05AS29,Marburg,MBSB,-202.1462,-177.9371,565.7402,-37.6517,-179.5016,1.8215,-0.83478
134,1,1,0.41183,sub-AG05AS29,Marburg,MBSB,-139.2515,192.6863,726.9185,-30.4221,330.4272,2.4179,-3.0162
135,0,1,0.39878,sub-AG05AS29,Marburg,MBSB,869.3754,247.3292,132.7847,-52.7374,379.8284,-2.8107,-1.9731
136,1,1,0.2094,sub-AG05AS29,Marburg,MBSB,832.1004,397.5175,184.7897,764.7853,398.3503,-2.0073,-0.53429
137,0,1,0.38228,sub-AG05AS29,Marburg,MBSB,326.7101,399.533,179.8569,593.6628,-188.8918,0.46809,-0.63959
138,1,1,0.33807,sub-AG05AS29,Marburg,MBSB,365.5286,-104.4957,564.0695,726.5501,-112.3597,1.1383,5.7804
139,1,1,0.31754,sub-AG05AS29,Marburg,MBSB,316.6043,28.9713,577.9476,1504.9731,-158.0025,-3.3354,5.0528
141,1,1,0.38866,sub-AG05AS29,Marburg,MBSB,291.7534,111.0926,598.5958,1449.2808,1200.8453,-5.3142,-2.1239
142,0.66,1,0.36858,sub-AG05AS29,Marburg,MBSB,-73.5929,30.1873,229.8975,1467.6135,1101.6357,-8.9837,-2.9458
143,1,1,0.29158,sub-AG05AS29,Marburg,MBSB,-19.9972,117.2098,245.698,857.4044,1250.3207,-7.2786,-9.0642
144,0.33,1,0.37584,sub-AG05AS29,Marburg,MBSB,422.7186,122.3162,151.5394,954.5352,88.8654,-9.7356,-8.1482
145,0.33,1,0.33175,sub-AG05AS29,Marburg,MBSB,386.6397,-121.6611,715.4654,999.0992,20.3145,-10.113,0.9828
146,0,1,0.38872,sub-AG05AS29,Marburg,MBSB,366.5625,-72.1497,555.303,-374.5002,171.7882,1.3512,2.8782
147,0.66,1,0.40056,sub-AG05AS29,Marburg,MBSB,423.8758,339.9926,610.8353,-357.0916,921.8306,1.3007,-6.6191
148,0,1,0.40283,sub-AG05AS29,Marburg,MBSB,-598.5981,411.5098,452.3511,-380.2536,920.3732,-11.5542,-7.3765
149,0,1,0.36968,sub-AG05AS29,Marburg,MBSB,-514.5956,17.5937,353.0626,-672.4983,892.8546,-12.6561,-3.7097
150,0.66,1,0.29278,sub-AG05AS29,Marburg,MBSB,306.4268,77.3531,420.9217,-643.94,427.8463,-7.9784,-3.5572
151,1,1,0.32941,sub-AG05AS29,Marburg,MBSB,343.0757,-1076.4401,357.5656,-622.0019,379.1383,-7.5974,4.9374
152,1,1,0.31852,sub-AG05AS29,Marburg,MBSB,1294.3104,-1017.92,265.8025,216.4679,559.168,2.9162,5.1212
153,0.33,1,0.34302,sub-AG05AS29,Marburg,MBSB,1325.5817,291.6091,398.9675,103.1778,52.6243,2.8829,2.6453
154,0.33,1,0.32921,sub-AG05AS29,Marburg,MBSB,502.8801,300.2903,-162.5113,127.7438,18.9541,-1.2807,3.6218
155,1,1,0.29921,sub-AG05AS29,Marburg,MBSB,605.953,641.4553,-149.1994,464.828,11.1033,-1.5703,-2.5295
156,1,1,0.32921,sub-AG05AS29,Marburg,MBSB,338.7216,723.7,-157.7775,310.8973,926.8887,-8.0419,-2.6081
157,1,1,0.34169,sub-AG05AS29,Marburg,MBSB,349.257,408.1854,698.7506,580.6896,911.8431,-7.0534,-10.458
158,1,1,0.30657,sub-AG05AS29,Marburg,MBSB,-123.0521,415.6771,514.2215,852.9439,857.5236,-9.4879,-10.1453
159,0,1,0.4184,sub-AG05AS29,Marburg,MBSB,-176.933,317.3203,642.7549,834.958,827.5418,-9.2311,1.0118
160,1,1,0.35249,sub-AG05AS29,Marburg,MBSB,186.7927,346.2239,405.9301,848.4904,636.4171,-4.1224,1.158
161,0,1,0.39054,sub-AG05AS29,Marburg,MBSB,141.9749,820.9957,332.3043,34.5312,750.2504,-3.2308,-7.7207
162,1,1,0.37023,sub-AG05AS29,Marburg,MBSB,744.2849,795.1226,444.8185,-50.111,-269.4985,11.6578,-6.8796
164,1,1,0.31592,sub-AG05AS29,Marburg,MBSB,779.0041,-332.0015,957.3097,121.3362,-300.1847,9.7331,-10.3378
166,1,1,0.44965,sub-AG05AS29,Marburg,MBSB,10.534,-283.4676,923.9719,499.8321,-224.7428,-2.8018,-8.4678
167,0.66,1,0.27834,sub-AG05AS29,Marburg,MBSB,25.8788,261.4486,948.6875,385.4252,161.1166,-2.4685,-0.20107
169,0.66,1,0.41422,sub-AG05AS29,Marburg,MBSB,654.4971,264.7185,337.9277,544.8113,151.8835,3.0977,-0.51936
170,1,1,0.29536,sub-AG05AS29,Marburg,MBSB,646.8277,621.2251,277.0141,-169.2197,223.5484,1.5394,-8.6156
171,0.33,1,0.36583,sub-AG05AS29,Marburg,MBSB,663.0103,648.3054,402.7168,-279.7647,-119.2442,-6.7532,-8.0439
172,0.66,1,0.27217,sub-AG05AS29,Marburg,MBSB,689.0679,-131.2565,133.0814,-186.2714,-132.7824,-6.9676,1.0909
173,0.66,1,0.31807,sub-AG05AS29,Marburg,MBSB,133.4743,-47.8295,103.6062,1271.5131,-77.007,-1.4653,1.8689
174,1,1,0.45037,sub-AG05AS29,Marburg,MBSB,100.4649,1.8205,183.6719,1206.0334,129.6852,-2.4318,-5.1301
175,0.66,1,0.29741,sub-AG05AS29,Marburg,MBSB,936.4279,83.0645,914.1766,1397.7081,99.0623,-2.5405,-5.336
176,0.33,1,0.2855,sub-AG05AS29,Marburg,MBSB,939.1602,1175.1879,869.5247,342.6032,195.8371,-2.815,-9.9419
177,1,1,0.37944,sub-AG05AS29,Marburg,MBSB,-682.7278,1196.4919,938.658,290.1895,903.4185,-6.6521,-10.1523
178,1,1,0.27851,sub-AG05AS29,Marburg,MBSB,-630.6078,-81.4177,751.9685,402.5047,896.6539,-6.6588,-7.4511
179,1,1,0.27832,sub-AG05AS29,Marburg,MBSB,-576.9976,-13.9367,749.3594,-581.8752,859.1767,-3.3729,-7.6065
180,1,1,0.26633,sub-AG05AS29,Marburg,MBSB,-574.5438,79.2973,705.7394,-616.9517,842.802,-3.3711,3.158
181,1,1,0.33886,sub-AG05AS29,Marburg,MBSB,844.2819,66.8875,1295.892,-488.0127,1010.2021,-7.682,2.8585
182,1,1,0.29422,sub-AG05AS29,Marburg,MBSB,850.9838,760.9363,1193.6573,-268.2305,878.4592,-5.9402,-8.2535
183,1,1,0.30057,sub-AG05AS29,Marburg,MBSB,634.2354,796.076,1254.3623,-391.5093,870.2729,-0.54588,-8.5377
184,1,1,0.25464,sub-AG05AS29,Marburg,MBSB,611.8295,98.3194,708.314,-332.1358,875.7271,-0.328,11.1306
185,1,1,0.31761,sub-AG05AS29,Marburg,MBSB,154.7547,78.3332,720.4078,274.6313,780.3591,-4.191,12.0782
186,0.33,1,0.3167,sub-AG05AS29,Marburg,MBSB,175.2002,1002.5479,694.0104,179.8324,820.9265,-4.3311,-7.4133
187,0,1,0.33582,sub-AG05AS29,Marburg,MBSB,-658.0844,1113.4082,389.427,115.4505,724.1256,-16.0213,-6.1326
188,1,1,0.29523,sub-AG05AS29,Marburg,MBSB,-732.007,247.1875,375.4371,-293.7772,781.1796,-17.6537,-6.5961
190,1,1,0.27805,sub-AG05AS29,Marburg,MBSB,973.2936,287.213,269.7666,-201.4166,867.1071,3.4993,-8.7441
192,1,1,0.33483,sub-AG05AS29,Marburg,MBSB,1048.9648,886.6016,393.9438,-224.3844,856.7726,3.0956,-11.9277
193,1,1,0.30843,sub-AG05AS29,Marburg,MBSB,597.1711,803.9415,197.5244,425.0468,925.064,5.9806,-9.9457
194,1,1,0.27817,sub-AG05AS29,Marburg,MBSB,601.4617,217.0305,378.4632,435.5194,300.95,5.0569,-6.0698
195,1,1,0.23184,sub-AG05AS29,Marburg,MBSB,-629.1777,258.9068,549.3117,444.2159,355.9157,-8.1274,-4.3985
196,0,1,0.3903,sub-AG05AS29,Marburg,MBSB,-674.6659,230.8877,518.0695,1128.4819,355.4546,-7.3094,-5.3708
197,0,1,0.34786,sub-AG05AS29,Marburg,MBSB,173.9017,225.6689,552.7431,921.6578,-1205.0798,-9.6695,-5.1482
198,1,1,0.25864,sub-AG05AS29,Marburg,MBSB,156.359,687.8519,837.517,1030.7092,-1168.567,-9.095,2.4901
199,1,1,0.28146,sub-AG05AS29,Marburg,MBSB,416.1859,667.4987,904.8686,691.2525,-1195.9489,3.22,2.8782
200,0.66,1,0.31188,sub-AG05AS29,Marburg,MBSB,387.2922,499.5767,825.4871,688.5267,899.1215,3.3681,-5.1982
201,0,1,0.35205,sub-AG05AS29,Marburg,MBSB,812.8196,527.9648,-307.8278,739.8618,786.0106,-1.4158,-4.7549
202,0.66,1,0.33417,sub-AG05AS29,Marburg,MBSB,850.0987,28.1184,-336.8269,33.9447,861.7776,-1.6486,1.5019
203,1,1,0.24755,sub-AG05AS29,Marburg,MBSB,101.4295,92.9667,-329.7847,-7.0976,-667.0341,-6.9628,1.9459
205,1,1,0.28805,sub-AG05AS29,Marburg,MBSB,207.3171,761.4971,776.5658,65.4125,-698.4357,-5.604,-2.2329
206,0,1,0.34744,sub-AG05AS29,Marburg,MBSB,94.1906,856.9412,867.9172,252.7257,-640.9871,6.4113,-2.048
207,0.33,1,0.3116,sub-AG05AS29,Marburg,MBSB,105.3997,124.9352,889.8632,195.3165,207.6667,7.961,-6.1125
208,0.66,1,0.33906,sub-AG05AS29,Marburg,MBSB,-241.8197,88.038,19.635,280.8789,186.8456,-2.3428,-4.804
209,0.66,1,0.29844,sub-AG05AS29,Marburg,MBSB,-243.2694,297.1702,12.7168,-55.9719,261.2759,-1.855,4.1772
210,1,1,0.27039,sub-AG05AS29,Marburg,MBSB,370.4372,349.7287,75.9698,-119.8312,184.5965,0.84128,5.9285
212,0.33,1,0.31423,sub-AG05AS29,Marburg,MBSB,390.9017,1091.1924,98.8377,-5.2617,134.396,0.59543,-1.5268
213,1,1,0.35139,sub-AG05AS29,Marburg,MBSB,-55.0772,1058.3468,54.9963,397.026,326.7904,3.5604,-2.0431
214,1,1,0.30069,sub-AG05AS29,Marburg,MBSB,5.6848,699.365,111.0506,346.8187,181.9119,3.931,-6.9588
215,1,1,0.25698,sub-AG05AS29,Marburg,MBSB,681.3162,655.2015,-131.6989,407.1122,172.4623,-2.3748,-6.0121
216,0,1,0.50753,sub-AG05AS29,Marburg,MBSB,694.2755,448.1996,-236.4368,602.3861,148.5902,-1.7007,-5.9634
217,1,1,0.52268,sub-AG05AS29,Marburg,MBSB,845.7914,397.9173,-99.4427,752.5874,493.326,-2.1506,-5.2945
218,1,1,0.32947,sub-AG05AS29,Marburg,MBSB,853.4328,851.7828,505.1518,576.7966,546.6492,-1.9891,0.62595
219,1,1,0.28116,sub-AG05AS29,Marburg,MBSB,314.7854,779.3701,472.8203,555.5549,377.2437,3.2838,0.90484
221,0.33,1,0.47191,sub-AG05AS29,Marburg,MBSB,346.441,1065.4285,470.9051,394.2288,-253.7853,2.0089,-1.4001
223,1,1,0.25537,sub-AG05AS29,Marburg,MBSB,631.1207,1072.6252,266.2583,534.5714,-328.2625,7.461,-0.84462
225,1,1,0.30186,sub-AG05AS29,Marburg,MBSB,654.5091,685.9717,310.8286,559.4511,-295.7267,7.1696,-3.4077
226,1,1,0.34026,sub-AG05AS29,Marburg,MBSB,578.2546,724.0146,380.8185,359.4136,-696.7289,-6.964,-3.3227
227,0.33,1,0.23991,sub-AG05AS29,Marburg,MBSB,656.1711,-715.6777,-648.3743,614.7074,-674.5075,-7.0955,0.285
228,0.66,1,0.27502,sub-AG05AS29,Marburg,MBSB,589.5424,-725.2113,-723.8284,450.2242,-737.1118,17.9718,-0.15451
229,1,1,0.29959,sub-AG05AS29,Marburg,MBSB,562.5533,532.5858,-572.1437,369.8441,517.6305,18.1557,-4.8024
231,1,1,0.24562,sub-AG05AS29,Marburg,MBSB,-138.6557,575.3981,183.2216,439.1776,523.3468,-3.6111,-4.8284
233,1,1,0.22911,sub-AG05AS29,Marburg,MBSB,-140.296,-383.821,166.5444,256.2477,515.682,-4.5644,-3.9372
234,1,1,0.23029,sub-AG05AS29,Marburg,MBSB,-220.2056,-359.5304,195.8314,127.4003,417.4073,-2.0043,-4.3607
235,1,1,0.1546,sub-AG05AS29,Marburg,MBSB,-175.008,115.9281,1015.1857,331.9167,419.0395,-2.5821,-3.3161
236,1,1,0.31502,sub-AG05AS29,Marburg,MBSB,542.0806,157.9769,1018.4357,633.0343,343.5162,-1.0569,-3.2036
237,1,1,0.26567,sub-AG05AS29,Marburg,MBSB,590.5345,262.9562,1055.6489,699.8363,599.9974,-1.4693,-2.2772
238,1,1,0.36403,sub-AG05AS29,Marburg,MBSB,421.6253,349.8718,203.825,645.5369,634.2701,-3.3074,-1.3453
240,1,1,0.4379,sub-AG05AS29,Marburg,MBSB,402.9289,275.5733,90.6922,911.2781,768.6078,-3.9425,1.612
242,1,1,0.38878,sub-AG05AS29,Marburg,MBSB,538.2976,333.6222,227.1949,982.4057,-50.9626,-11.545,1.1246
243,0.33,1,0.33229,sub-AG05AS29,Marburg,MBSB,548.6119,646.4714,927.4387,885.5294,-92.112,-12.3658,-5.8253
244,0.66,1,0.29392,sub-AG05AS29,Marburg,MBSB,51.2254,573.0408,775.8719,41.09,-151.5643,-4.3039,-6.0144
245,0,1,0.41363,sub-AG05AS29,Marburg,MBSB,98.9028,-0.5767,756.6977,-165.8253,3.4656,-4.4562,-2.9446
246,0.33,1,0.26129,sub-AG05AS29,Marburg,MBSB,680.8311,51.4904,-226.4086,125.1348,-104.5697,2.0869,-3.4103
247,0.33,1,0.2918,sub-AG05AS29,Marburg,MBSB,668.1651,-459.8718,-126.858,489.5085,55.3843,1.5074,-7.8279
248,1,1,0.33458,sub-AG05AS29,Marburg,MBSB,-47.7465,-528.7775,-242.1017,308.5976,1322.2512,-3.2076,-7.5101
249,0.33,1,0.33689,sub-AG05AS29,Marburg,MBSB,-91.5155,210.3147,321.1903,496.1334,1326.7596,-4.0881,-10.2312
250,0.33,1,0.33365,sub-AG05AS29,Marburg,MBSB,210.251,194.7466,295.6049,1252.129,1368.5668,-4.5897,-8.984
252,0.66,1,0.20762,sub-AG05AS29,Marburg,MBSB,165.5759,403.2377,173.398,1201.4316,860.9841,-5.7441,8.7431
254,1,1,0.25714,sub-AG05AS29,Marburg,MBSB,364.0406,354.1038,-157.4236,1258.8678,830.3116,-11.3715,9.97
255,0.66,1,0.30886,sub-AG05AS29,Marburg,MBSB,362.843,684.9133,-213.068,-78.2263,861.6097,-10.623,4.7722
256,1,1,0.32549,sub-AG05AS29,Marburg,MBSB,737.8343,759.6823,-128.3336,-144.3475,-373.6311,-3.7156,5.4273
257,1,1,0.27262,sub-AG05AS29,Marburg,MBSB,700.0674,-123.3351,182.2464,17.068,-514.9263,-3.3825,-1.6364
258,1,1,0.29927,sub-AG05AS29,Marburg,MBSB,681.0049,-167.2166,100.7639,647.5718,-356.3114,5.0387,-1.7649
259,1,1,0.29598,sub-AG05AS29,Marburg,MBSB,705.5459,614.1655,153.5312,626.4977,635.1594,3.8078,-2.9053
260,1,1,0.35973,sub-AG05AS29,Marburg,MBSB,1149.786,672.4451,424.3925,686.7643,539.9836,6.6986,-3.9519
261,1,1,0.32706,sub-AG05AS29,Marburg,MBSB,1206.3248,1192.8499,357.8076,524.9761,647.6313,5.6055,-6.2887
262,0,1,0.23709,sub-AG05AS29,Marburg,MBSB,-116.1754,1252.045,382.3947,427.2228,1020.992,-3.5347,-5.9881
263,1,1,0.38929,sub-AG05AS29,Marburg,MBSB,-105.7847,1088.3942,345.9695,542.0353,896.1235,-3.5585,-4.2442
264,1,1,0.2896,sub-AG05AS29,Marburg,MBSB,-19.9151,1073.2915,215.487,213.2538,996.0896,-10.8588,-3.6943
265,0.33,1,0.32139,sub-AG05AS29,Marburg,MBSB,9.1214,-6.5677,309.8322,222.0822,468.2313,-10.8626,2.9842
266,1,1,0.30535,sub-AG05AS29,Marburg,MBSB,-284.8185,27.3916,-167.6746,323.8905,549.4458,-6.7905,1.7106
267,0.33,1,0.35393,sub-AG05AS29,Marburg,MBSB,-229.0496,343.0981,-135.7737,467.8515,501.649,-8.4491,4.1162
269,0.33,1,0.29692,sub-AG05AS29,Marburg,MBSB,338.9468,388.201,-134.6835,440.3726,518.5077,-8.2953,4.4194
270,1,1,0.33285,sub-AG05AS29,Marburg,MBSB,337.3595,990.6127,1248.1991,495.6923,423.4416,-8.3614,-1.1614
272,1,1,0.30923,sub-AG05AS29,Marburg,MBSB,308.4236,1074.3708,1258.7084,969.9096,603.2191,-9.7896,-1.8143
273,1,1,0.28491,sub-AG05AS29,Marburg,MBSB,385.183,806.6856,1260.505,932.2914,48.8956,-11.0826,-3.6494
274,0.66,1,0.32153,sub-AG05AS29,Marburg,MBSB,496.9703,827.2366,-431.9935,938.949,-97.6717,-6.4221,-3.6306
275,1,1,0.34412,sub-AG05AS29,Marburg,MBSB,558.2609,523.03,-639.8109,631.1168,-16.3827,-7.4999,1.2273
277,1,1,0.34073,sub-AG05AS29,Marburg,MBSB,613.0676,629.5503,-457.1466,407.0623,1247.6542,-3.4376,2.7367
278,0.66,1,0.36181,sub-AG05AS29,Marburg,MBSB,631.4402,42.4603,-364.5093,620.101,1143.0204,-3.4804,2.8019
279,1,1,0.31833,sub-AG05AS29,Marburg,MBSB,662.243,77.3223,-394.4058,495.0038,1288.7496,-1.8885,3.8079
281,1,1,0.2888,sub-AG05AS29,Marburg,MBSB,633.3088,879.9512,-353.4277,218.5502,833.9894,-0.75128,3.9289
282,1,1,0.31279,sub-AG05AS29,Marburg,MBSB,332.2919,983.7451,898.2584,489.2056,769.9855,-6.2187,3.8173
283,0.66,1,0.3187,sub-AG05AS29,Marburg,MBSB,389.5473,645.4103,781.5637,-201.839,860.2681,-4.7246,-4.3064
284,0.66,1,0.31169,sub-AG05AS29,Marburg,MBSB,26.1877,705.4393,840.9958,-241.2927,211.5199,-2.5727,-6.1145
285,0.66,1,0.3222,sub-AG05AS29,Marburg,MBSB,41.5066,394.1129,378.7054,-193.9695,242.5995,-1.1137,-1.7378
286,1,1,0.2719,sub-AG05AS29,Marburg,MBSB,511.5414,348.0018,442.4184,39.7519,226.9114,-6.8062,-1.1102
7,0.33,1,0.31014,sub-AH07IF27,Wrzburg,WBDM,395.0092,22.6675,355.707,50.8602,-16.9832,-4.1634,-3.2394
17,1,1,0.44777,sub-AH07IF27,Wrzburg,WBDM,391.3503,61.4193,336.7115,72.8032,6.1878,-4.0024,-2.944
18,1,1,0.46537,sub-AH07IF27,Wrzburg,WBDM,172.4231,58.3793,367.9389,72.1556,-9.508,1.7066,2.0284
19,0.66,1,0.41266,sub-AH07IF27,Wrzburg,WBDM,188.5254,49.7433,218.0653,-12.0342,225.0948,-1.2126,0.24045
20,1,1,0.31082,sub-AH07IF27,Wrzburg,WBDM,108.6004,534.1561,164.3725,-31.5179,190.5841,4.5831,-5.0883
25,1,1,0.29824,sub-AH07IF27,Wrzburg,WBDM,84.4382,482.3478,221.7447,5.6131,215.9154,2.214,-6.6089
29,0.66,1,0.35734,sub-AH07IF27,Wrzburg,WBDM,34.5012,400.6673,-120.9291,209.2546,-345.9365,-1.3835,2.2998
41,1,1,0.26664,sub-AH07IF27,Wrzburg,WBDM,74.3197,423.6827,-86.7947,148.7908,-230.1349,-1.8694,2.8245
42,0,1,0.32058,sub-AH07IF27,Wrzburg,WBDM,439.2116,231.2193,-76.8075,172.9599,-279.7265,-0.011054,-5.0162
48,0,1,0.4484,sub-AH07IF27,Wrzburg,WBDM,463.4912,306.2624,179.8803,256.9421,188.7402,-0.045247,-5.2876
51,0.33,1,0.40451,sub-AH07IF27,Wrzburg,WBDM,136.013,-90.4842,131.959,178.515,168.2112,-2.2397,-3.7298
52,0.33,1,0.29801,sub-AH07IF27,Wrzburg,WBDM,133.0672,-40.5907,169.5803,262.1884,200.7904,-1.3886,-3.3609
54,1,1,0.3368,sub-AH07IF27,Wrzburg,WBDM,97.5988,160.3089,409.8813,428.8041,443.9425,5.7408,-5.4003
55,1,1,0.27528,sub-AH07IF27,Wrzburg,WBDM,122.0845,143.7605,320.1226,365.2906,430.2952,8.0518,-4.6569
56,0.33,1,0.29628,sub-AH07IF27,Wrzburg,WBDM,-143.3596,181.2105,389.2563,410.2436,492.4014,-6.1653,-12.3817
57,0,1,0.4212,sub-AH07IF27,Wrzburg,WBDM,-99.2003,151.9267,97.1837,413.5299,228.7083,-6.9078,-9.9428
58,0,1,0.33139,sub-AH07IF27,Wrzburg,WBDM,273.8285,204.3726,119.011,390.312,269.9961,0.3134,4.2727
59,1,1,0.30866,sub-AH07IF27,Wrzburg,WBDM,300.652,208.0114,156.2036,375.6962,309.4364,2.6351,3.0958
62,1,1,0.30138,sub-AH07IF27,Wrzburg,WBDM,1.4036,120.7092,192.8434,532.8853,105.97,-2.9762,1.8595
69,1,1,0.29013,sub-AH07IF27,Wrzburg,WBDM,34.363,100.2654,123.843,516.7611,145.6173,-0.59176,2.0617
70,0.33,1,0.36061,sub-AH07IF27,Wrzburg,WBDM,245.7142,172.5414,196.663,502.3875,114.1557,4.661,-1.3468
71,0.33,1,0.16101,sub-AH07IF27,Wrzburg,WBDM,228.3683,181.7533,-100.5392,80.7807,166.4758,2.2437,-1.1648
72,0.33,1,0.42001,sub-AH07IF27,Wrzburg,WBDM,313.8594,145.9372,-154.7496,28.6508,75.3197,-3.0348,4.8991
73,0.66,1,0.42024,sub-AH07IF27,Wrzburg,WBDM,262.8639,175.6474,-76.6963,146.4679,168.9742,-3.856,3.5213
75,1,1,0.29681,sub-AH07IF27,Wrzburg,WBDM,22.836,236.9553,176.1723,20.5766,-83.9675,1.2327,6.1881
76,1,1,0.36475,sub-AH07IF27,Wrzburg,WBDM,30.301,283.2066,170.2245,-2.2394,-112.4663,-1.3036,3.3307
77,1,1,0.29726,sub-AH07IF27,Wrzburg,WBDM,246.3811,211.156,214.3689,49.424,-36.8505,-5.1121,0.25137
78,1,1,0.34055,sub-AH07IF27,Wrzburg,WBDM,257.8899,173.4039,57.2671,327.0938,87.8836,-4.6969,-0.85049
81,1,1,0.34103,sub-AH07IF27,Wrzburg,WBDM,114.5076,41.4933,22.0767,259.2001,141.1743,5.8667,3.4474
83,0.66,1,0.2853,sub-AH07IF27,Wrzburg,WBDM,168.576,63.9405,80.5969,370.0509,172.4128,5.721,3.244
84,1,1,0.35416,sub-AH07IF27,Wrzburg,WBDM,234.9142,-248.8118,342.1917,329.9279,176.9419,2.7832,-2.5659
85,1,1,0.27432,sub-AH07IF27,Wrzburg,WBDM,255.8082,-218.4315,352.5025,299.2574,96.2039,1.675,-0.85539
86,1,1,0.32381,sub-AH07IF27,Wrzburg,WBDM,255.1488,106.2451,352.8059,296.9406,153.7997,-4.7004,1.6533
87,1,1,0.27966,sub-AH07IF27,Wrzburg,WBDM,274.6556,88.6846,267.5556,289.7812,-15.8739,-5.8945,1.8185
91,0.33,1,0.29045,sub-AH07IF27,Wrzburg,WBDM,186.1945,127.6605,315.7735,242.9615,-48.608,4.0416,-1.885
94,0,1,0.41656,sub-AH07IF27,Wrzburg,WBDM,155.9641,112.9617,282.7715,299.6227,27.105,5.1015,-0.63068
103,1,1,0.3881,sub-AH07IF27,Wrzburg,WBDM,4.0835,85.8058,128.0875,139.6957,471.1729,-0.50941,-7.8053
104,1,1,0.31587,sub-AH07IF27,Wrzburg,WBDM,47.3742,66.1111,85.9747,97.1539,467.6868,2.0867,-8.9397
106,0.66,1,0.34695,sub-AH07IF27,Wrzburg,WBDM,252.6875,210.2388,128.8222,159.4873,493.831,-7.2312,-0.28955
107,0.33,1,0.31643,sub-AH07IF27,Wrzburg,WBDM,241.1304,203.5529,272.5129,-55.4355,118.5422,-5.4016,-1.0707
108,1,1,0.3163,sub-AH07IF27,Wrzburg,WBDM,-24.4746,-101.0792,281.9364,-148.3472,120.3832,0.33216,0.59464
109,0.66,1,0.33317,sub-AH07IF27,Wrzburg,WBDM,-16.3915,-120.5745,284.3844,26.5789,185.9439,-1.7343,1.3578
110,1,1,0.28586,sub-AH07IF27,Wrzburg,WBDM,214.3545,207.5305,22.3936,188.9567,191.3553,-2.1632,-12.913
111,1,1,0.35113,sub-AH07IF27,Wrzburg,WBDM,233.1514,229.9913,-63.7989,147.8405,249.1152,-2.6995,-13.9678
112,1,1,0.26728,sub-AH07IF27,Wrzburg,WBDM,152.4187,325.9475,53.4306,209.3712,264.8069,-5.3458,-9.2459
113,1,1,0.28579,sub-AH07IF27,Wrzburg,WBDM,183.7683,288.2232,328.4266,429.3853,-27.6254,-6.6108,-5.3053
116,1,1,0.2588,sub-AH07IF27,Wrzburg,WBDM,42.6988,337.3624,295.8161,451.0638,-61.5613,-4.174,-2.5589
117,1,1,0.36368,sub-AH07IF27,Wrzburg,WBDM,40.8958,324.1739,336.9933,410.7204,-63.9875,-4.6314,-2.2054
118,1,1,0.2577,sub-AH07IF27,Wrzburg,WBDM,-157.5489,122.1645,364.5275,317.6129,246.5418,1.0145,-1.642
119,0,1,0.35853,sub-AH07IF27,Wrzburg,WBDM,-119.2613,93.4278,324.4643,349.5387,134.0816,1.6259,-0.81084
120,1,1,0.35672,sub-AH07IF27,Wrzburg,WBDM,-93.5632,38.9269,397.4337,320.9465,165.6062,2.2649,12.803
121,0,1,0.38185,sub-AH07IF27,Wrzburg,WBDM,-67.489,95.0548,81.2392,-27.4333,267.4533,2.1203,12.0662
122,0,1,0.58064,sub-AH07IF27,Wrzburg,WBDM,284.4225,-106.6474,82.1093,-50.8661,251.6365,-12.5788,-5.4239
123,0.66,1,0.32338,sub-AH07IF27,Wrzburg,WBDM,316.6616,-98.7867,105.7595,-38.2418,261.4653,-11.7403,-3.4569
124,1,1,0.18761,sub-AH07IF27,Wrzburg,WBDM,218.9285,136.0424,123.1342,230.0375,431.2088,2.4194,-3.2284
127,1,1,0.22504,sub-AH07IF27,Wrzburg,WBDM,199.0666,119.3002,84.6697,108.2742,404.2606,1.9943,-1.2746
128,1,1,0.31035,sub-AH07IF27,Wrzburg,WBDM,21.6137,139.7955,121.5945,227.505,486.0249,1.0345,-8.2693
129,1,1,0.28323,sub-AH07IF27,Wrzburg,WBDM,67.6044,180.9061,274.4472,145.0888,230.7635,-0.40387,-10.297
130,0.33,1,0.25717,sub-AH07IF27,Wrzburg,WBDM,-73.7481,182.3833,291.2475,176.4333,252.9168,-7.0812,-3.7307
140,0.66,1,0.27914,sub-AH07IF27,Wrzburg,WBDM,-56.9108,207.5942,269.2006,178.8851,248.5021,-7.1357,-3.5748
141,1,1,0.25404,sub-AH07IF27,Wrzburg,WBDM,-414.3351,370.3324,103.859,538.6868,-102.4073,-1.0459,-0.60725
142,0.66,1,0.32367,sub-AH07IF27,Wrzburg,WBDM,-375.9822,334.8633,91.6485,609.0349,-90.7104,-2.9775,1.7963
145,1,1,0.29444,sub-AH07IF27,Wrzburg,WBDM,234.293,81.7081,111.0404,560.9995,-49.6767,-1.6162,0.83618
146,1,1,0.35124,sub-AH07IF27,Wrzburg,WBDM,227.9183,106.7519,306.9417,545.7969,78.3701,-2.1959,2.8278
149,0.66,1,0.26222,sub-AH07IF27,Wrzburg,WBDM,226.0327,304.1341,239.7981,523.0896,70.6635,0.8664,2.5693
150,1,1,0.28042,sub-AH07IF27,Wrzburg,WBDM,221.6638,282.333,309.5047,568.1646,80.1754,0.20451,0.63288
162,1,1,0.16861,sub-AH07IF27,Wrzburg,WBDM,264.6141,-46.1333,457.2707,345.3774,243.078,-4.3035,-1.6989
163,0.66,1,0.32096,sub-AH07IF27,Wrzburg,WBDM,239.2236,-58.8588,343.6516,297.3031,256.602,-4.5703,-1.9483
166,0.66,1,0.40137,sub-AH07IF27,Wrzburg,WBDM,189.7355,11.9722,405.4435,391.5614,244.684,0.76323,4.5914
167,0.33,1,0.31979,sub-AH07IF27,Wrzburg,WBDM,219.1995,29.7994,38.4236,120.0947,154.8734,-0.58576,5.2572
168,1,1,0.27865,sub-AH07IF27,Wrzburg,WBDM,41.6626,146.4961,80.1973,53.2271,103.4414,-2.449,0.60253
169,0.33,1,0.34497,sub-AH07IF27,Wrzburg,WBDM,59.521,153.5419,58.8827,77.7274,125.2094,-0.28945,0.017632
170,1,1,0.43133,sub-AH07IF27,Wrzburg,WBDM,35.2351,271.9396,85.5901,135.5724,86.1016,0.66564,-7.2075
171,1,1,0.68224,sub-AH07IF27,Wrzburg,WBDM,-27.2696,323.9174,17.0176,171.4123,86.4354,0.37442,-8.6386
182,1,1,0.12045,sub-AH07IF27,Wrzburg,WBDM,2.5837,226.9458,73.887,145.4388,50.5559,9.6882,1.3178
205,1,1,0.26022,sub-AH07IF27,Wrzburg,WBDM,-35.3984,221.6583,24.899,234.4011,216.0652,9.1823,-1.7726
207,1,1,0.36668,sub-AH07IF27,Wrzburg,WBDM,92.5083,-125.4449,-29.8061,327.699,233.0291,2.8427,4.7969
214,1,1,0.11799,sub-AH07IF27,Wrzburg,WBDM,111.7527,-104.1613,-0.63992,214.9514,268.5999,3.854,4.2393
216,1,1,0.15998,sub-AH07IF27,Wrzburg,WBDM,101.2307,94.0083,312.1312,167.0434,-172.3251,6.42,-6.9444
219,0.66,1,0.27209,sub-AH07IF27,Wrzburg,WBDM,138.3826,66.5795,277.4251,135.1096,-201.7927,5.9469,-5.9756
220,1,1,0.35338,sub-AH07IF27,Wrzburg,WBDM,256.4302,66.2658,339.7916,245.4031,-124.2331,0.25796,-0.93683
222,1,1,0.30612,sub-AH07IF27,Wrzburg,WBDM,287.8367,35.9392,301.2691,153.001,-88.9358,2.5765,1.4214
226,1,1,0.28761,sub-AH07IF27,Wrzburg,WBDM,341.0826,151.902,340.037,127.9097,-119.4735,4.1497,-0.45901
227,1,1,0.19384,sub-AH07IF27,Wrzburg,WBDM,320.8111,145.785,348.9283,181.32,-53.3394,3.552,-0.11543
230,0,1,0.31225,sub-AH07IF27,Wrzburg,WBDM,500.6229,58.4943,195.3758,106.3724,-47.0628,-5.2272,3.0964
234,0,1,0.30804,sub-AH07IF27,Wrzburg,WBDM,485.086,64.329,156.5763,115.3369,-46.5796,-3.1409,2.471
236,1,1,0.24665,sub-AH07IF27,Wrzburg,WBDM,118.8283,252.0603,210.7467,114.5254,-48.9,-2.296,-5.9407
244,0.66,1,0.25404,sub-AH07IF27,Wrzburg,WBDM,116.899,259.8374,-32.314,125.5448,184.45,-1.1484,-5.0639
245,0.33,1,0.26365,sub-AH07IF27,Wrzburg,WBDM,-98.0113,-103.764,-10.8232,122.6878,179.4366,3.6216,-4.2585
247,0,1,0.22375,sub-AH07IF27,Wrzburg,WBDM,-126.877,-87.5405,10.4794,140.8589,177.0742,3.3286,-6.3102
249,1,1,0.30098,sub-AH07IF27,Wrzburg,WBDM,251.1576,-79.1464,-276.6092,157.1243,363.5844,-4.5668,-3.8825
250,0,1,0.37045,sub-AH07IF27,Wrzburg,WBDM,271.7436,-46.6133,-291.7138,125.2942,332.0494,-5.1222,-2.4639
251,0.33,1,0.31752,sub-AH07IF27,Wrzburg,WBDM,212.647,-34.9007,-213.0795,207.7484,337.8722,-3.0429,-6.8669
252,0.33,1,0.28101,sub-AH07IF27,Wrzburg,WBDM,193.6647,-52.9327,288.7798,230.9601,283.6102,-2.2948,-6.9226
253,1,1,0.27462,sub-AH07IF27,Wrzburg,WBDM,85.0443,117.8736,302.9093,256.3911,265.8994,-0.71258,3.1296
254,0.66,1,0.30584,sub-AH07IF27,Wrzburg,WBDM,108.4017,90.5289,286.7039,242.0522,300.1155,0.2567,4.0366
255,1,1,0.3084,sub-AH07IF27,Wrzburg,WBDM,152.6717,226.6677,334.8598,-57.7265,152.9439,-4.6273,-11.0608
256,0.33,1,0.24221,sub-AH07IF27,Wrzburg,WBDM,187.6863,211.2711,354.1795,-108.4311,152.5195,-5.6836,-9.8719
257,0.66,1,0.29346,sub-AH07IF27,Wrzburg,WBDM,-45.0121,172.8484,313.8985,-17.3012,159.498,6.2228,-2.2898
259,0.66,1,0.28901,sub-AH07IF27,Wrzburg,WBDM,-17.2133,166.4323,245.7721,-139.1048,124.2754,5.782,-1.8038
260,1,1,0.32065,sub-AH07IF27,Wrzburg,WBDM,76.8806,186.2057,257.6635,-172.607,90.1665,3.9211,6.2646
261,1,1,0.28026,sub-AH07IF27,Wrzburg,WBDM,92.7728,190.6622,246.5076,-127.6468,144.3668,3.408,6.7288
262,1,1,0.1111,sub-AH07IF27,Wrzburg,WBDM,273.2927,221.8604,20.6457,63.6849,-228.0408,11.8222,0.76521
263,1,1,0.2885,sub-AH07IF27,Wrzburg,WBDM,227.9764,253.2125,-12.0356,80.0409,-228.9076,13.2287,0.75856
264,1,1,0.23114,sub-AH07IF27,Wrzburg,WBDM,126.588,-232.8661,30.0519,85.9526,-139.3475,-6.524,2.0088
265,1,1,0.22177,sub-AH07IF27,Wrzburg,WBDM,121.4398,-171.6253,337.8782,205.0324,177.3131,-8.3337,4.9725
267,0.33,1,0.20332,sub-AH07IF27,Wrzburg,WBDM,-70.7239,21.2087,299.2966,221.2023,173.5054,-7.9179,-4.7995
268,1,1,0.37601,sub-AH07IF27,Wrzburg,WBDM,-65.1268,29.034,323.87,206.3182,204.8137,-8.768,-4.3026
291,1,1,0.33977,sub-AHSAER12,Hamburg_Wacker,HWJM,504.7113,174.6982,595.3973,471.8783,83.7594,-5.7502,-5.5134
292,1,1,0.21322,sub-AHSAER12,Hamburg_Wacker,HWJM,521.8795,215.6248,518.384,340.9393,140.2045,-5.4349,-5.5342
293,1,1,0.30775,sub-AHSAER12,Hamburg_Wacker,HWJM,-259.7632,172.1365,573.9327,350.1317,104.1514,-5.5289,-1.3076
294,1,1,0.23537,sub-AHSAER12,Hamburg_Wacker,HWJM,-275.109,168.0509,-404.8017,423.2542,82.8313,-5.6882,-2.0922
295,0.33,1,0.25124,sub-AHSAER12,Hamburg_Wacker,HWJM,439.3092,482.8596,-383.2247,365.1735,65.2592,-7.8861,-2.5935
304,1,1,0.34488,sub-AHSAER12,Hamburg_Wacker,HWJM,441.0467,480.3686,-447.5866,372.763,496.7692,-8.3982,-1.5819
306,1,1,0.67652,sub-AHSAER12,Hamburg_Wacker,HWJM,22.4685,257.7534,18.5187,356.6833,525.2556,1.796,0.94447
310,0.33,1,0.15921,sub-AHSAER12,Hamburg_Wacker,HWJM,45.1531,245.4765,43.6937,197.3006,486.1409,1.5906,1.4293
314,0,1,0.22483,sub-AHSAER12,Hamburg_Wacker,HWJM,-112.2144,106.8255,40.723,165.6609,330.7397,-0.33379,-0.47465
330,1,1,0.25461,sub-AHSAER12,Hamburg_Wacker,HWJM,-78.4511,107.6585,-145.3446,157.2759,388.4758,0.084083,-0.5089
332,0.66,1,0.27314,sub-AHSAER12,Hamburg_Wacker,HWJM,243.2419,440.0527,-127.7156,471.9924,339.4231,-1.193,-3.8606
336,1,1,0.33268,sub-AHSAER12,Hamburg_Wacker,HWJM,261.8615,425.9294,-132.0018,446.4907,291.8228,-1.0355,-3.8574
339,1,1,0.10687,sub-AHSAER12,Hamburg_Wacker,HWJM,-88.415,803.5353,-407.7822,431.095,329.3426,5.3551,-4.1322
351,1,1,0.35278,sub-AHSAER12,Hamburg_Wacker,HWJM,-108.3136,771.8491,-431.8111,-571.106,322.7605,6.2499,-4.1634
354,1,1,0.25879,sub-AHSAER12,Hamburg_Wacker,HWJM,-625.5677,247.011,-368.9291,-510.8896,-798.2913,-2.2249,-8.539
355,0.66,1,0.21405,sub-AHSAER12,Hamburg_Wacker,HWJM,-622.8719,281.2011,240.823,-563.1239,-729.0593,-1.6983,-8.1053
356,1,1,0.22387,sub-AHSAER12,Hamburg_Wacker,HWJM,130.7792,637.0049,210.3467,266.3523,-766.4248,-2.2429,0.54948
357,0.66,1,0.25099,sub-AHSAER12,Hamburg_Wacker,HWJM,123.8125,607.9151,212.027,227.2664,325.288,-2.5314,0.25345
358,1,1,0.20875,sub-AHSAER12,Hamburg_Wacker,HWJM,-159.148,204.6525,11.2001,287.0909,312.0924,-6.8337,4.4182
363,0.33,1,0.21138,sub-AHSAER12,Hamburg_Wacker,HWJM,-180.969,218.5315,-30.3791,197.8881,305.8857,-6.623,3.9472
365,1,1,0.11803,sub-AHSAER12,Hamburg_Wacker,HWJM,145.5991,456.4847,-11.629,203.995,323.9881,-8.9598,-9.3318
373,0.33,1,0.61614,sub-AHSAER12,Hamburg_Wacker,HWJM,168.5213,444.7586,-625.4652,193.1901,292.1064,-7.5915,-10.0622
376,1,1,0.2335,sub-AHSAER12,Hamburg_Wacker,HWJM,864.2302,-430.106,-525.2187,145.9782,316.8707,-1.3478,9.4476
378,0,1,0.114,sub-AHSAER12,Hamburg_Wacker,HWJM,863.8378,-434.5588,-596.8273,135.567,516.8186,-1.5891,9.1505
395,0.33,1,0.34475,sub-AHSAER12,Hamburg_Wacker,HWJM,128.8163,699.3463,-320.2399,176.8185,492.0897,-8.9717,-6.7162
396,0.66,1,0.12575,sub-AHSAER12,Hamburg_Wacker,HWJM,113.838,716.6486,-307.0785,-816.8997,547.9769,-8.3258,-7.737
403,1,1,0.12737,sub-AHSAER12,Hamburg_Wacker,HWJM,162.2424,338.5546,-333.6326,-784.6823,643.1463,-1.897,-5.1941
407,1,1,0.27195,sub-AHSAER12,Hamburg_Wacker,HWJM,185.8681,345.3208,-289.7966,-818.6761,643.4268,-1.7413,-5.6757
422,1,1,0.23415,sub-AHSAER12,Hamburg_Wacker,HWJM,803.3704,133.546,-300.5953,422.7094,617.9932,-0.89663,-4.4085
428,0,1,0.45291,sub-AHSAER12,Hamburg_Wacker,HWJM,770.589,100.2124,-335.5661,392.0074,-384.8803,-0.21254,-5.2698
429,0,1,0.32869,sub-AHSAER12,Hamburg_Wacker,HWJM,68.8816,322.1158,377.5581,461.9876,-360.0901,4.9659,-1.1407
430,1,1,0.22706,sub-AHSAER12,Hamburg_Wacker,HWJM,49.4655,339.5701,374.724,-59.239,-387.1168,5.7316,-1.4786
431,0.66,1,0.22356,sub-AHSAER12,Hamburg_Wacker,HWJM,-271.3803,98.553,418.4943,-82.1699,286.8137,4.0333,-2.1084
432,0,1,0.29055,sub-AHSAER12,Hamburg_Wacker,HWJM,-263.3451,82.7729,702.5045,10.967,356.1943,4.2808,-2.6953
433,0.66,1,0.23091,sub-AHSAER12,Hamburg_Wacker,HWJM,593.8696,524.8428,670.2583,357.4951,380.4066,0.95571,7.8818
434,1,1,0.36968,sub-AHSAER12,Hamburg_Wacker,HWJM,570.3562,510.8033,699.9113,326.0372,155.4554,1.0587,7.5964
437,1,1,0.18586,sub-AHSAER12,Hamburg_Wacker,HWJM,20.6861,257.6805,169.4828,313.7533,142.5107,-2.2994,-4.7909
438,1,1,0.18418,sub-AHSAER12,Hamburg_Wacker,HWJM,6.9301,217.4466,194.0867,-116.8131,210.5388,-1.1612,-5.2671
439,0.66,1,0.28216,sub-AHSAER12,Hamburg_Wacker,HWJM,206.4984,524.4814,149.0232,-86.1425,492.5616,-0.36892,5.3511
440,0.33,1,0.29847,sub-AHSAER12,Hamburg_Wacker,HWJM,216.6033,519.0993,223.087,-120.2382,420.2386,-0.93596,4.41
442,1,1,0.12445,sub-AHSAER12,Hamburg_Wacker,HWJM,-37.7312,-350.1494,212.0019,393.442,469.4716,3.8327,2.946
443,0,1,0.10185,sub-AHSAER12,Hamburg_Wacker,HWJM,-24.0577,-374.1197,269.9196,379.0736,51.5082,4.4453,2.37
448,0,1,0.19408,sub-AHSAER12,Hamburg_Wacker,HWJM,708.8151,156.3194,661.332,391.1934,61.142,-7.3965,-3.7597
450,0,1,0.17838,sub-AHSAER12,Hamburg_Wacker,HWJM,691.5249,140.4688,651.5659,513.8203,63.1204,-5.8183,-4.082
451,0.66,1,0.14578,sub-AHSAER12,Hamburg_Wacker,HWJM,848.651,87.3254,621.8755,501.9342,59.7874,-2.3466,-7.3461
452,1,1,0.14108,sub-AHSAER12,Hamburg_Wacker,HWJM,837.0441,113.1473,-554.6051,517.8045,38.9951,-2.1717,-6.9274
458,1,1,0.2576,sub-AHSAER12,Hamburg_Wacker,HWJM,241.8503,338.3971,-478.3519,-81.7487,44.7994,-9.8508,-4.7617
459,0.33,1,0.12376,sub-AHSAER12,Hamburg_Wacker,HWJM,249.0821,335.9149,-522.2028,-51.1441,689.3137,-9.4865,-4.5145
469,0,1,0.35625,sub-AHSAER12,Hamburg_Wacker,HWJM,-76.3567,616.3508,-316.9682,-13.9531,613.9048,7.2329,5.3739
470,1,1,0.22191,sub-AHSAER12,Hamburg_Wacker,HWJM,-116.4026,600.9649,-309.5106,91.2218,619.6938,6.8955,5.9871
488,0.66,1,0.22812,sub-AHSAER12,Hamburg_Wacker,HWJM,28.3501,-82.4733,-342.45,125.7052,64.9778,-11.0232,-4.064
489,1,1,0.12404,sub-AHSAER12,Hamburg_Wacker,HWJM,9.1086,-104.4161,483.3495,103.5247,82.7075,-11.0896,-2.8896
492,1,1,0.19169,sub-AHSAER12,Hamburg_Wacker,HWJM,390.7424,142.4261,481.043,615.95,115.0968,0.95782,-5.945
493,1,1,0.19209,sub-AHSAER12,Hamburg_Wacker,HWJM,344.3584,133.7939,480.2205,656.6766,-232.6042,1.1152,-6.062
502,0.33,1,0.25684,sub-AHSAER12,Hamburg_Wacker,HWJM,432.7352,-1.8267,-486.3425,667.1443,-158.4719,-13.0988,6.8676
504,0.33,1,0.10057,sub-AHSAER12,Hamburg_Wacker,HWJM,476.7381,16.4788,-449.5195,417.3482,-187.0182,-14.0625,6.1609
509,1,1,0.30517,sub-AHSAER12,Hamburg_Wacker,HWJM,-34.1465,417.0379,-495.7331,389.8907,666.4242,-5.8092,-1.8857
512,1,1,0.28743,sub-AHSAER12,Hamburg_Wacker,HWJM,-23.5458,438.1913,107.6249,374.1773,607.7057,-4.6941,-1.8257
513,1,1,0.2361,sub-AHSAER12,Hamburg_Wacker,HWJM,477.8034,11.5672,73.995,-8.1446,676.4799,0.022394,-10.8687
515,1,1,0.21266,sub-AHSAER12,Hamburg_Wacker,HWJM,459.8885,7.5931,75.4358,-66.3662,410.7866,0.58176,-11.8169
516,0.66,1,0.23768,sub-AHSAER12,Hamburg_Wacker,HWJM,445.7692,85.7698,-264.5478,-39.2373,371.9007,-0.59369,7.8914
517,1,1,0.20433,sub-AHSAER12,Hamburg_Wacker,HWJM,414.8328,109.5081,-250.4724,345.1339,378.0629,-0.3929,8.5662
518,0.66,1,0.20941,sub-AHSAER12,Hamburg_Wacker,HWJM,528.0891,463.6045,-233.3054,350.8447,-389.477,-5.2881,5.6484
519,1,1,0.16065,sub-AHSAER12,Hamburg_Wacker,HWJM,567.6535,477.5792,1104.9812,322.4346,-375.8098,-5.5558,5.8134
520,0.66,1,0.12934,sub-AHSAER12,Hamburg_Wacker,HWJM,337.7101,41.7251,993.5901,977.2687,-369.2888,-4.212,-2.32
521,1,1,0.13101,sub-AHSAER12,Hamburg_Wacker,HWJM,333.9778,66.2137,1057.856,938.9995,-455.5157,-4.3944,-2.4468
522,0,1,0.11807,sub-AHSAER12,Hamburg_Wacker,HWJM,87.6417,315.5906,827.6022,863.1278,-376.4928,-0.069873,5.4106
523,1,1,0.18593,sub-AHSAER12,Hamburg_Wacker,HWJM,80.754,292.0359,753.1151,73.845,-400.9595,0.67937,4.4454
526,0,1,0.11037,sub-AHSAER12,Hamburg_Wacker,HWJM,521.342,574.8787,820.1205,-11.1481,-266.213,-3.9254,0.35007
527,1,1,0.16521,sub-AHSAER12,Hamburg_Wacker,HWJM,463.1385,572.8871,-18.5485,25.7401,-287.5227,-3.696,-0.362
528,1,1,0.15287,sub-AHSAER12,Hamburg_Wacker,HWJM,-564.5074,592.0875,58.1352,531.8602,-295.9742,1.6673,5.2023
534,0.66,1,0.31391,sub-AHSAER12,Hamburg_Wacker,HWJM,-582.4618,570.1238,60.5533,539.1401,-41.5021,2.0775,5.5318
535,1,1,0.2225,sub-AHSAER12,Hamburg_Wacker,HWJM,476.8228,-363.0215,-276.0969,541.434,-48.7388,-4.8636,-0.66991
536,0.33,1,0.23813,sub-AHSAER12,Hamburg_Wacker,HWJM,492.9526,-375.4483,-231.1787,-158.1533,-59.8068,-4.6975,-0.69914
537,0,1,0.23553,sub-AHSAER12,Hamburg_Wacker,HWJM,678.084,-536.9561,-336.1919,-116.6297,436.7802,0.4765,-2.5095
539,0.33,1,0.21417,sub-AHSAER12,Hamburg_Wacker,HWJM,682.8143,-544.0202,-119.5189,-110.9827,387.9712,1.3929,-1.3204
540,1,1,0.11384,sub-AHSAER12,Hamburg_Wacker,HWJM,179.8502,-188.3161,-113.5863,115.9871,433.7524,0.27491,-5.9094
541,1,1,0.20815,sub-AHSAER12,Hamburg_Wacker,HWJM,220.0585,-180.4073,-107.8681,112.3807,629.1926,0.61608,-5.7712
542,1,1,0.20084,sub-AHSAER12,Hamburg_Wacker,HWJM,-744.1688,135.1104,365.4556,142.8563,608.6531,1.8106,-5.822
543,1,1,0.12275,sub-AHSAER12,Hamburg_Wacker,HWJM,-756.0441,116.4168,374.0849,-488.8059,652.4741,1.3361,-6.8202
546,1,1,0.30334,sub-AHSAER12,Hamburg_Wacker,HWJM,633.2709,248.4449,357.1435,-464.7383,-321.1365,-3.0003,-5.0895
547,1,1,0.13271,sub-AHSAER12,Hamburg_Wacker,HWJM,634.6315,254.2305,-47.0738,-430.5312,-320.1494,-3.4895,-6.113
550,1,1,0.17562,sub-AHSAER12,Hamburg_Wacker,HWJM,-11.4246,188.6471,-99.3241,863.9206,-260.3038,-1.8388,-1.5992
551,0,1,0.10931,sub-AHSAER12,Hamburg_Wacker,HWJM,15.9015,204.8457,44.8458,858.4367,-251.6975,-2.8752,-2.1008
558,1,1,0.32929,sub-AHSAER12,Hamburg_Wacker,HWJM,306.4062,-346.9012,-498.5673,903.5902,-224.6466,-4.1027,-4.8597
559,0.66,1,0.16125,sub-AHSAER12,Hamburg_Wacker,HWJM,300.1632,-354.8871,-442.0368,118.1632,-244.4524,-4.7912,-4.7549
560,1,1,0.1935,sub-AHSAER12,Hamburg_Wacker,HWJM,-142.4467,-104.5335,-454.1552,99.1414,314.6441,-1.8682,-2.6419
561,0.66,1,0.22395,sub-AHSAER12,Hamburg_Wacker,HWJM,-156.2531,-86.2589,324.7026,160.5928,348.5297,-1.3659,-2.723
562,0.33,1,0.10254,sub-AHSAER12,Hamburg_Wacker,HWJM,624.1364,352.5651,313.6605,13.5417,363.633,-10.8239,-4.5636
563,1,1,0.18117,sub-AHSAER12,Hamburg_Wacker,HWJM,641.3368,345.5367,339.0667,-4.5416,-296.4375,-9.8814,-5.428
569,0,1,0.10349,sub-AHSAER12,Hamburg_Wacker,HWJM,439.1042,-306.5473,459.7812,1.2532,-280.3701,-0.37353,-4.4963
575,0.66,1,0.11244,sub-AHSAER12,Hamburg_Wacker,HWJM,444.7767,-338.6829,440.4553,96.7859,-346.8266,-1.4368,-4.2826
293,1,1,0.36544,sub-AI07AS19,Gieen,GILX,24.2271,45.9521,39.6669,-55.5221,15.6867,5.5258,7.1196
295,1,1,0.24552,sub-AI07AS19,Gieen,GILX,71.3721,-18.6326,-7.314,62.5068,-6.4217,9.2539,9.7305
296,0.66,1,0.24048,sub-AI07AS19,Gieen,GILX,4.7824,41.1139,48.1954,-7.3293,-35.1715,5.3448,7.9771
297,0.33,1,0.28099,sub-AI07AS19,Gieen,GILX,-6.2007,39.5917,-5.227,-2.8372,28.5766,1.2379,2.159
298,0.33,1,0.24423,sub-AI07AS19,Gieen,GILX,8.4468,35.765,-31.688,64.423,27.1742,0.6409,-2.0546
300,0.66,1,0.33072,sub-AI07AS19,Gieen,GILX,3.4222,91.9817,1.6435,16.2821,34.7626,-6.4254,2.3467
301,0.66,1,0.25407,sub-AI07AS19,Gieen,GILX,43.1762,78.4869,0.89976,7.9459,-1.7644,7.9488,9.2598
302,1,1,0.36692,sub-AI07AS19,Gieen,GILX,43.8207,-90.3327,-29.2097,-22.8771,-34.7117,6.088,-2.4245
308,1,1,0.30286,sub-AI07AS19,Gieen,GILX,17.7227,-100.0072,-1.6439,-15.3243,-56.3121,3.4806,-0.2725
309,0.33,1,0.26829,sub-AI07AS19,Gieen,GILX,38.0883,11.4334,18.6456,-57.1177,25.1956,5.6496,5.1753
311,0.33,1,0.28322,sub-AI07AS19,Gieen,GILX,29.3785,17.1459,-47.4492,4.4651,47.0866,1.9985,-2.1047
312,0.33,1,0.23934,sub-AI07AS19,Gieen,GILX,47.4148,-18.4732,65.7113,37.1463,-71.8978,-2.778,0.58254
314,1,1,0.26721,sub-AI07AS19,Gieen,GILX,-10.5,-10.051,13.033,13.899,15.1385,1.6194,-5.4569
315,1,1,0.26973,sub-AI07AS19,Gieen,GILX,-18.6621,-44.96,29.2079,28.5489,24.3591,-5.2124,-1.0524
316,0.33,1,0.32931,sub-AI07AS19,Gieen,GILX,18.963,7.5759,45.4429,12.5761,-22.4669,-0.077156,-0.84399
317,1,1,0.28744,sub-AI07AS19,Gieen,GILX,6.0764,10.9487,45.1454,-46.2227,50.6718,3.3762,-7.7651
318,0.66,1,0.35689,sub-AI07AS19,Gieen,GILX,18.3274,-2.1879,-9.4577,30.8456,-38.744,4.7494,-6.0408
319,0.33,1,0.26404,sub-AI07AS19,Gieen,GILX,9.694,21.2705,74.8792,69.3157,-27.2429,-5.1047,3.0368
320,0,1,0.42884,sub-AI07AS19,Gieen,GILX,14.3005,79.6465,-63.6439,3.4658,40.3224,-7.3682,5.3608
321,1,1,0.34112,sub-AI07AS19,Gieen,GILX,-0.39196,6.8633,14.35,69.4717,-6.8359,0.055807,-7.0399
322,1,1,0.1792,sub-AI07AS19,Gieen,GILX,4.2,38.9473,-23.6768,-12.0598,-5.499,-5.4149,3.3385
324,1,1,0.44042,sub-AI07AS19,Gieen,GILX,36.3764,29.281,6.0497,-8.8322,99.7412,1.3713,6.1032
326,0.66,1,0.28975,sub-AI07AS19,Gieen,GILX,13.4663,3.5047,-19.7044,107.1855,27.0442,-3.0585,-0.3839
327,1,1,0.22356,sub-AI07AS19,Gieen,GILX,5.2051,16.1451,26.391,3.1782,-44.3453,-2.7126,0.87769
330,0.33,1,0.32489,sub-AI07AS19,Gieen,GILX,18.2075,54.5615,32.0226,-54.5066,49.8753,-4.9408,-0.77682
332,1,1,0.27376,sub-AI07AS19,Gieen,GILX,25.1494,12.7518,-48.2117,65.6833,27.482,-7.2998,5.6189
335,0.33,1,0.40546,sub-AI07AS19,Gieen,GILX,3.6035,33.9891,36.4877,24.8733,0.52965,8.3519,0.49576
336,0.66,1,0.20423,sub-AI07AS19,Gieen,GILX,41.936,6.4484,-45.5676,-7.5292,57.2174,-1.5145,6.5071
338,1,1,0.38874,sub-AI07AS19,Gieen,GILX,-11.7818,9.2513,19.5376,23.0066,-24.4961,2.9076,-5.3871
339,0.66,1,0.36064,sub-AI07AS19,Gieen,GILX,-11.5112,34.2686,-8.223,0.75772,17.8257,1.3931,10.5081
340,1,1,0.24177,sub-AI07AS19,Gieen,GILX,-12.0988,64.2445,-11.3864,-16.6819,-34.8011,7.5926,3.1091
341,1,1,0.20273,sub-AI07AS19,Gieen,GILX,4.4162,2.5797,-47.4358,67.7479,-5.0444,0.68964,2.6707
343,0.66,1,0.30808,sub-AI07AS19,Gieen,GILX,3.4793,13.8296,60.6008,-25.5362,-46.9612,0.51117,-5.0251
344,0.66,1,0.31959,sub-AI07AS19,Gieen,GILX,12.6733,31.8212,-2.9127,19.3541,51.8447,-0.68634,4.0872
350,1,1,0.10393,sub-AI07AS19,Gieen,GILX,32.3337,68.9518,-27.0784,44.1225,38.1274,-0.46354,4.2121
351,0,1,0.19576,sub-AI07AS19,Gieen,GILX,44.1804,32.6669,9.117,0.91235,-38.069,-10.0028,3.6828
352,1,1,0.28768,sub-AI07AS19,Gieen,GILX,-20.5089,29.2511,-7.1276,-30.5958,-5.1471,12.1467,-1.4358
353,1,1,0.24385,sub-AI07AS19,Gieen,GILX,71.7479,-12.4827,-25.7129,84.4961,45.0642,7.8383,-0.55473
354,0.33,1,0.23759,sub-AI07AS19,Gieen,GILX,2.8689,22.2447,-6.1254,2.3139,-64.8784,-1.919,0.9854
355,1,1,0.21732,sub-AI07AS19,Gieen,GILX,7.0323,8.5788,45.9171,-38.1849,86.0965,-8.7583,2.8447
356,1,1,0.33693,sub-AI07AS19,Gieen,GILX,7.812,52.2557,-18.1226,-15.0693,11.6475,-1.8836,4.7018
358,1,1,0.30584,sub-AI07AS19,Gieen,GILX,-24.9819,19.115,16.0526,34.6517,-5.1389,2.6966,0.8921
359,1,1,0.2842,sub-AI07AS19,Gieen,GILX,-32.1165,43.7449,21.6246,-52.7043,21.0379,1.2981,-1.5733
360,1,1,0.27935,sub-AI07AS19,Gieen,GILX,-16.0746,21.5791,-39.0943,55.9433,-61.332,-0.98241,8.2987
362,0.33,1,0.27058,sub-AI07AS19,Gieen,GILX,22.573,80.7465,-14.0734,-26.3702,6.2442,2.285,4.319
363,0.66,1,0.41118,sub-AI07AS19,Gieen,GILX,43.8373,25.4596,-17.03,-6.7053,1.6774,-2.7466,-0.14366
365,1,1,0.25309,sub-AI07AS19,Gieen,GILX,75.7493,54.9355,-23.7732,45.9746,76.7946,8.3533,-3.0753
366,1,1,0.28815,sub-AI07AS19,Gieen,GILX,84.7596,61.4185,66.3258,30.7223,-76.3813,-0.91478,18.3523
368,0.33,1,0.34044,sub-AI07AS19,Gieen,GILX,25.5719,20.4689,-21.7269,-9.6049,109.2489,0.25191,15.1455
369,0.33,1,0.21892,sub-AI07AS19,Gieen,GILX,10.5069,-25.1553,-70.8237,66.5146,59.0243,-3.9933,-4.1726
370,0.66,1,0.27211,sub-AI07AS19,Gieen,GILX,-20.1066,6.3476,33.8821,30.8588,-42.7086,2.4317,-1.8255
371,1,1,0.2585,sub-AI07AS19,Gieen,GILX,1.6073,15.5473,-13.7002,-75.3466,108.4651,-0.79483,16.7058
372,0,1,0.35714,sub-AI07AS19,Gieen,GILX,0.16941,47.9449,-45.3608,32.0851,-10.4872,4.9603,8.0259
373,1,1,0.19629,sub-AI07AS19,Gieen,GILX,12.8658,20.997,55.2637,28.1027,6.7348,4.1527,-0.31098
375,1,1,0.21483,sub-AI07AS19,Gieen,GILX,7.6035,38.9857,75.8123,-79.9382,20.7905,7.5389,2.172
376,1,1,0.2552,sub-AI07AS19,Gieen,GILX,49.64,-7.8628,-73.9402,66.7392,6.3516,7.3438,-10.2377
377,1,1,0.25108,sub-AI07AS19,Gieen,GILX,15.0694,-14.7027,79.7198,66.5492,-102.3781,8.1578,3.8306
378,0,1,0.36171,sub-AI07AS19,Gieen,GILX,6.9499,22.1662,-0.50407,-141.6561,56.7923,4.2451,-7.8403
380,1,1,0.34278,sub-AI07AS19,Gieen,GILX,40.4983,-2.0687,-73.0377,48.7314,-90.9008,2.6038,-5.6557
381,1,1,0.32007,sub-AI07AS19,Gieen,GILX,54.2013,-11.6867,44.5372,-14.4462,-3.763,0.51795,1.0329
382,0.33,1,0.35152,sub-AI07AS19,Gieen,GILX,-25.9222,46.6231,-29.0605,30.7118,0.013591,-0.91253,-2.8023
384,0.66,1,0.27327,sub-AI07AS19,Gieen,GILX,57.6562,-0.81323,-9.4659,60.8326,72.5188,-0.43918,11.7117
386,0,1,0.27381,sub-AI07AS19,Gieen,GILX,12.2871,33.9454,1.7229,31.08,-58.243,3.4585,-7.5351
387,0,1,0.30471,sub-AI07AS19,Gieen,GILX,-17.3998,-39.661,-69.3643,-73.2486,70.8193,-4.9881,5.609
388,1,1,0.2135,sub-AI07AS19,Gieen,GILX,36.4249,9.2248,-6.8004,53.1089,11.8812,3.4888,1.8046
389,0.66,1,0.32933,sub-AI07AS19,Gieen,GILX,9.1305,0.44826,-34.8554,90.7409,-7.6193,-8.6452,7.7321
390,0.66,1,0.28666,sub-AI07AS19,Gieen,GILX,-3.1964,42.4531,-8.4389,-113.757,37.9164,2.3178,8.1742
391,1,1,0.26799,sub-AI07AS19,Gieen,GILX,-0.29846,12.9621,-50.2154,91.8901,41.2154,7.8101,7.1457
392,0.66,1,0.28861,sub-AI07AS19,Gieen,GILX,33.2501,7.5958,77.6619,41.323,-72.8895,3.8514,-0.042133
395,1,1,0.24191,sub-AI07AS19,Gieen,GILX,58.5275,3.0871,2.6664,-56.1683,102.4178,-2.6538,-6.047
396,0,1,0.28187,sub-AI07AS19,Gieen,GILX,-19.6009,9.5301,32.774,105.8907,-7.7764,0.37893,-3.0825
399,1,1,0.3292,sub-AI07AS19,Gieen,GILX,-36.3652,20.3609,73.9232,17.7062,22.3098,-3.0515,-1.6178
400,1,1,0.29407,sub-AI07AS19,Gieen,GILX,31.8969,17.8388,-18.5074,-79.8375,-24.2163,-5.8492,0.93113
402,0.66,1,0.36735,sub-AI07AS19,Gieen,GILX,9.4686,-6.5442,12.7954,28.182,33.6861,-0.084251,2.5905
403,0,1,0.38586,sub-AI07AS19,Gieen,GILX,-19.4142,28.4364,-18.074,-39.6657,-3.1092,1.2503,7.3548
409,1,1,0.37454,sub-AI07AS19,Gieen,GILX,-15.0701,-14.822,-52.743,-37.3709,34.7228,1.2115,6.0904
410,1,1,0.25914,sub-AI07AS19,Gieen,GILX,-8.9408,9.8805,-63.1635,-19.3238,41.0118,-6.4102,0.51093
412,0.33,1,0.27961,sub-AI07AS19,Gieen,GILX,13.8634,38.6322,19.1001,20.2472,-36.3632,-6.3248,3.4703
413,1,1,0.30235,sub-AI07AS19,Gieen,GILX,7.1002,65.2353,25.485,-10.3567,-1.3885,3.1919,3.3196
415,0,1,0.22894,sub-AI07AS19,Gieen,GILX,71.9749,23.8828,-7.996,69.3389,50.4103,-7.8655,-0.98304
416,0.33,1,0.33916,sub-AI07AS19,Gieen,GILX,-18.1438,82.0895,66.3508,57.4625,-96.1438,3.1966,-5.2285
417,1,1,0.25861,sub-AI07AS19,Gieen,GILX,57.607,84.3238,-16.7968,-7.3735,87.2152,2.7549,-0.11881
418,1,1,0.26991,sub-AI07AS19,Gieen,GILX,1.0843,90.7154,6.5279,25.9238,45.7125,5.5988,-3.9514
420,1,1,0.24438,sub-AI07AS19,Gieen,GILX,30.2866,-20.4816,43.3955,88.5493,-28.2466,2.4995,5.0874
421,1,1,0.37758,sub-AI07AS19,Gieen,GILX,2.9057,47.1225,-35.5465,-19.3517,84.7629,0.73238,9.1844
422,1,1,0.2984,sub-AI07AS19,Gieen,GILX,19.3173,5.6768,-6.5984,68.0321,30.8208,-0.87936,1.3977
424,1,1,0.31483,sub-AI07AS19,Gieen,GILX,10.457,38.9143,44.0316,-11.4332,-74.9864,2.596,-3.7233
425,1,1,0.29367,sub-AI07AS19,Gieen,GILX,26.6964,-24.3575,14.5162,-50.1537,44.7718,-1.6488,2.3411
426,0.33,1,0.27785,sub-AI07AS19,Gieen,GILX,-28.649,-64.9855,-46.5315,42.1726,24.0761,-4.5176,-4.2073
428,0.33,1,0.32456,sub-AI07AS19,Gieen,GILX,-16.5141,0.60007,34.5378,-26.7475,21.786,-4.8009,-6.9653
429,0.66,1,0.33209,sub-AI07AS19,Gieen,GILX,-47.2593,40.837,22.4545,-15.2504,2.5026,-1.8768,-4.8968
430,0.33,1,0.31818,sub-AI07AS19,Gieen,GILX,-37.4185,-4.5264,-68.3912,13.3622,-2.2865,0.5218,0.68515
431,1,1,0.321,sub-AI07AS19,Gieen,GILX,19.8715,-7.9734,51.338,66.3367,5.6098,-6.1352,-0.69825
432,1,1,0.23909,sub-AI07AS19,Gieen,GILX,-10.4242,-21.7933,8.1962,-23.5563,60.2575,-1.1201,3.1757
433,1,1,0.32291,sub-AI07AS19,Gieen,GILX,73.1734,46.645,96.5005,80.4921,13.9818,-6.3783,2.1738
434,0,1,0.38806,sub-AI07AS19,Gieen,GILX,43.7934,14.8036,-46.8087,1.3777,-2.4021,1.0764,5.1821
