"Onset","Duration","Participant","date_time","Running","Trial","Event","OfferSelf","OfferOther","Presented_Offer","Response","RT","MoneyWon","Response_accept","color_subject"
146.332906800002,6.14466870001343,"IA6LI11","2022_Jan_05_1247","Proposer",1,"offer_proposer",NA,NA,NA,"5_self_5_other",6.14466870001343,NA,2,"blue"
152.700455500002,2.91064890001144,"IA6LI11","2022_Jan_05_1247","Proposer",2,"offer_proposer",NA,NA,NA,"5_self_5_other",2.91064890001144,NA,2,"blue"
155.84566430001,8.05915279999317,"IA6LI11","2022_Jan_05_1247","Proposer",3,"offer_proposer",NA,NA,NA,"5_self_5_other",8.05915279999317,NA,2,"blue"
296.293875000003,0.645449910725718,"IA6LI11","2022_Jan_05_1247","Practice",0,"Fixation",5,5,"5_5_V1.png","Reject",0.549009299997124,NA,2,"blue"
296.953125300002,0.549009299997124,"IA6LI11","2022_Jan_05_1247","Practice",0,"Offer",5,5,"5_5_V1.png","Reject",0.549009299997124,NA,2,"blue"
297.502134599999,0,"IA6LI11","2022_Jan_05_1247","Practice",0,"Response",5,5,"5_5_V1.png","Reject",0.549009299997124,NA,2,"blue"
297.53584940001,1,"IA6LI11","2022_Jan_05_1247","Practice",0,"Feedback",5,5,"5_5_V1.png","Reject",0.549009299997124,NA,2,"blue"
298.546726400004,0.512821884345401,"IA6LI11","2022_Jan_05_1247","Practice",1,"Fixation",3,7,"7_3_V1.png","Reject",0.319774399991729,NA,2,"blue"
299.068573800003,0.319774399991729,"IA6LI11","2022_Jan_05_1247","Practice",1,"Offer",3,7,"7_3_V1.png","Reject",0.319774399991729,NA,2,"blue"
299.388348199995,0,"IA6LI11","2022_Jan_05_1247","Practice",1,"Response",3,7,"7_3_V1.png","Reject",0.319774399991729,NA,2,"blue"
299.423224600003,1,"IA6LI11","2022_Jan_05_1247","Practice",1,"Feedback",3,7,"7_3_V1.png","Reject",0.319774399991729,NA,2,"blue"
300.431972699997,0.549984484133882,"IA6LI11","2022_Jan_05_1247","Practice",2,"Fixation",1,9,"9_1_V1.png","Accept",0.353367199990316,NA,2,"blue"
301.002779000002,0.353367199990316,"IA6LI11","2022_Jan_05_1247","Practice",2,"Offer",1,9,"9_1_V1.png","Accept",0.353367199990316,NA,2,"blue"
301.356146199992,0,"IA6LI11","2022_Jan_05_1247","Practice",2,"Response",1,9,"9_1_V1.png","Accept",0.353367199990316,NA,2,"blue"
301.385897700005,1,"IA6LI11","2022_Jan_05_1247","Practice",2,"Feedback",1,9,"9_1_V1.png","Accept",0.353367199990316,NA,2,"blue"
302.39973450001,0.511715431918066,"IA6LI11","2022_Jan_05_1247","Practice",3,"Fixation",1,9,"9_1_V1.png","Reject",0.335997800008045,NA,2,"blue"
302.920292100011,0.335997800008045,"IA6LI11","2022_Jan_05_1247","Practice",3,"Offer",1,9,"9_1_V1.png","Reject",0.335997800008045,NA,2,"blue"
303.256289900019,0,"IA6LI11","2022_Jan_05_1247","Practice",3,"Response",1,9,"9_1_V1.png","Reject",0.335997800008045,NA,2,"blue"
303.288336700003,1,"IA6LI11","2022_Jan_05_1247","Practice",3,"Feedback",1,9,"9_1_V1.png","Reject",0.335997800008045,NA,2,"blue"
304.301749699996,0.57422122217111,"IA6LI11","2022_Jan_05_1247","Practice",4,"Fixation",3,7,"7_3_V1.png","Accept",0.298935799990431,NA,2,"blue"
304.885716500008,0.298935799990431,"IA6LI11","2022_Jan_05_1247","Practice",4,"Offer",3,7,"7_3_V1.png","Accept",0.298935799990431,NA,2,"blue"
305.184652299998,0,"IA6LI11","2022_Jan_05_1247","Practice",4,"Response",3,7,"7_3_V1.png","Accept",0.298935799990431,NA,2,"blue"
305.214275300008,1,"IA6LI11","2022_Jan_05_1247","Practice",4,"Feedback",3,7,"7_3_V1.png","Accept",0.298935799990431,NA,2,"blue"
306.219777699996,0.522770585545845,"IA6LI11","2022_Jan_05_1247","Practice",5,"Fixation",5,5,"5_5_V1.png","Accept",0.304643600000418,NA,2,"blue"
306.764003500008,0.304643600000418,"IA6LI11","2022_Jan_05_1247","Practice",5,"Offer",5,5,"5_5_V1.png","Accept",0.304643600000418,NA,2,"blue"
307.068647100008,0,"IA6LI11","2022_Jan_05_1247","Practice",5,"Response",5,5,"5_5_V1.png","Accept",0.304643600000418,NA,2,"blue"
307.093498000002,1,"IA6LI11","2022_Jan_05_1247","Practice",5,"Feedback",5,5,"5_5_V1.png","Accept",0.304643600000418,NA,2,"blue"
354.421352200006,0.574058850011517,"IA6LI11","2022_Jan_05_1247","MainTask",0,"Fixation",5,5,"5_5_V1.png","Reject",0.594193800003268,0,2,"blue"
355.016447900009,0.594193800003268,"IA6LI11","2022_Jan_05_1247","MainTask",0,"Offer",5,5,"5_5_V1.png","Reject",0.594193800003268,0,2,"blue"
355.610641700012,0,"IA6LI11","2022_Jan_05_1247","MainTask",0,"Response",5,5,"5_5_V1.png","Reject",0.594193800003268,0,2,"blue"
355.649366700003,1,"IA6LI11","2022_Jan_05_1247","MainTask",0,"Feedback",5,5,"5_5_V1.png","Reject",0.594193800003268,0,2,"blue"
356.665001400004,0.535190822700299,"IA6LI11","2022_Jan_05_1247","MainTask",1,"Fixation",1,9,"9_1_V1.png","Accept",0.55345110000053,1,2,"blue"
357.215744200003,0.55345110000053,"IA6LI11","2022_Jan_05_1247","MainTask",1,"Offer",1,9,"9_1_V1.png","Accept",0.55345110000053,1,2,"blue"
357.769195300004,0,"IA6LI11","2022_Jan_05_1247","MainTask",1,"Response",1,9,"9_1_V1.png","Accept",0.55345110000053,1,2,"blue"
357.811705500004,1,"IA6LI11","2022_Jan_05_1247","MainTask",1,"Feedback",1,9,"9_1_V1.png","Accept",0.55345110000053,1,2,"blue"
358.816445500008,0.650110647307281,"IA6LI11","2022_Jan_05_1247","MainTask",2,"Fixation",5,5,"5_5_V1.png","Reject",0.390984999990906,1,2,"blue"
359.490090200008,0.390984999990906,"IA6LI11","2022_Jan_05_1247","MainTask",2,"Offer",5,5,"5_5_V1.png","Reject",0.390984999990906,1,2,"blue"
359.881075199999,0,"IA6LI11","2022_Jan_05_1247","MainTask",2,"Response",5,5,"5_5_V1.png","Reject",0.390984999990906,1,2,"blue"
359.92314150001,1,"IA6LI11","2022_Jan_05_1247","MainTask",2,"Feedback",5,5,"5_5_V1.png","Reject",0.390984999990906,1,2,"blue"
360.935307899999,0.690959077453816,"IA6LI11","2022_Jan_05_1247","MainTask",3,"Fixation",3,7,"7_3_V1.png","Reject",0.435480600004666,1,2,"blue"
361.636703600001,0.435480600004666,"IA6LI11","2022_Jan_05_1247","MainTask",3,"Offer",3,7,"7_3_V1.png","Reject",0.435480600004666,1,2,"blue"
362.072184200006,0,"IA6LI11","2022_Jan_05_1247","MainTask",3,"Response",3,7,"7_3_V1.png","Reject",0.435480600004666,1,2,"blue"
362.1085877,1,"IA6LI11","2022_Jan_05_1247","MainTask",3,"Feedback",3,7,"7_3_V1.png","Reject",0.435480600004666,1,2,"blue"
363.119988999999,0.514332673626659,"IA6LI11","2022_Jan_05_1247","MainTask",4,"Fixation",3,7,"7_3_V1.png","None",NA,1,2,"blue"
363.654195399999,3,"IA6LI11","2022_Jan_05_1247","MainTask",4,"Offer",3,7,"7_3_V1.png","None",NA,1,2,"blue"
367.65220740001,1,"IA6LI11","2022_Jan_05_1247","MainTask",4,"Feedback_Too_Slow",3,7,"7_3_V1.png","None",NA,1,2,"blue"
368.6558965,0.576740199537239,"IA6LI11","2022_Jan_05_1247","MainTask",5,"Fixation",3,7,"7_3_V1.png","Accept",0.328862099995604,4,2,"blue"
369.24754170001,0.328862099995604,"IA6LI11","2022_Jan_05_1247","MainTask",5,"Offer",3,7,"7_3_V1.png","Accept",0.328862099995604,4,2,"blue"
369.576403800006,0,"IA6LI11","2022_Jan_05_1247","MainTask",5,"Response",3,7,"7_3_V1.png","Accept",0.328862099995604,4,2,"blue"
369.613912300003,1,"IA6LI11","2022_Jan_05_1247","MainTask",5,"Feedback",3,7,"7_3_V1.png","Accept",0.328862099995604,4,2,"blue"
370.626361700008,0.595773603660419,"IA6LI11","2022_Jan_05_1247","MainTask",6,"Fixation",3,7,"7_3_V1.png","Accept",0.369758499989985,7,2,"blue"
371.22761110001,0.369758499989985,"IA6LI11","2022_Jan_05_1247","MainTask",6,"Offer",3,7,"7_3_V1.png","Accept",0.369758499989985,7,2,"blue"
371.5973696,0,"IA6LI11","2022_Jan_05_1247","MainTask",6,"Response",3,7,"7_3_V1.png","Accept",0.369758499989985,7,2,"blue"
371.618266200006,1,"IA6LI11","2022_Jan_05_1247","MainTask",6,"Feedback",3,7,"7_3_V1.png","Accept",0.369758499989985,7,2,"blue"
372.628231900002,0.516702569001383,"IA6LI11","2022_Jan_05_1247","MainTask",7,"Fixation",5,5,"5_5_V1.png","Reject",0.400125799991656,7,2,"blue"
373.167009500001,0.400125799991656,"IA6LI11","2022_Jan_05_1247","MainTask",7,"Offer",5,5,"5_5_V1.png","Reject",0.400125799991656,7,2,"blue"
373.567135299993,0,"IA6LI11","2022_Jan_05_1247","MainTask",7,"Response",5,5,"5_5_V1.png","Reject",0.400125799991656,7,2,"blue"
373.601229300009,1,"IA6LI11","2022_Jan_05_1247","MainTask",7,"Feedback",5,5,"5_5_V1.png","Reject",0.400125799991656,7,2,"blue"
374.613201700005,0.662504930770741,"IA6LI11","2022_Jan_05_1247","MainTask",8,"Fixation",1,9,"9_1_V1.png","Accept",0.351522999990266,8,2,"blue"
375.285884299999,0.351522999990266,"IA6LI11","2022_Jan_05_1247","MainTask",8,"Offer",1,9,"9_1_V1.png","Accept",0.351522999990266,8,2,"blue"
375.637407299989,0,"IA6LI11","2022_Jan_05_1247","MainTask",8,"Response",1,9,"9_1_V1.png","Accept",0.351522999990266,8,2,"blue"
375.671735199998,1,"IA6LI11","2022_Jan_05_1247","MainTask",8,"Feedback",1,9,"9_1_V1.png","Accept",0.351522999990266,8,2,"blue"
376.681721600005,0.577625434613408,"IA6LI11","2022_Jan_05_1247","MainTask",9,"Fixation",1,9,"9_1_V1.png","Accept",0.344260900004883,9,2,"blue"
377.270907099999,0.344260900004883,"IA6LI11","2022_Jan_05_1247","MainTask",9,"Offer",1,9,"9_1_V1.png","Accept",0.344260900004883,9,2,"blue"
377.615168000004,0,"IA6LI11","2022_Jan_05_1247","MainTask",9,"Response",1,9,"9_1_V1.png","Accept",0.344260900004883,9,2,"blue"
377.659525100011,1,"IA6LI11","2022_Jan_05_1247","MainTask",9,"Feedback",1,9,"9_1_V1.png","Accept",0.344260900004883,9,2,"blue"
378.666683300005,0.549249222301308,"IA6LI11","2022_Jan_05_1247","MainTask",10,"Fixation",3,7,"7_3_V1.png","Accept",0.32798260000709,12,2,"blue"
379.235265399999,0.32798260000709,"IA6LI11","2022_Jan_05_1247","MainTask",10,"Offer",3,7,"7_3_V1.png","Accept",0.32798260000709,12,2,"blue"
379.563248000006,0,"IA6LI11","2022_Jan_05_1247","MainTask",10,"Response",3,7,"7_3_V1.png","Accept",0.32798260000709,12,2,"blue"
379.597570500002,1,"IA6LI11","2022_Jan_05_1247","MainTask",10,"Feedback",3,7,"7_3_V1.png","Accept",0.32798260000709,12,2,"blue"
380.618157500008,0.695483615145701,"IA6LI11","2022_Jan_05_1247","MainTask",11,"Fixation",5,5,"5_5_V1.png","Reject",0.275144800005364,12,2,"blue"
381.319970800003,0.275144800005364,"IA6LI11","2022_Jan_05_1247","MainTask",11,"Offer",5,5,"5_5_V1.png","Reject",0.275144800005364,12,2,"blue"
381.595115600008,0,"IA6LI11","2022_Jan_05_1247","MainTask",11,"Response",5,5,"5_5_V1.png","Reject",0.275144800005364,12,2,"blue"
381.631976400007,1,"IA6LI11","2022_Jan_05_1247","MainTask",11,"Feedback",5,5,"5_5_V1.png","Reject",0.275144800005364,12,2,"blue"
382.653141700008,0.615392086662264,"IA6LI11","2022_Jan_05_1247","MainTask",12,"Fixation",5,5,"5_5_V1.png","Reject",0.294642199994996,12,2,"blue"
383.292786700011,0.294642199994996,"IA6LI11","2022_Jan_05_1247","MainTask",12,"Offer",5,5,"5_5_V1.png","Reject",0.294642199994996,12,2,"blue"
383.587428900006,0,"IA6LI11","2022_Jan_05_1247","MainTask",12,"Response",5,5,"5_5_V1.png","Reject",0.294642199994996,12,2,"blue"
383.61645690001,1,"IA6LI11","2022_Jan_05_1247","MainTask",12,"Feedback",5,5,"5_5_V1.png","Reject",0.294642199994996,12,2,"blue"
384.621287600006,0.59265460569311,"IA6LI11","2022_Jan_05_1247","MainTask",13,"Fixation",3,7,"7_3_V1.png","Accept",0.406459300007555,15,2,"blue"
385.222045500006,0.406459300007555,"IA6LI11","2022_Jan_05_1247","MainTask",13,"Offer",3,7,"7_3_V1.png","Accept",0.406459300007555,15,2,"blue"
385.628504800014,0,"IA6LI11","2022_Jan_05_1247","MainTask",13,"Response",3,7,"7_3_V1.png","Accept",0.406459300007555,15,2,"blue"
385.653563600004,1,"IA6LI11","2022_Jan_05_1247","MainTask",13,"Feedback",3,7,"7_3_V1.png","Accept",0.406459300007555,15,2,"blue"
386.673394199999,0.533078999142213,"IA6LI11","2022_Jan_05_1247","MainTask",14,"Fixation",1,9,"9_1_V1.png","Reject",0.366406000001007,15,2,"blue"
387.2291826,0.366406000001007,"IA6LI11","2022_Jan_05_1247","MainTask",14,"Offer",1,9,"9_1_V1.png","Reject",0.366406000001007,15,2,"blue"
387.595588600001,0,"IA6LI11","2022_Jan_05_1247","MainTask",14,"Response",1,9,"9_1_V1.png","Reject",0.366406000001007,15,2,"blue"
387.635953600009,1,"IA6LI11","2022_Jan_05_1247","MainTask",14,"Feedback",1,9,"9_1_V1.png","Reject",0.366406000001007,15,2,"blue"
388.640866300004,0.606241249062941,"IA6LI11","2022_Jan_05_1247","MainTask",15,"Fixation",3,7,"7_3_V1.png","Accept",0.391997400001856,18,2,"blue"
389.265093399998,0.391997400001856,"IA6LI11","2022_Jan_05_1247","MainTask",15,"Offer",3,7,"7_3_V1.png","Accept",0.391997400001856,18,2,"blue"
389.6570908,0,"IA6LI11","2022_Jan_05_1247","MainTask",15,"Response",3,7,"7_3_V1.png","Accept",0.391997400001856,18,2,"blue"
389.707286000004,1,"IA6LI11","2022_Jan_05_1247","MainTask",15,"Feedback",3,7,"7_3_V1.png","Accept",0.391997400001856,18,2,"blue"
390.726444900007,0.624095547719142,"IA6LI11","2022_Jan_05_1247","MainTask",16,"Fixation",5,5,"5_5_V1.png","Accept",0.343400099998689,23,2,"blue"
391.361737600004,0.343400099998689,"IA6LI11","2022_Jan_05_1247","MainTask",16,"Offer",5,5,"5_5_V1.png","Accept",0.343400099998689,23,2,"blue"
391.705137700003,0,"IA6LI11","2022_Jan_05_1247","MainTask",16,"Response",5,5,"5_5_V1.png","Accept",0.343400099998689,23,2,"blue"
391.753686800002,1,"IA6LI11","2022_Jan_05_1247","MainTask",16,"Feedback",5,5,"5_5_V1.png","Accept",0.343400099998689,23,2,"blue"
392.761433500011,0.569257667423491,"IA6LI11","2022_Jan_05_1247","MainTask",17,"Fixation",5,5,"5_5_V1.png","Accept",0.33921229999396,28,2,"blue"
393.349937999999,0.33921229999396,"IA6LI11","2022_Jan_05_1247","MainTask",17,"Offer",5,5,"5_5_V1.png","Accept",0.33921229999396,28,2,"blue"
393.689150299993,0,"IA6LI11","2022_Jan_05_1247","MainTask",17,"Response",5,5,"5_5_V1.png","Accept",0.33921229999396,28,2,"blue"
393.730174600001,1,"IA6LI11","2022_Jan_05_1247","MainTask",17,"Feedback",5,5,"5_5_V1.png","Accept",0.33921229999396,28,2,"blue"
394.746304600005,0.543145548237422,"IA6LI11","2022_Jan_05_1247","MainTask",18,"Fixation",5,5,"5_5_V1.png","Reject",0.335800400003791,28,2,"blue"
395.3027076,0.335800400003791,"IA6LI11","2022_Jan_05_1247","MainTask",18,"Offer",5,5,"5_5_V1.png","Reject",0.335800400003791,28,2,"blue"
395.638508000004,0,"IA6LI11","2022_Jan_05_1247","MainTask",18,"Response",5,5,"5_5_V1.png","Reject",0.335800400003791,28,2,"blue"
395.6723566,1,"IA6LI11","2022_Jan_05_1247","MainTask",18,"Feedback",5,5,"5_5_V1.png","Reject",0.335800400003791,28,2,"blue"
396.681504499997,0.693980263791675,"IA6LI11","2022_Jan_05_1247","MainTask",19,"Fixation",3,7,"7_3_V1.png","Accept",0.277436199990916,31,2,"blue"
397.3878195,0.277436199990916,"IA6LI11","2022_Jan_05_1247","MainTask",19,"Offer",3,7,"7_3_V1.png","Accept",0.277436199990916,31,2,"blue"
397.665255699991,0,"IA6LI11","2022_Jan_05_1247","MainTask",19,"Response",3,7,"7_3_V1.png","Accept",0.277436199990916,31,2,"blue"
397.702417400011,1,"IA6LI11","2022_Jan_05_1247","MainTask",19,"Feedback",3,7,"7_3_V1.png","Accept",0.277436199990916,31,2,"blue"
398.716327100003,0.523279460541241,"IA6LI11","2022_Jan_05_1247","MainTask",20,"Fixation",5,5,"5_5_V1.png","Accept",0.274684400006663,36,2,"blue"
399.250768400001,0.274684400006663,"IA6LI11","2022_Jan_05_1247","MainTask",20,"Offer",5,5,"5_5_V1.png","Accept",0.274684400006663,36,2,"blue"
399.525452800008,0,"IA6LI11","2022_Jan_05_1247","MainTask",20,"Response",5,5,"5_5_V1.png","Accept",0.274684400006663,36,2,"blue"
399.558510200004,1,"IA6LI11","2022_Jan_05_1247","MainTask",20,"Feedback",5,5,"5_5_V1.png","Accept",0.274684400006663,36,2,"blue"
400.568237300002,0.628393446261665,"IA6LI11","2022_Jan_05_1247","MainTask",21,"Fixation",3,7,"7_3_V1.png","Accept",0.24537330000021,39,2,"blue"
401.207694099998,0.24537330000021,"IA6LI11","2022_Jan_05_1247","MainTask",21,"Offer",3,7,"7_3_V1.png","Accept",0.24537330000021,39,2,"blue"
401.453067399998,0,"IA6LI11","2022_Jan_05_1247","MainTask",21,"Response",3,7,"7_3_V1.png","Accept",0.24537330000021,39,2,"blue"
401.480800000005,1,"IA6LI11","2022_Jan_05_1247","MainTask",21,"Feedback",3,7,"7_3_V1.png","Accept",0.24537330000021,39,2,"blue"
402.486145700008,0.636042042391131,"IA6LI11","2022_Jan_05_1247","MainTask",22,"Fixation",1,9,"9_1_V1.png","Accept",0.298245800004224,40,2,"blue"
403.142900600011,0.298245800004224,"IA6LI11","2022_Jan_05_1247","MainTask",22,"Offer",1,9,"9_1_V1.png","Accept",0.298245800004224,40,2,"blue"
403.441146400015,0,"IA6LI11","2022_Jan_05_1247","MainTask",22,"Response",1,9,"9_1_V1.png","Accept",0.298245800004224,40,2,"blue"
403.489724700004,1,"IA6LI11","2022_Jan_05_1247","MainTask",22,"Feedback",1,9,"9_1_V1.png","Accept",0.298245800004224,40,2,"blue"
404.504846800002,0.589271438744341,"IA6LI11","2022_Jan_05_1247","MainTask",23,"Fixation",1,9,"9_1_V1.png","Reject",0.243866399992839,40,2,"blue"
405.105665900002,0.243866399992839,"IA6LI11","2022_Jan_05_1247","MainTask",23,"Offer",1,9,"9_1_V1.png","Reject",0.243866399992839,40,2,"blue"
405.349532299995,0,"IA6LI11","2022_Jan_05_1247","MainTask",23,"Response",1,9,"9_1_V1.png","Reject",0.243866399992839,40,2,"blue"
405.3839782,1,"IA6LI11","2022_Jan_05_1247","MainTask",23,"Feedback",1,9,"9_1_V1.png","Reject",0.243866399992839,40,2,"blue"
406.396900699998,0.545350935760178,"IA6LI11","2022_Jan_05_1247","MainTask",24,"Fixation",1,9,"9_1_V1.png","Accept",0.246571299998323,41,2,"blue"
406.962138800009,0.246571299998323,"IA6LI11","2022_Jan_05_1247","MainTask",24,"Offer",1,9,"9_1_V1.png","Accept",0.246571299998323,41,2,"blue"
407.208710100007,0,"IA6LI11","2022_Jan_05_1247","MainTask",24,"Response",1,9,"9_1_V1.png","Accept",0.246571299998323,41,2,"blue"
407.251971400008,1,"IA6LI11","2022_Jan_05_1247","MainTask",24,"Feedback",1,9,"9_1_V1.png","Accept",0.246571299998323,41,2,"blue"
408.25957200001,16.5783865999983,"IA6LI11","2022_Jan_05_1247","Break",NA,NA,NA,NA,NA,NA,NA,NA,2,"blue"
425.864908500007,0.655233528889321,"IA6LI11","2022_Jan_05_1247","MainTask",25,"Fixation",3,7,"7_3_V1.png","Accept",0.40112060001411,44,2,"blue"
426.545607599997,0.40112060001411,"IA6LI11","2022_Jan_05_1247","MainTask",25,"Offer",3,7,"7_3_V1.png","Accept",0.40112060001411,44,2,"blue"
426.946728200011,0,"IA6LI11","2022_Jan_05_1247","MainTask",25,"Response",3,7,"7_3_V1.png","Accept",0.40112060001411,44,2,"blue"
426.986749000003,1,"IA6LI11","2022_Jan_05_1247","MainTask",25,"Feedback",3,7,"7_3_V1.png","Accept",0.40112060001411,44,2,"blue"
428.007830500006,0.69932822106977,"IA6LI11","2022_Jan_05_1247","MainTask",26,"Fixation",3,7,"7_3_V1.png","Accept",0.198655699990923,47,2,"blue"
428.730674699997,0.198655699990923,"IA6LI11","2022_Jan_05_1247","MainTask",26,"Offer",3,7,"7_3_V1.png","Accept",0.198655699990923,47,2,"blue"
428.929330399988,0,"IA6LI11","2022_Jan_05_1247","MainTask",26,"Response",3,7,"7_3_V1.png","Accept",0.198655699990923,47,2,"blue"
428.958937600008,1,"IA6LI11","2022_Jan_05_1247","MainTask",26,"Feedback",3,7,"7_3_V1.png","Accept",0.198655699990923,47,2,"blue"
429.976059000008,0.605773044654542,"IA6LI11","2022_Jan_05_1247","MainTask",27,"Fixation",1,9,"9_1_V1.png","Accept",0.198968699987745,48,2,"blue"
430.594133899998,0.198968699987745,"IA6LI11","2022_Jan_05_1247","MainTask",27,"Offer",1,9,"9_1_V1.png","Accept",0.198968699987745,48,2,"blue"
430.793102599986,0,"IA6LI11","2022_Jan_05_1247","MainTask",27,"Response",1,9,"9_1_V1.png","Accept",0.198968699987745,48,2,"blue"
430.820907500005,1,"IA6LI11","2022_Jan_05_1247","MainTask",27,"Feedback",1,9,"9_1_V1.png","Accept",0.198968699987745,48,2,"blue"
431.827694699998,0.60936651482624,"IA6LI11","2022_Jan_05_1247","MainTask",28,"Fixation",3,7,"7_3_V1.png","Accept",0.16108499999973,51,2,"blue"
432.450309899999,0.16108499999973,"IA6LI11","2022_Jan_05_1247","MainTask",28,"Offer",3,7,"7_3_V1.png","Accept",0.16108499999973,51,2,"blue"
432.611394899999,0,"IA6LI11","2022_Jan_05_1247","MainTask",28,"Response",3,7,"7_3_V1.png","Accept",0.16108499999973,51,2,"blue"
432.641126900009,1,"IA6LI11","2022_Jan_05_1247","MainTask",28,"Feedback",3,7,"7_3_V1.png","Accept",0.16108499999973,51,2,"blue"
433.662228500005,0.619993933089432,"IA6LI11","2022_Jan_05_1247","MainTask",29,"Fixation",5,5,"5_5_V1.png","Accept",0.175098299994715,56,2,"blue"
434.297071399997,0.175098299994715,"IA6LI11","2022_Jan_05_1247","MainTask",29,"Offer",5,5,"5_5_V1.png","Accept",0.175098299994715,56,2,"blue"
434.472169699992,0,"IA6LI11","2022_Jan_05_1247","MainTask",29,"Response",5,5,"5_5_V1.png","Accept",0.175098299994715,56,2,"blue"
434.510127700007,1,"IA6LI11","2022_Jan_05_1247","MainTask",29,"Feedback",5,5,"5_5_V1.png","Accept",0.175098299994715,56,2,"blue"
435.5301855,0.511727095766907,"IA6LI11","2022_Jan_05_1247","MainTask",30,"Fixation",5,5,"5_5_V1.png","Accept",0.206907200001297,61,2,"blue"
436.048620200003,0.206907200001297,"IA6LI11","2022_Jan_05_1247","MainTask",30,"Offer",5,5,"5_5_V1.png","Accept",0.206907200001297,61,2,"blue"
436.255527400004,0,"IA6LI11","2022_Jan_05_1247","MainTask",30,"Response",5,5,"5_5_V1.png","Accept",0.206907200001297,61,2,"blue"
436.293382600008,1,"IA6LI11","2022_Jan_05_1247","MainTask",30,"Feedback",5,5,"5_5_V1.png","Accept",0.206907200001297,61,2,"blue"
437.299027500005,0.549178930706853,"IA6LI11","2022_Jan_05_1247","MainTask",31,"Fixation",3,7,"7_3_V1.png","Accept",0.194770999994944,64,2,"blue"
437.87183660001,0.194770999994944,"IA6LI11","2022_Jan_05_1247","MainTask",31,"Offer",3,7,"7_3_V1.png","Accept",0.194770999994944,64,2,"blue"
438.066607600005,0,"IA6LI11","2022_Jan_05_1247","MainTask",31,"Response",3,7,"7_3_V1.png","Accept",0.194770999994944,64,2,"blue"
438.109198999999,1,"IA6LI11","2022_Jan_05_1247","MainTask",31,"Feedback",3,7,"7_3_V1.png","Accept",0.194770999994944,64,2,"blue"
439.116652199998,0.545977986748216,"IA6LI11","2022_Jan_05_1247","MainTask",32,"Fixation",1,9,"9_1_V1.png","Accept",0.19315030000871,65,2,"blue"
439.688962600005,0.19315030000871,"IA6LI11","2022_Jan_05_1247","MainTask",32,"Offer",1,9,"9_1_V1.png","Accept",0.19315030000871,65,2,"blue"
439.882112900014,0,"IA6LI11","2022_Jan_05_1247","MainTask",32,"Response",1,9,"9_1_V1.png","Accept",0.19315030000871,65,2,"blue"
439.923917799999,1,"IA6LI11","2022_Jan_05_1247","MainTask",32,"Feedback",1,9,"9_1_V1.png","Accept",0.19315030000871,65,2,"blue"
440.934476499999,0.673078607097868,"IA6LI11","2022_Jan_05_1247","MainTask",33,"Fixation",3,7,"7_3_V1.png","Accept",0.171848700003466,68,2,"blue"
441.624311500011,0.171848700003466,"IA6LI11","2022_Jan_05_1247","MainTask",33,"Offer",3,7,"7_3_V1.png","Accept",0.171848700003466,68,2,"blue"
441.796160200014,0,"IA6LI11","2022_Jan_05_1247","MainTask",33,"Response",3,7,"7_3_V1.png","Accept",0.171848700003466,68,2,"blue"
441.845829900005,1,"IA6LI11","2022_Jan_05_1247","MainTask",33,"Feedback",3,7,"7_3_V1.png","Accept",0.171848700003466,68,2,"blue"
442.853188399997,0.619235866235643,"IA6LI11","2022_Jan_05_1247","MainTask",34,"Fixation",5,5,"5_5_V1.png","Accept",0.0631584000075236,73,2,"blue"
443.4882659,0.0631584000075236,"IA6LI11","2022_Jan_05_1247","MainTask",34,"Offer",5,5,"5_5_V1.png","Accept",0.0631584000075236,73,2,"blue"
443.551424300008,0,"IA6LI11","2022_Jan_05_1247","MainTask",34,"Response",5,5,"5_5_V1.png","Accept",0.0631584000075236,73,2,"blue"
443.579740300003,1,"IA6LI11","2022_Jan_05_1247","MainTask",34,"Feedback",5,5,"5_5_V1.png","Accept",0.0631584000075236,73,2,"blue"
444.587854199999,0.564959095549738,"IA6LI11","2022_Jan_05_1247","MainTask",35,"Fixation",3,7,"7_3_V1.png","Accept",0.105893500003731,76,2,"blue"
445.172309500005,0.105893500003731,"IA6LI11","2022_Jan_05_1247","MainTask",35,"Offer",3,7,"7_3_V1.png","Accept",0.105893500003731,76,2,"blue"
445.278203000009,0,"IA6LI11","2022_Jan_05_1247","MainTask",35,"Response",3,7,"7_3_V1.png","Accept",0.105893500003731,76,2,"blue"
445.316968900006,1,"IA6LI11","2022_Jan_05_1247","MainTask",35,"Feedback",3,7,"7_3_V1.png","Accept",0.105893500003731,76,2,"blue"
446.322755800007,0.582037413564995,"IA6LI11","2022_Jan_05_1247","MainTask",36,"Fixation",3,7,"7_3_V1.png","Accept",0.170239899991429,79,2,"blue"
446.924247100003,0.170239899991429,"IA6LI11","2022_Jan_05_1247","MainTask",36,"Offer",3,7,"7_3_V1.png","Accept",0.170239899991429,79,2,"blue"
447.094486999994,0,"IA6LI11","2022_Jan_05_1247","MainTask",36,"Response",3,7,"7_3_V1.png","Accept",0.170239899991429,79,2,"blue"
447.128423700007,1,"IA6LI11","2022_Jan_05_1247","MainTask",36,"Feedback",3,7,"7_3_V1.png","Accept",0.170239899991429,79,2,"blue"
448.140316000005,0.548176312866899,"IA6LI11","2022_Jan_05_1247","MainTask",37,"Fixation",5,5,"5_5_V1.png","Accept",0.197170599989477,84,2,"blue"
448.708990900006,0.197170599989477,"IA6LI11","2022_Jan_05_1247","MainTask",37,"Offer",5,5,"5_5_V1.png","Accept",0.197170599989477,84,2,"blue"
448.906161499995,0,"IA6LI11","2022_Jan_05_1247","MainTask",37,"Response",5,5,"5_5_V1.png","Accept",0.197170599989477,84,2,"blue"
448.943531099998,1,"IA6LI11","2022_Jan_05_1247","MainTask",37,"Feedback",5,5,"5_5_V1.png","Accept",0.197170599989477,84,2,"blue"
449.959307500001,0.558142831723833,"IA6LI11","2022_Jan_05_1247","MainTask",38,"Fixation",3,7,"7_3_V1.png","Accept",0.0882746999996016,87,2,"blue"
450.532078500008,0.0882746999996016,"IA6LI11","2022_Jan_05_1247","MainTask",38,"Offer",3,7,"7_3_V1.png","Accept",0.0882746999996016,87,2,"blue"
450.620353200008,0,"IA6LI11","2022_Jan_05_1247","MainTask",38,"Response",3,7,"7_3_V1.png","Accept",0.0882746999996016,87,2,"blue"
450.6491561,1,"IA6LI11","2022_Jan_05_1247","MainTask",38,"Feedback",3,7,"7_3_V1.png","Accept",0.0882746999996016,87,2,"blue"
451.659939500008,0.571633784766496,"IA6LI11","2022_Jan_05_1247","MainTask",39,"Fixation",5,5,"5_5_V1.png","Accept",0.56260590000602,92,2,"blue"
452.2506058,0.56260590000602,"IA6LI11","2022_Jan_05_1247","MainTask",39,"Offer",5,5,"5_5_V1.png","Accept",0.56260590000602,92,2,"blue"
452.813211700006,0,"IA6LI11","2022_Jan_05_1247","MainTask",39,"Response",5,5,"5_5_V1.png","Accept",0.56260590000602,92,2,"blue"
452.8547788,1,"IA6LI11","2022_Jan_05_1247","MainTask",39,"Feedback",5,5,"5_5_V1.png","Accept",0.56260590000602,92,2,"blue"
453.862177200004,0.574905627603776,"IA6LI11","2022_Jan_05_1247","MainTask",40,"Fixation",5,5,"5_5_V1.png","Accept",0.538853999998537,97,2,"blue"
454.449799499998,0.538853999998537,"IA6LI11","2022_Jan_05_1247","MainTask",40,"Offer",5,5,"5_5_V1.png","Accept",0.538853999998537,97,2,"blue"
454.988653499997,0,"IA6LI11","2022_Jan_05_1247","MainTask",40,"Response",5,5,"5_5_V1.png","Accept",0.538853999998537,97,2,"blue"
455.01061930001,1,"IA6LI11","2022_Jan_05_1247","MainTask",40,"Feedback",5,5,"5_5_V1.png","Accept",0.538853999998537,97,2,"blue"
456.031046600008,0.511750763852199,"IA6LI11","2022_Jan_05_1247","MainTask",41,"Fixation",5,5,"5_5_V1.png","Accept",1.309917400009,102,2,"blue"
456.5536918,1.309917400009,"IA6LI11","2022_Jan_05_1247","MainTask",41,"Offer",5,5,"5_5_V1.png","Accept",1.309917400009,102,2,"blue"
457.863609200009,0,"IA6LI11","2022_Jan_05_1247","MainTask",41,"Response",5,5,"5_5_V1.png","Accept",1.309917400009,102,2,"blue"
457.891591899999,1,"IA6LI11","2022_Jan_05_1247","MainTask",41,"Feedback",5,5,"5_5_V1.png","Accept",1.309917400009,102,2,"blue"
458.900279499998,0.699577892858168,"IA6LI11","2022_Jan_05_1247","MainTask",42,"Fixation",5,5,"5_5_V1.png","Accept",0.309074100005091,107,2,"blue"
459.623317400008,0.309074100005091,"IA6LI11","2022_Jan_05_1247","MainTask",42,"Offer",5,5,"5_5_V1.png","Accept",0.309074100005091,107,2,"blue"
459.932391500013,0,"IA6LI11","2022_Jan_05_1247","MainTask",42,"Response",5,5,"5_5_V1.png","Accept",0.309074100005091,107,2,"blue"
459.970120400001,1,"IA6LI11","2022_Jan_05_1247","MainTask",42,"Feedback",5,5,"5_5_V1.png","Accept",0.309074100005091,107,2,"blue"
460.985053099997,0.666072169876922,"IA6LI11","2022_Jan_05_1247","MainTask",43,"Fixation",1,9,"9_1_V1.png","Accept",0.224521500000264,108,2,"blue"
461.66911290001,0.224521500000264,"IA6LI11","2022_Jan_05_1247","MainTask",43,"Offer",1,9,"9_1_V1.png","Accept",0.224521500000264,108,2,"blue"
461.89363440001,0,"IA6LI11","2022_Jan_05_1247","MainTask",43,"Response",1,9,"9_1_V1.png","Accept",0.224521500000264,108,2,"blue"
461.937675900001,1,"IA6LI11","2022_Jan_05_1247","MainTask",43,"Feedback",1,9,"9_1_V1.png","Accept",0.224521500000264,108,2,"blue"
462.953136900003,0.510972643531417,"IA6LI11","2022_Jan_05_1247","MainTask",44,"Fixation",1,9,"9_1_V1.png","Accept",0.215353899999172,109,2,"blue"
463.475890400005,0.215353899999172,"IA6LI11","2022_Jan_05_1247","MainTask",44,"Offer",1,9,"9_1_V1.png","Accept",0.215353899999172,109,2,"blue"
463.691244300004,0,"IA6LI11","2022_Jan_05_1247","MainTask",44,"Response",1,9,"9_1_V1.png","Accept",0.215353899999172,109,2,"blue"
463.725258699997,1,"IA6LI11","2022_Jan_05_1247","MainTask",44,"Feedback",1,9,"9_1_V1.png","Accept",0.215353899999172,109,2,"blue"
464.737909000003,0.620639661557282,"IA6LI11","2022_Jan_05_1247","MainTask",45,"Fixation",5,5,"5_5_V1.png","Accept",0.106111199987936,114,2,"blue"
465.3751625,0.106111199987936,"IA6LI11","2022_Jan_05_1247","MainTask",45,"Offer",5,5,"5_5_V1.png","Accept",0.106111199987936,114,2,"blue"
465.481273699988,0,"IA6LI11","2022_Jan_05_1247","MainTask",45,"Response",5,5,"5_5_V1.png","Accept",0.106111199987936,114,2,"blue"
465.526876000004,1,"IA6LI11","2022_Jan_05_1247","MainTask",45,"Feedback",5,5,"5_5_V1.png","Accept",0.106111199987936,114,2,"blue"
466.539431099998,0.569949811053403,"IA6LI11","2022_Jan_05_1247","MainTask",46,"Fixation",5,5,"5_5_V1.png","Accept",0.111069799997495,119,2,"blue"
467.124320400006,0.111069799997495,"IA6LI11","2022_Jan_05_1247","MainTask",46,"Offer",5,5,"5_5_V1.png","Accept",0.111069799997495,119,2,"blue"
467.235390200004,0,"IA6LI11","2022_Jan_05_1247","MainTask",46,"Response",5,5,"5_5_V1.png","Accept",0.111069799997495,119,2,"blue"
467.281209699999,1,"IA6LI11","2022_Jan_05_1247","MainTask",46,"Feedback",5,5,"5_5_V1.png","Accept",0.111069799997495,119,2,"blue"
468.290737100004,0.605383429414749,"IA6LI11","2022_Jan_05_1247","MainTask",47,"Fixation",5,5,"5_5_V1.png","Accept",0.502914600001532,124,2,"blue"
468.909283700006,0.502914600001532,"IA6LI11","2022_Jan_05_1247","MainTask",47,"Offer",5,5,"5_5_V1.png","Accept",0.502914600001532,124,2,"blue"
469.412198300008,0,"IA6LI11","2022_Jan_05_1247","MainTask",47,"Response",5,5,"5_5_V1.png","Accept",0.502914600001532,124,2,"blue"
469.449338999999,1,"IA6LI11","2022_Jan_05_1247","MainTask",47,"Feedback",5,5,"5_5_V1.png","Accept",0.502914600001532,124,2,"blue"
470.459796399999,0.543708716283751,"IA6LI11","2022_Jan_05_1247","MainTask",48,"Fixation",3,7,"7_3_V1.png","Accept",0.22534540000197,127,2,"blue"
471.010750100002,0.22534540000197,"IA6LI11","2022_Jan_05_1247","MainTask",48,"Offer",3,7,"7_3_V1.png","Accept",0.22534540000197,127,2,"blue"
471.236095500004,0,"IA6LI11","2022_Jan_05_1247","MainTask",48,"Response",3,7,"7_3_V1.png","Accept",0.22534540000197,127,2,"blue"
471.273837400004,1,"IA6LI11","2022_Jan_05_1247","MainTask",48,"Feedback",3,7,"7_3_V1.png","Accept",0.22534540000197,127,2,"blue"
472.29433070001,0.559823412775358,"IA6LI11","2022_Jan_05_1247","MainTask",49,"Fixation",5,5,"5_5_V1.png","Accept",0.179869900006452,132,2,"blue"
472.867390900006,0.179869900006452,"IA6LI11","2022_Jan_05_1247","MainTask",49,"Offer",5,5,"5_5_V1.png","Accept",0.179869900006452,132,2,"blue"
473.047260800012,0,"IA6LI11","2022_Jan_05_1247","MainTask",49,"Response",5,5,"5_5_V1.png","Accept",0.179869900006452,132,2,"blue"
473.100736799999,1,"IA6LI11","2022_Jan_05_1247","MainTask",49,"Feedback",5,5,"5_5_V1.png","Accept",0.179869900006452,132,2,"blue"
474.112722200007,4.3636766999989,"IA6LI11","2022_Jan_05_1247","Break",NA,NA,NA,NA,NA,NA,NA,NA,2,"blue"
479.508639000007,0.518843207154935,"IA6LI11","2022_Jan_05_1247","MainTask",50,"Fixation",5,5,"5_5_V1.png","Accept",0.324915199991665,137,2,"blue"
480.040279599998,0.324915199991665,"IA6LI11","2022_Jan_05_1247","MainTask",50,"Offer",5,5,"5_5_V1.png","Accept",0.324915199991665,137,2,"blue"
480.36519479999,0,"IA6LI11","2022_Jan_05_1247","MainTask",50,"Response",5,5,"5_5_V1.png","Accept",0.324915199991665,137,2,"blue"
480.407335600001,1,"IA6LI11","2022_Jan_05_1247","MainTask",50,"Feedback",5,5,"5_5_V1.png","Accept",0.324915199991665,137,2,"blue"
481.418745100003,0.530500910524507,"IA6LI11","2022_Jan_05_1247","MainTask",51,"Fixation",3,7,"7_3_V1.png","Accept",0.132542999999714,140,2,"blue"
481.969931300002,0.132542999999714,"IA6LI11","2022_Jan_05_1247","MainTask",51,"Offer",3,7,"7_3_V1.png","Accept",0.132542999999714,140,2,"blue"
482.102474300002,0,"IA6LI11","2022_Jan_05_1247","MainTask",51,"Response",3,7,"7_3_V1.png","Accept",0.132542999999714,140,2,"blue"
482.139644399998,1,"IA6LI11","2022_Jan_05_1247","MainTask",51,"Feedback",3,7,"7_3_V1.png","Accept",0.132542999999714,140,2,"blue"
483.153262899999,0.690947859351526,"IA6LI11","2022_Jan_05_1247","MainTask",52,"Fixation",1,9,"9_1_V1.png","Accept",0.0529924000002211,141,2,"blue"
483.860490300009,0.0529924000002211,"IA6LI11","2022_Jan_05_1247","MainTask",52,"Offer",1,9,"9_1_V1.png","Accept",0.0529924000002211,141,2,"blue"
483.913482700009,0,"IA6LI11","2022_Jan_05_1247","MainTask",52,"Response",1,9,"9_1_V1.png","Accept",0.0529924000002211,141,2,"blue"
483.97020950001,1,"IA6LI11","2022_Jan_05_1247","MainTask",52,"Feedback",1,9,"9_1_V1.png","Accept",0.0529924000002211,141,2,"blue"
484.987924500005,0.673580746624187,"IA6LI11","2022_Jan_05_1247","MainTask",53,"Fixation",1,9,"9_1_V1.png","Accept",0.439734300001874,142,2,"blue"
485.677441599997,0.439734300001874,"IA6LI11","2022_Jan_05_1247","MainTask",53,"Offer",1,9,"9_1_V1.png","Accept",0.439734300001874,142,2,"blue"
486.117175899999,0,"IA6LI11","2022_Jan_05_1247","MainTask",53,"Response",1,9,"9_1_V1.png","Accept",0.439734300001874,142,2,"blue"
486.157581100008,1,"IA6LI11","2022_Jan_05_1247","MainTask",53,"Feedback",1,9,"9_1_V1.png","Accept",0.439734300001874,142,2,"blue"
487.173406900009,0.517689461770905,"IA6LI11","2022_Jan_05_1247","MainTask",54,"Fixation",3,7,"7_3_V1.png","Accept",0.223056300004828,145,2,"blue"
487.713288300001,0.223056300004828,"IA6LI11","2022_Jan_05_1247","MainTask",54,"Offer",3,7,"7_3_V1.png","Accept",0.223056300004828,145,2,"blue"
487.936344600006,0,"IA6LI11","2022_Jan_05_1247","MainTask",54,"Response",3,7,"7_3_V1.png","Accept",0.223056300004828,145,2,"blue"
487.985071300005,1,"IA6LI11","2022_Jan_05_1247","MainTask",54,"Feedback",3,7,"7_3_V1.png","Accept",0.223056300004828,145,2,"blue"
488.991547500002,0.565498671533437,"IA6LI11","2022_Jan_05_1247","MainTask",55,"Fixation",1,9,"9_1_V1.png","Accept",0.229265100002522,146,2,"blue"
489.580092100005,0.229265100002522,"IA6LI11","2022_Jan_05_1247","MainTask",55,"Offer",1,9,"9_1_V1.png","Accept",0.229265100002522,146,2,"blue"
489.809357200008,0,"IA6LI11","2022_Jan_05_1247","MainTask",55,"Response",1,9,"9_1_V1.png","Accept",0.229265100002522,146,2,"blue"
489.838688400007,1,"IA6LI11","2022_Jan_05_1247","MainTask",55,"Feedback",1,9,"9_1_V1.png","Accept",0.229265100002522,146,2,"blue"
490.859817899996,0.597927765304251,"IA6LI11","2022_Jan_05_1247","MainTask",56,"Fixation",1,9,"9_1_V1.png","Accept",0.204115099986666,147,2,"blue"
491.478298700007,0.204115099986666,"IA6LI11","2022_Jan_05_1247","MainTask",56,"Offer",1,9,"9_1_V1.png","Accept",0.204115099986666,147,2,"blue"
491.682413799994,0,"IA6LI11","2022_Jan_05_1247","MainTask",56,"Response",1,9,"9_1_V1.png","Accept",0.204115099986666,147,2,"blue"
491.710272900003,1,"IA6LI11","2022_Jan_05_1247","MainTask",56,"Feedback",1,9,"9_1_V1.png","Accept",0.204115099986666,147,2,"blue"
492.727545200003,0.641692225194915,"IA6LI11","2022_Jan_05_1247","MainTask",57,"Fixation",1,9,"9_1_V1.png","Accept",0.0016808999935165,148,2,"blue"
493.378638800001,0.0016808999935165,"IA6LI11","2022_Jan_05_1247","MainTask",57,"Offer",1,9,"9_1_V1.png","Accept",0.0016808999935165,148,2,"blue"
493.380319699995,0,"IA6LI11","2022_Jan_05_1247","MainTask",57,"Response",1,9,"9_1_V1.png","Accept",0.0016808999935165,148,2,"blue"
493.403797400009,1,"IA6LI11","2022_Jan_05_1247","MainTask",57,"Feedback",1,9,"9_1_V1.png","Accept",0.0016808999935165,148,2,"blue"
494.4127878,0.654653066410666,"IA6LI11","2022_Jan_05_1247","MainTask",58,"Fixation",1,9,"9_1_V1.png","Accept",0.249482599989278,149,2,"blue"
495.0850947,0.249482599989278,"IA6LI11","2022_Jan_05_1247","MainTask",58,"Offer",1,9,"9_1_V1.png","Accept",0.249482599989278,149,2,"blue"
495.334577299989,0,"IA6LI11","2022_Jan_05_1247","MainTask",58,"Response",1,9,"9_1_V1.png","Accept",0.249482599989278,149,2,"blue"
495.36360930001,1,"IA6LI11","2022_Jan_05_1247","MainTask",58,"Feedback",1,9,"9_1_V1.png","Accept",0.249482599989278,149,2,"blue"
496.381118400008,0.598695811269127,"IA6LI11","2022_Jan_05_1247","MainTask",59,"Fixation",1,9,"9_1_V1.png","Accept",0.145664499999839,150,2,"blue"
497.003931500003,0.145664499999839,"IA6LI11","2022_Jan_05_1247","MainTask",59,"Offer",1,9,"9_1_V1.png","Accept",0.145664499999839,150,2,"blue"
497.149596000003,0,"IA6LI11","2022_Jan_05_1247","MainTask",59,"Response",1,9,"9_1_V1.png","Accept",0.145664499999839,150,2,"blue"
497.182996400006,1,"IA6LI11","2022_Jan_05_1247","MainTask",59,"Feedback",1,9,"9_1_V1.png","Accept",0.145664499999839,150,2,"blue"
498.199215500004,0.569643221243858,"IA6LI11","2022_Jan_05_1247","MainTask",60,"Fixation",1,9,"9_1_V1.png","Accept",0.237254499996197,151,2,"blue"
498.78428800001,0.237254499996197,"IA6LI11","2022_Jan_05_1247","MainTask",60,"Offer",1,9,"9_1_V1.png","Accept",0.237254499996197,151,2,"blue"
499.021542500006,0,"IA6LI11","2022_Jan_05_1247","MainTask",60,"Response",1,9,"9_1_V1.png","Accept",0.237254499996197,151,2,"blue"
499.056922800009,1,"IA6LI11","2022_Jan_05_1247","MainTask",60,"Feedback",1,9,"9_1_V1.png","Accept",0.237254499996197,151,2,"blue"
500.074674200005,0.570347425034182,"IA6LI11","2022_Jan_05_1247","MainTask",61,"Fixation",3,7,"7_3_V1.png","Accept",0.164746499998728,154,2,"blue"
500.652399900006,0.164746499998728,"IA6LI11","2022_Jan_05_1247","MainTask",61,"Offer",3,7,"7_3_V1.png","Accept",0.164746499998728,154,2,"blue"
500.817146400005,0,"IA6LI11","2022_Jan_05_1247","MainTask",61,"Response",3,7,"7_3_V1.png","Accept",0.164746499998728,154,2,"blue"
500.8667804,1,"IA6LI11","2022_Jan_05_1247","MainTask",61,"Feedback",3,7,"7_3_V1.png","Accept",0.164746499998728,154,2,"blue"
501.885081900007,0.553451762873735,"IA6LI11","2022_Jan_05_1247","MainTask",62,"Fixation",1,9,"9_1_V1.png","Accept",0.166570800007321,155,2,"blue"
502.458998000002,0.166570800007321,"IA6LI11","2022_Jan_05_1247","MainTask",62,"Offer",1,9,"9_1_V1.png","Accept",0.166570800007321,155,2,"blue"
502.625568800009,0,"IA6LI11","2022_Jan_05_1247","MainTask",62,"Response",1,9,"9_1_V1.png","Accept",0.166570800007321,155,2,"blue"
502.657178900001,1,"IA6LI11","2022_Jan_05_1247","MainTask",62,"Feedback",1,9,"9_1_V1.png","Accept",0.166570800007321,155,2,"blue"
503.6702487,0.509116733022824,"IA6LI11","2022_Jan_05_1247","MainTask",63,"Fixation",3,7,"7_3_V1.png","Accept",0.180008700001054,158,2,"blue"
504.194148499999,0.180008700001054,"IA6LI11","2022_Jan_05_1247","MainTask",63,"Offer",3,7,"7_3_V1.png","Accept",0.180008700001054,158,2,"blue"
504.3741572,0,"IA6LI11","2022_Jan_05_1247","MainTask",63,"Response",3,7,"7_3_V1.png","Accept",0.180008700001054,158,2,"blue"
504.403712700005,1,"IA6LI11","2022_Jan_05_1247","MainTask",63,"Feedback",3,7,"7_3_V1.png","Accept",0.180008700001054,158,2,"blue"
505.416639700008,0.655912864748374,"IA6LI11","2022_Jan_05_1247","MainTask",64,"Fixation",5,5,"5_5_V1.png","Accept",0.0415089000016451,163,2,"blue"
506.095010800011,0.0415089000016451,"IA6LI11","2022_Jan_05_1247","MainTask",64,"Offer",5,5,"5_5_V1.png","Accept",0.0415089000016451,163,2,"blue"
506.136519700013,0,"IA6LI11","2022_Jan_05_1247","MainTask",64,"Response",5,5,"5_5_V1.png","Accept",0.0415089000016451,163,2,"blue"
506.182144999999,1,"IA6LI11","2022_Jan_05_1247","MainTask",64,"Feedback",5,5,"5_5_V1.png","Accept",0.0415089000016451,163,2,"blue"
507.19022650001,0.599836725236835,"IA6LI11","2022_Jan_05_1247","MainTask",65,"Fixation",1,9,"9_1_V1.png","Accept",0.130927000005613,164,2,"blue"
507.808482400011,0.130927000005613,"IA6LI11","2022_Jan_05_1247","MainTask",65,"Offer",1,9,"9_1_V1.png","Accept",0.130927000005613,164,2,"blue"
507.939409400017,0,"IA6LI11","2022_Jan_05_1247","MainTask",65,"Response",1,9,"9_1_V1.png","Accept",0.130927000005613,164,2,"blue"
507.994127600003,1,"IA6LI11","2022_Jan_05_1247","MainTask",65,"Feedback",1,9,"9_1_V1.png","Accept",0.130927000005613,164,2,"blue"
509.008108800001,0.64663183442066,"IA6LI11","2022_Jan_05_1247","MainTask",66,"Fixation",1,9,"9_1_V1.png","Accept",0.20421019999776,165,2,"blue"
509.680518599998,0.20421019999776,"IA6LI11","2022_Jan_05_1247","MainTask",66,"Offer",1,9,"9_1_V1.png","Accept",0.20421019999776,165,2,"blue"
509.884728799996,0,"IA6LI11","2022_Jan_05_1247","MainTask",66,"Response",1,9,"9_1_V1.png","Accept",0.20421019999776,165,2,"blue"
509.923499299999,1,"IA6LI11","2022_Jan_05_1247","MainTask",66,"Feedback",1,9,"9_1_V1.png","Accept",0.20421019999776,165,2,"blue"
510.943585100002,0.524704249841406,"IA6LI11","2022_Jan_05_1247","MainTask",67,"Fixation",3,7,"7_3_V1.png","Accept",0.199049200004083,168,2,"blue"
511.483129800006,0.199049200004083,"IA6LI11","2022_Jan_05_1247","MainTask",67,"Offer",3,7,"7_3_V1.png","Accept",0.199049200004083,168,2,"blue"
511.68217900001,0,"IA6LI11","2022_Jan_05_1247","MainTask",67,"Response",3,7,"7_3_V1.png","Accept",0.199049200004083,168,2,"blue"
511.73286850001,1,"IA6LI11","2022_Jan_05_1247","MainTask",67,"Feedback",3,7,"7_3_V1.png","Accept",0.199049200004083,168,2,"blue"
512.744496700005,0.60646273842883,"IA6LI11","2022_Jan_05_1247","MainTask",68,"Fixation",1,9,"9_1_V1.png","Accept",0.0957930999866221,169,2,"blue"
513.367325900006,0.0957930999866221,"IA6LI11","2022_Jan_05_1247","MainTask",68,"Offer",1,9,"9_1_V1.png","Accept",0.0957930999866221,169,2,"blue"
513.463118999993,0,"IA6LI11","2022_Jan_05_1247","MainTask",68,"Response",1,9,"9_1_V1.png","Accept",0.0957930999866221,169,2,"blue"
513.505765200011,1,"IA6LI11","2022_Jan_05_1247","MainTask",68,"Feedback",1,9,"9_1_V1.png","Accept",0.0957930999866221,169,2,"blue"
514.512890600003,0.584008547023109,"IA6LI11","2022_Jan_05_1247","MainTask",69,"Fixation",1,9,"9_1_V1.png","Accept",0.0782248000032268,170,2,"blue"
515.117971400003,0.0782248000032268,"IA6LI11","2022_Jan_05_1247","MainTask",69,"Offer",1,9,"9_1_V1.png","Accept",0.0782248000032268,170,2,"blue"
515.196196200006,0,"IA6LI11","2022_Jan_05_1247","MainTask",69,"Response",1,9,"9_1_V1.png","Accept",0.0782248000032268,170,2,"blue"
515.2361466,1,"IA6LI11","2022_Jan_05_1247","MainTask",69,"Feedback",1,9,"9_1_V1.png","Accept",0.0782248000032268,170,2,"blue"
516.247337200009,0.641206758803517,"IA6LI11","2022_Jan_05_1247","MainTask",70,"Fixation",5,5,"5_5_V1.png","Accept",0.193421400006628,175,2,"blue"
516.903900200006,0.193421400006628,"IA6LI11","2022_Jan_05_1247","MainTask",70,"Offer",5,5,"5_5_V1.png","Accept",0.193421400006628,175,2,"blue"
517.097321600013,0,"IA6LI11","2022_Jan_05_1247","MainTask",70,"Response",5,5,"5_5_V1.png","Accept",0.193421400006628,175,2,"blue"
517.152584099997,1,"IA6LI11","2022_Jan_05_1247","MainTask",70,"Feedback",5,5,"5_5_V1.png","Accept",0.193421400006628,175,2,"blue"
518.165836800006,0.577068419536046,"IA6LI11","2022_Jan_05_1247","MainTask",71,"Fixation",3,7,"7_3_V1.png","Accept",0.317865699995309,178,2,"blue"
518.750808900004,0.317865699995309,"IA6LI11","2022_Jan_05_1247","MainTask",71,"Offer",3,7,"7_3_V1.png","Accept",0.317865699995309,178,2,"blue"
519.068674599999,0,"IA6LI11","2022_Jan_05_1247","MainTask",71,"Response",3,7,"7_3_V1.png","Accept",0.317865699995309,178,2,"blue"
519.105797800003,1,"IA6LI11","2022_Jan_05_1247","MainTask",71,"Feedback",3,7,"7_3_V1.png","Accept",0.317865699995309,178,2,"blue"
520.117478,0.636727884257751,"IA6LI11","2022_Jan_05_1247","MainTask",72,"Fixation",3,7,"7_3_V1.png","Reject",0.282981800002744,178,2,"blue"
520.768148600007,0.282981800002744,"IA6LI11","2022_Jan_05_1247","MainTask",72,"Offer",3,7,"7_3_V1.png","Reject",0.282981800002744,178,2,"blue"
521.05113040001,0,"IA6LI11","2022_Jan_05_1247","MainTask",72,"Response",3,7,"7_3_V1.png","Reject",0.282981800002744,178,2,"blue"
521.091200900002,1,"IA6LI11","2022_Jan_05_1247","MainTask",72,"Feedback",3,7,"7_3_V1.png","Reject",0.282981800002744,178,2,"blue"
522.102639300007,0.561230534708409,"IA6LI11","2022_Jan_05_1247","MainTask",73,"Fixation",1,9,"9_1_V1.png","Accept",0.18999790000089,179,2,"blue"
522.670468099997,0.18999790000089,"IA6LI11","2022_Jan_05_1247","MainTask",73,"Offer",1,9,"9_1_V1.png","Accept",0.18999790000089,179,2,"blue"
522.860465999998,0,"IA6LI11","2022_Jan_05_1247","MainTask",73,"Response",1,9,"9_1_V1.png","Accept",0.18999790000089,179,2,"blue"
522.8937725,1,"IA6LI11","2022_Jan_05_1247","MainTask",73,"Feedback",1,9,"9_1_V1.png","Accept",0.18999790000089,179,2,"blue"
523.903627799999,0.528772068228821,"IA6LI11","2022_Jan_05_1247","MainTask",74,"Fixation",5,5,"5_5_V1.png","Accept",0.237680999998702,184,2,"blue"
524.438678000006,0.237680999998702,"IA6LI11","2022_Jan_05_1247","MainTask",74,"Offer",5,5,"5_5_V1.png","Accept",0.237680999998702,184,2,"blue"
524.676359000005,0,"IA6LI11","2022_Jan_05_1247","MainTask",74,"Response",5,5,"5_5_V1.png","Accept",0.237680999998702,184,2,"blue"
524.718605600006,1,"IA6LI11","2022_Jan_05_1247","MainTask",74,"Feedback",5,5,"5_5_V1.png","Accept",0.237680999998702,184,2,"blue"
