InstructionText,Offertype,OfferSelf,OfferOther,ConditionTrigger,ProposerLoop.thisRepN,ProposerLoop.thisTrialN,ProposerLoop.thisN,ProposerLoop.thisIndex,InstrReceiverLoop.thisRepN,InstrReceiverLoop.thisTrialN,InstrReceiverLoop.thisN,InstrReceiverLoop.thisIndex,PracticeLoop.thisRepN,PracticeLoop.thisTrialN,PracticeLoop.thisN,PracticeLoop.thisIndex,trials.thisRepN,trials.thisTrialN,trials.thisN,trials.thisIndex,response_accept,response_reject,color_subject,color_other,OfferProposers.started,OfferProposers.stopped,proposer_resp.keys,proposer_resp.rt,proposer_resp.started,proposer_resp.stopped,example.started,example.stopped,fixduration,fixationcross.started,fixationcross.stopped,Presented_Offer,offerSlide_pract.started,offerSlide_pract.stopped,choiceprac.keys,choiceprac.rt,choiceprac.started,choiceprac.stopped,FB_tooSlow_pract.started,FB_tooSlow_pract.stopped,feedback_slide_pract.started,feedback_slide_pract.stopped,MoneyWon,offerSlide.started,offerSlide.stopped,choice.keys,choice.rt,choice.started,choice.stopped,Square.started,Square.stopped,tooSlowSlide.started,tooSlowSlide.stopped,feedback_slide.started,feedback_slide.stopped,Square2.started,Square2.stopped,break_slide.started,break_slide.stopped,break_response.keys,break_response.started,break_response.stopped,break_response.rt,FeedbackMoney.started,FeedbackMoney.stopped,Amount.started,Amount.stopped,participant,session,EEGPort,LogFilesFolder,date,expName,psychopyVersion,frameRate,
"







Bitte Teilen Sie nun den Betrag von 10 Credits auf, wie Sie ihn aufteilen würden, wenn der/die Empfänger/in darüber entscheiden kann, ob die Aufteilung zugeteilt wird.
Dabei haben Sie nur eine Aufteilung des Betrages, bis der/die Empfänger/in endgültig darüber entscheidet.
Dieses Angebot wird jedem/r Empfänger/in nur einmal vorgelegt.

Se können drei verschiedene Angebote machen:
(1) Sie bieten 1, und behalten 9 Credits.
(2) Sie bieten 5, und behalten 5 Credits.
(3) Sie bieten 3, und behalten 7 Credits.

Sie wählen Ihr Angebot mit der entsprechenden Taste (1, 2, 3) auf der Tastatur.




Weiter mit Taste 1.






",,,,,0,0,0,0,,,,,,,,,,,,,2,4,blau,rot,109.34755790000781,None,2,36.82423120000749,109.45521070000541,None,,,,,,,,,,,,,,,,,,,,,,,,,,,,,,,,,,,,,,,,,,IA6LI11,1,Serial_COM3,C:\Users\EEG\Desktop\FINALCoScienceTasksLogfiles\,2022_Jan_05_1247,UltimatumGame,2020.1.3,60.09005095049733,
"Bitte wählen Sie Ihr erstes von drei Angeboten mit der Taste 1, 2 oder 3.",,,,,0,1,1,1,,,,,,,,,,,,,,,,,146.3329068000021,None,2,6.144668700013426,146.5026399000053,None,,,,,,,,,,,,,,,,,,,,,,,,,,,,,,,,,,,,,,,,,,IA6LI11,1,Serial_COM3,C:\Users\EEG\Desktop\FINALCoScienceTasksLogfiles\,2022_Jan_05_1247,UltimatumGame,2020.1.3,60.09005095049733,
"Bitte wählen Sie Ihr zweites von drei Angeboten mit der Taste 1, 2 oder 3.",,,,,0,2,2,2,,,,,,,,,,,,,,,,,152.70045550000214,None,2,2.910648900011438,152.87284710000677,None,,,,,,,,,,,,,,,,,,,,,,,,,,,,,,,,,,,,,,,,,,IA6LI11,1,Serial_COM3,C:\Users\EEG\Desktop\FINALCoScienceTasksLogfiles\,2022_Jan_05_1247,UltimatumGame,2020.1.3,60.09005095049733,
"Bitte wählen Sie Ihr drittes und letzes Angebot mit der Taste 1, 2 oder 3.",,,,,0,3,3,3,,,,,,,,,,,,,,,,,155.84566430000996,None,2,8.059152799993171,156.02837349999754,None,,,,,,,,,,,,,,,,,,,,,,,,,,,,,,,,,,,,,,,,,,IA6LI11,1,Serial_COM3,C:\Users\EEG\Desktop\FINALCoScienceTasksLogfiles\,2022_Jan_05_1247,UltimatumGame,2020.1.3,60.09005095049733,
,Offer2,5,5,2,,,,,,,,,0,0,0,1,,,,,,,,,,,,,,,264.99413130000175,None,0.6454499107257179,296.293875000003,None,5_5_V1.png,296.9531253000023,None,4,0.5490092999971239,296.9531253000023,None,None,None,297.5358494000102,None,,,,,,,,,,,,,,,,,,,,,,,,,,IA6LI11,1,Serial_COM3,C:\Users\EEG\Desktop\FINALCoScienceTasksLogfiles\,2022_Jan_05_1247,UltimatumGame,2020.1.3,60.09005095049733,
,Offer3,3,7,3,,,,,,,,,0,1,1,2,,,,,,,,,,,,,,,,,0.5128218843454012,298.54672640000354,None,7_3_V1.png,299.0685738000029,None,4,0.3197743999917293,299.0685738000029,None,None,None,299.42322460000287,None,,,,,,,,,,,,,,,,,,,,,,,,,,IA6LI11,1,Serial_COM3,C:\Users\EEG\Desktop\FINALCoScienceTasksLogfiles\,2022_Jan_05_1247,UltimatumGame,2020.1.3,60.09005095049733,
,Offer1,1,9,1,,,,,,,,,0,2,2,0,,,,,,,,,,,,,,,,,0.5499844841338823,300.43197269999655,None,9_1_V1.png,301.0027790000022,None,2,0.3533671999903163,301.0027790000022,None,None,None,301.38589770000544,None,,,,,,,,,,,,,,,,,,,,,,,,,,IA6LI11,1,Serial_COM3,C:\Users\EEG\Desktop\FINALCoScienceTasksLogfiles\,2022_Jan_05_1247,UltimatumGame,2020.1.3,60.09005095049733,
,Offer1,1,9,1,,,,,,,,,1,0,3,0,,,,,,,,,,,,,,,,,0.5117154319180658,302.3997345000098,None,9_1_V1.png,302.92029210001056,None,4,0.3359978000080446,302.92029210001056,None,None,None,303.28833670000313,None,,,,,,,,,,,,,,,,,,,,,,,,,,IA6LI11,1,Serial_COM3,C:\Users\EEG\Desktop\FINALCoScienceTasksLogfiles\,2022_Jan_05_1247,UltimatumGame,2020.1.3,60.09005095049733,
,Offer3,3,7,3,,,,,,,,,1,1,4,2,,,,,,,,,,,,,,,,,0.57422122217111,304.30174969999644,None,7_3_V1.png,304.88571650000813,None,2,0.2989357999904314,304.88571650000813,None,None,None,305.214275300008,None,,,,,,,,,,,,,,,,,,,,,,,,,,IA6LI11,1,Serial_COM3,C:\Users\EEG\Desktop\FINALCoScienceTasksLogfiles\,2022_Jan_05_1247,UltimatumGame,2020.1.3,60.09005095049733,
,Offer2,5,5,2,,,,,,,,,1,2,5,1,,,,,,,,,,,,,,,,,0.522770585545845,306.2197776999965,None,5_5_V1.png,306.7640035000077,None,2,0.3046436000004178,306.7640035000077,None,None,None,307.093498000002,None,,,,,,,,,,,,,,,,,,,,,,,,,,IA6LI11,1,Serial_COM3,C:\Users\EEG\Desktop\FINALCoScienceTasksLogfiles\,2022_Jan_05_1247,UltimatumGame,2020.1.3,60.09005095049733,
,Offer2,5,5,2,,,,,,,,,,,,,0,0,0,1,,,,,,,,,,,,,0.5740588500115167,354.42135220000637,None,5_5_V1.png,,,,,,,,,,,0,355.01644790000864,None,4,0.5941938000032678,355.01644790000864,None,355.01644790000864,None,None,None,355.64936670000316,None,355.64936670000316,None,None,None,None,None,None,,,,,,IA6LI11,1,Serial_COM3,C:\Users\EEG\Desktop\FINALCoScienceTasksLogfiles\,2022_Jan_05_1247,UltimatumGame,2020.1.3,60.09005095049733,
,Offer1,1,9,1,,,,,,,,,,,,,0,1,1,0,,,,,,,,,,,,,0.5351908227002987,356.66500140000426,None,9_1_V1.png,,,,,,,,,,,1,357.2157442000025,None,2,0.5534511000005296,357.2157442000025,None,357.2157442000025,None,None,None,357.8117055000039,None,357.8117055000039,None,None,None,None,None,None,,,,,,IA6LI11,1,Serial_COM3,C:\Users\EEG\Desktop\FINALCoScienceTasksLogfiles\,2022_Jan_05_1247,UltimatumGame,2020.1.3,60.09005095049733,
,Offer2,5,5,2,,,,,,,,,,,,,0,2,2,1,,,,,,,,,,,,,0.650110647307281,358.81644550000783,None,5_5_V1.png,,,,,,,,,,,1,359.4900902000081,None,4,0.39098499999090564,359.4900902000081,None,359.4900902000081,None,None,None,359.9231415000104,None,359.9231415000104,None,None,None,None,None,None,,,,,,IA6LI11,1,Serial_COM3,C:\Users\EEG\Desktop\FINALCoScienceTasksLogfiles\,2022_Jan_05_1247,UltimatumGame,2020.1.3,60.09005095049733,
,Offer3,3,7,3,,,,,,,,,,,,,1,0,3,2,,,,,,,,,,,,,0.6909590774538159,360.9353078999993,None,7_3_V1.png,,,,,,,,,,,1,361.63670360000106,None,4,0.4354806000046665,361.63670360000106,None,361.63670360000106,None,None,None,362.1085877000005,None,362.1085877000005,None,None,None,None,None,None,,,,,,IA6LI11,1,Serial_COM3,C:\Users\EEG\Desktop\FINALCoScienceTasksLogfiles\,2022_Jan_05_1247,UltimatumGame,2020.1.3,60.09005095049733,
,Offer3,3,7,3,,,,,,,,,,,,,1,1,4,2,,,,,,,,,,,,,0.5143326736266595,363.1199889999989,None,7_3_V1.png,,,,,,,,,,,1,363.65419539999857,None,None,,363.65419539999857,None,363.65419539999857,None,366.67434910000884,None,367.6522074000095,None,367.6522074000095,None,None,None,None,None,None,,,,,,IA6LI11,1,Serial_COM3,C:\Users\EEG\Desktop\FINALCoScienceTasksLogfiles\,2022_Jan_05_1247,UltimatumGame,2020.1.3,60.09005095049733,
,Offer3,3,7,3,,,,,,,,,,,,,1,2,5,2,,,,,,,,,,,,,0.5767401995372385,368.6558965000004,None,7_3_V1.png,,,,,,,,,,,4,369.2475417000096,None,2,0.3288620999956038,369.2475417000096,None,369.2475417000096,None,None,None,369.613912300003,None,369.613912300003,None,None,None,None,None,None,,,,,,IA6LI11,1,Serial_COM3,C:\Users\EEG\Desktop\FINALCoScienceTasksLogfiles\,2022_Jan_05_1247,UltimatumGame,2020.1.3,60.09005095049733,
,Offer3,3,7,3,,,,,,,,,,,,,2,0,6,2,,,,,,,,,,,,,0.595773603660419,370.6263617000077,None,7_3_V1.png,,,,,,,,,,,7,371.2276111000101,None,2,0.36975849998998456,371.2276111000101,None,371.2276111000101,None,None,None,371.6182662000065,None,371.6182662000065,None,None,None,None,None,None,,,,,,IA6LI11,1,Serial_COM3,C:\Users\EEG\Desktop\FINALCoScienceTasksLogfiles\,2022_Jan_05_1247,UltimatumGame,2020.1.3,60.09005095049733,
,Offer2,5,5,2,,,,,,,,,,,,,2,1,7,1,,,,,,,,,,,,,0.5167025690013829,372.628231900002,None,5_5_V1.png,,,,,,,,,,,7,373.16700950000086,None,4,0.4001257999916561,373.16700950000086,None,373.16700950000086,None,None,None,373.60122930000944,None,373.60122930000944,None,None,None,None,None,None,,,,,,IA6LI11,1,Serial_COM3,C:\Users\EEG\Desktop\FINALCoScienceTasksLogfiles\,2022_Jan_05_1247,UltimatumGame,2020.1.3,60.09005095049733,
,Offer1,1,9,1,,,,,,,,,,,,,2,2,8,0,,,,,,,,,,,,,0.6625049307707411,374.61320170000545,None,9_1_V1.png,,,,,,,,,,,8,375.28588429999945,None,2,0.3515229999902658,375.28588429999945,None,375.28588429999945,None,None,None,375.6717351999978,None,375.6717351999978,None,None,None,None,None,None,,,,,,IA6LI11,1,Serial_COM3,C:\Users\EEG\Desktop\FINALCoScienceTasksLogfiles\,2022_Jan_05_1247,UltimatumGame,2020.1.3,60.09005095049733,
,Offer1,1,9,1,,,,,,,,,,,,,3,0,9,0,,,,,,,,,,,,,0.5776254346134082,376.6817216000054,None,9_1_V1.png,,,,,,,,,,,9,377.270907099999,None,2,0.3442609000048833,377.270907099999,None,377.270907099999,None,None,None,377.6595251000108,None,377.6595251000108,None,None,None,None,None,None,,,,,,IA6LI11,1,Serial_COM3,C:\Users\EEG\Desktop\FINALCoScienceTasksLogfiles\,2022_Jan_05_1247,UltimatumGame,2020.1.3,60.09005095049733,
,Offer3,3,7,3,,,,,,,,,,,,,3,1,10,2,,,,,,,,,,,,,0.5492492223013081,378.6666833000054,None,7_3_V1.png,,,,,,,,,,,12,379.23526539999875,None,2,0.3279826000070898,379.23526539999875,None,379.23526539999875,None,None,None,379.5975705000019,None,379.5975705000019,None,None,None,None,None,None,,,,,,IA6LI11,1,Serial_COM3,C:\Users\EEG\Desktop\FINALCoScienceTasksLogfiles\,2022_Jan_05_1247,UltimatumGame,2020.1.3,60.09005095049733,
,Offer2,5,5,2,,,,,,,,,,,,,3,2,11,1,,,,,,,,,,,,,0.6954836151457007,380.61815750000824,None,5_5_V1.png,,,,,,,,,,,12,381.3199708000029,None,4,0.27514480000536423,381.3199708000029,None,381.3199708000029,None,None,None,381.63197640000726,None,381.63197640000726,None,None,None,None,None,None,,,,,,IA6LI11,1,Serial_COM3,C:\Users\EEG\Desktop\FINALCoScienceTasksLogfiles\,2022_Jan_05_1247,UltimatumGame,2020.1.3,60.09005095049733,
,Offer2,5,5,2,,,,,,,,,,,,,4,0,12,1,,,,,,,,,,,,,0.6153920866622641,382.65314170000784,None,5_5_V1.png,,,,,,,,,,,12,383.29278670001077,None,4,0.2946421999949962,383.29278670001077,None,383.29278670001077,None,None,None,383.61645690001023,None,383.61645690001023,None,None,None,None,None,None,,,,,,IA6LI11,1,Serial_COM3,C:\Users\EEG\Desktop\FINALCoScienceTasksLogfiles\,2022_Jan_05_1247,UltimatumGame,2020.1.3,60.09005095049733,
,Offer3,3,7,3,,,,,,,,,,,,,4,1,13,2,,,,,,,,,,,,,0.5926546056931105,384.6212876000063,None,7_3_V1.png,,,,,,,,,,,15,385.22204550000606,None,2,0.4064593000075547,385.22204550000606,None,385.22204550000606,None,None,None,385.6535636000044,None,385.6535636000044,None,None,None,None,None,None,,,,,,IA6LI11,1,Serial_COM3,C:\Users\EEG\Desktop\FINALCoScienceTasksLogfiles\,2022_Jan_05_1247,UltimatumGame,2020.1.3,60.09005095049733,
,Offer1,1,9,1,,,,,,,,,,,,,4,2,14,0,,,,,,,,,,,,,0.533078999142213,386.67339419999917,None,9_1_V1.png,,,,,,,,,,,15,387.22918260000006,None,4,0.36640600000100676,387.22918260000006,None,387.22918260000006,None,None,None,387.6359536000091,None,387.6359536000091,None,None,None,None,None,None,,,,,,IA6LI11,1,Serial_COM3,C:\Users\EEG\Desktop\FINALCoScienceTasksLogfiles\,2022_Jan_05_1247,UltimatumGame,2020.1.3,60.09005095049733,
,Offer3,3,7,3,,,,,,,,,,,,,5,0,15,2,,,,,,,,,,,,,0.6062412490629407,388.64086630000384,None,7_3_V1.png,,,,,,,,,,,18,389.26509339999757,None,2,0.39199740000185557,389.26509339999757,None,389.26509339999757,None,None,None,389.7072860000044,None,389.7072860000044,None,None,None,None,None,None,,,,,,IA6LI11,1,Serial_COM3,C:\Users\EEG\Desktop\FINALCoScienceTasksLogfiles\,2022_Jan_05_1247,UltimatumGame,2020.1.3,60.09005095049733,
,Offer2,5,5,2,,,,,,,,,,,,,5,1,16,1,,,,,,,,,,,,,0.6240955477191416,390.72644490000675,None,5_5_V1.png,,,,,,,,,,,23,391.36173760000383,None,2,0.34340009999868926,391.36173760000383,None,391.36173760000383,None,None,None,391.75368680000247,None,391.75368680000247,None,None,None,None,None,None,,,,,,IA6LI11,1,Serial_COM3,C:\Users\EEG\Desktop\FINALCoScienceTasksLogfiles\,2022_Jan_05_1247,UltimatumGame,2020.1.3,60.09005095049733,
,Offer2,5,5,2,,,,,,,,,,,,,5,2,17,1,,,,,,,,,,,,,0.5692576674234912,392.76143350001075,None,5_5_V1.png,,,,,,,,,,,28,393.3499379999994,None,2,0.3392122999939602,393.3499379999994,None,393.3499379999994,None,None,None,393.7301746000012,None,393.7301746000012,None,None,None,None,None,None,,,,,,IA6LI11,1,Serial_COM3,C:\Users\EEG\Desktop\FINALCoScienceTasksLogfiles\,2022_Jan_05_1247,UltimatumGame,2020.1.3,60.09005095049733,
,Offer2,5,5,2,,,,,,,,,,,,,6,0,18,1,,,,,,,,,,,,,0.5431455482374221,394.7463046000048,None,5_5_V1.png,,,,,,,,,,,28,395.30270759999985,None,4,0.33580040000379086,395.30270759999985,None,395.30270759999985,None,None,None,395.67235660000006,None,395.67235660000006,None,None,None,None,None,None,,,,,,IA6LI11,1,Serial_COM3,C:\Users\EEG\Desktop\FINALCoScienceTasksLogfiles\,2022_Jan_05_1247,UltimatumGame,2020.1.3,60.09005095049733,
,Offer3,3,7,3,,,,,,,,,,,,,6,1,19,2,,,,,,,,,,,,,0.6939802637916747,396.68150449999666,None,7_3_V1.png,,,,,,,,,,,31,397.38781949999975,None,2,0.27743619999091607,397.38781949999975,None,397.38781949999975,None,None,None,397.70241740001075,None,397.70241740001075,None,None,None,None,None,None,,,,,,IA6LI11,1,Serial_COM3,C:\Users\EEG\Desktop\FINALCoScienceTasksLogfiles\,2022_Jan_05_1247,UltimatumGame,2020.1.3,60.09005095049733,
,Offer2,5,5,2,,,,,,,,,,,,,6,2,20,1,,,,,,,,,,,,,0.523279460541241,398.7163271000027,None,5_5_V1.png,,,,,,,,,,,36,399.2507684000011,None,2,0.27468440000666305,399.2507684000011,None,399.2507684000011,None,None,None,399.5585102000041,None,399.5585102000041,None,None,None,None,None,None,,,,,,IA6LI11,1,Serial_COM3,C:\Users\EEG\Desktop\FINALCoScienceTasksLogfiles\,2022_Jan_05_1247,UltimatumGame,2020.1.3,60.09005095049733,
,Offer3,3,7,3,,,,,,,,,,,,,7,0,21,2,,,,,,,,,,,,,0.6283934462616653,400.5682373000018,None,7_3_V1.png,,,,,,,,,,,39,401.20769409999775,None,2,0.2453733000002103,401.20769409999775,None,401.20769409999775,None,None,None,401.4808000000048,None,401.4808000000048,None,None,None,None,None,None,,,,,,IA6LI11,1,Serial_COM3,C:\Users\EEG\Desktop\FINALCoScienceTasksLogfiles\,2022_Jan_05_1247,UltimatumGame,2020.1.3,60.09005095049733,
,Offer1,1,9,1,,,,,,,,,,,,,7,1,22,0,,,,,,,,,,,,,0.6360420423911313,402.4861457000079,None,9_1_V1.png,,,,,,,,,,,40,403.14290060001076,None,2,0.2982458000042243,403.14290060001076,None,403.14290060001076,None,None,None,403.48972470000444,None,403.48972470000444,None,None,None,None,None,None,,,,,,IA6LI11,1,Serial_COM3,C:\Users\EEG\Desktop\FINALCoScienceTasksLogfiles\,2022_Jan_05_1247,UltimatumGame,2020.1.3,60.09005095049733,
,Offer1,1,9,1,,,,,,,,,,,,,7,2,23,0,,,,,,,,,,,,,0.5892714387443413,404.50484680000227,None,9_1_V1.png,,,,,,,,,,,40,405.10566590000235,None,4,0.24386639999283943,405.10566590000235,None,405.10566590000235,None,None,None,405.38397819999955,None,405.38397819999955,None,None,None,None,None,None,,,,,,IA6LI11,1,Serial_COM3,C:\Users\EEG\Desktop\FINALCoScienceTasksLogfiles\,2022_Jan_05_1247,UltimatumGame,2020.1.3,60.09005095049733,
,Offer1,1,9,1,,,,,,,,,,,,,8,0,24,0,,,,,,,,,,,,,0.545350935760178,406.3969006999978,None,9_1_V1.png,,,,,,,,,,,41,406.9621388000087,None,2,0.2465712999983225,406.9621388000087,None,406.9621388000087,None,None,None,407.2519714000082,None,407.2519714000082,None,408.25957200000994,None,space,409.25329639999836,None,16.57838659999834,,,,,IA6LI11,1,Serial_COM3,C:\Users\EEG\Desktop\FINALCoScienceTasksLogfiles\,2022_Jan_05_1247,UltimatumGame,2020.1.3,60.09005095049733,
,Offer3,3,7,3,,,,,,,,,,,,,8,1,25,2,,,,,,,,,,,,,0.6552335288893205,425.864908500007,None,7_3_V1.png,,,,,,,,,,,44,426.5456075999973,None,2,0.4011206000141101,426.5456075999973,None,426.5456075999973,None,None,None,426.98674900000333,None,426.98674900000333,None,None,None,None,None,None,,,,,,IA6LI11,1,Serial_COM3,C:\Users\EEG\Desktop\FINALCoScienceTasksLogfiles\,2022_Jan_05_1247,UltimatumGame,2020.1.3,60.09005095049733,
,Offer3,3,7,3,,,,,,,,,,,,,8,2,26,2,,,,,,,,,,,,,0.6993282210697701,428.0078305000061,None,7_3_V1.png,,,,,,,,,,,47,428.7306746999966,None,2,0.19865569999092259,428.7306746999966,None,428.7306746999966,None,None,None,428.95893760000763,None,428.95893760000763,None,None,None,None,None,None,,,,,,IA6LI11,1,Serial_COM3,C:\Users\EEG\Desktop\FINALCoScienceTasksLogfiles\,2022_Jan_05_1247,UltimatumGame,2020.1.3,60.09005095049733,
,Offer1,1,9,1,,,,,,,,,,,,,9,0,27,0,,,,,,,,,,,,,0.6057730446545416,429.9760590000078,None,9_1_V1.png,,,,,,,,,,,48,430.59413389999827,None,2,0.1989686999877449,430.59413389999827,None,430.59413389999827,None,None,None,430.820907500005,None,430.820907500005,None,None,None,None,None,None,,,,,,IA6LI11,1,Serial_COM3,C:\Users\EEG\Desktop\FINALCoScienceTasksLogfiles\,2022_Jan_05_1247,UltimatumGame,2020.1.3,60.09005095049733,
,Offer3,3,7,3,,,,,,,,,,,,,9,1,28,2,,,,,,,,,,,,,0.60936651482624,431.82769469999766,None,7_3_V1.png,,,,,,,,,,,51,432.4503098999994,None,2,0.16108499999972992,432.4503098999994,None,432.4503098999994,None,None,None,432.6411269000091,None,432.6411269000091,None,None,None,None,None,None,,,,,,IA6LI11,1,Serial_COM3,C:\Users\EEG\Desktop\FINALCoScienceTasksLogfiles\,2022_Jan_05_1247,UltimatumGame,2020.1.3,60.09005095049733,
,Offer2,5,5,2,,,,,,,,,,,,,9,2,29,1,,,,,,,,,,,,,0.6199939330894323,433.66222850000486,None,5_5_V1.png,,,,,,,,,,,56,434.29707139999664,None,2,0.1750982999947155,434.29707139999664,None,434.29707139999664,None,None,None,434.5101277000067,None,434.5101277000067,None,None,None,None,None,None,,,,,,IA6LI11,1,Serial_COM3,C:\Users\EEG\Desktop\FINALCoScienceTasksLogfiles\,2022_Jan_05_1247,UltimatumGame,2020.1.3,60.09005095049733,
,Offer2,5,5,2,,,,,,,,,,,,,10,0,30,1,,,,,,,,,,,,,0.5117270957669066,435.5301854999998,None,5_5_V1.png,,,,,,,,,,,61,436.0486202000029,None,2,0.2069072000012966,436.0486202000029,None,436.0486202000029,None,None,None,436.29338260000804,None,436.29338260000804,None,None,None,None,None,None,,,,,,IA6LI11,1,Serial_COM3,C:\Users\EEG\Desktop\FINALCoScienceTasksLogfiles\,2022_Jan_05_1247,UltimatumGame,2020.1.3,60.09005095049733,
,Offer3,3,7,3,,,,,,,,,,,,,10,1,31,2,,,,,,,,,,,,,0.5491789307068533,437.29902750000474,None,7_3_V1.png,,,,,,,,,,,64,437.8718366000103,None,2,0.19477099999494385,437.8718366000103,None,437.8718366000103,None,None,None,438.1091989999986,None,438.1091989999986,None,None,None,None,None,None,,,,,,IA6LI11,1,Serial_COM3,C:\Users\EEG\Desktop\FINALCoScienceTasksLogfiles\,2022_Jan_05_1247,UltimatumGame,2020.1.3,60.09005095049733,
,Offer1,1,9,1,,,,,,,,,,,,,10,2,32,0,,,,,,,,,,,,,0.545977986748216,439.1166521999985,None,9_1_V1.png,,,,,,,,,,,65,439.68896260000474,None,2,0.19315030000871047,439.68896260000474,None,439.68896260000474,None,None,None,439.9239177999989,None,439.9239177999989,None,None,None,None,None,None,,,,,,IA6LI11,1,Serial_COM3,C:\Users\EEG\Desktop\FINALCoScienceTasksLogfiles\,2022_Jan_05_1247,UltimatumGame,2020.1.3,60.09005095049733,
,Offer3,3,7,3,,,,,,,,,,,,,11,0,33,2,,,,,,,,,,,,,0.673078607097868,440.9344764999987,None,7_3_V1.png,,,,,,,,,,,68,441.62431150001066,None,2,0.17184870000346564,441.62431150001066,None,441.62431150001066,None,None,None,441.8458299000049,None,441.8458299000049,None,None,None,None,None,None,,,,,,IA6LI11,1,Serial_COM3,C:\Users\EEG\Desktop\FINALCoScienceTasksLogfiles\,2022_Jan_05_1247,UltimatumGame,2020.1.3,60.09005095049733,
,Offer2,5,5,2,,,,,,,,,,,,,11,1,34,1,,,,,,,,,,,,,0.6192358662356429,442.8531883999967,None,5_5_V1.png,,,,,,,,,,,73,443.48826589999953,None,2,0.0631584000075236,443.48826589999953,None,443.48826589999953,None,None,None,443.5797403000033,None,443.5797403000033,None,None,None,None,None,None,,,,,,IA6LI11,1,Serial_COM3,C:\Users\EEG\Desktop\FINALCoScienceTasksLogfiles\,2022_Jan_05_1247,UltimatumGame,2020.1.3,60.09005095049733,
,Offer3,3,7,3,,,,,,,,,,,,,11,2,35,2,,,,,,,,,,,,,0.5649590955497377,444.58785419999913,None,7_3_V1.png,,,,,,,,,,,76,445.1723095000052,None,2,0.10589350000373088,445.1723095000052,None,445.1723095000052,None,None,None,445.31696890000603,None,445.31696890000603,None,None,None,None,None,None,,,,,,IA6LI11,1,Serial_COM3,C:\Users\EEG\Desktop\FINALCoScienceTasksLogfiles\,2022_Jan_05_1247,UltimatumGame,2020.1.3,60.09005095049733,
,Offer3,3,7,3,,,,,,,,,,,,,12,0,36,2,,,,,,,,,,,,,0.5820374135649946,446.32275580000714,None,7_3_V1.png,,,,,,,,,,,79,446.9242471000034,None,2,0.1702398999914294,446.9242471000034,None,446.9242471000034,None,None,None,447.12842370000726,None,447.12842370000726,None,None,None,None,None,None,,,,,,IA6LI11,1,Serial_COM3,C:\Users\EEG\Desktop\FINALCoScienceTasksLogfiles\,2022_Jan_05_1247,UltimatumGame,2020.1.3,60.09005095049733,
,Offer2,5,5,2,,,,,,,,,,,,,12,1,37,1,,,,,,,,,,,,,0.5481763128668995,448.14031600000453,None,5_5_V1.png,,,,,,,,,,,84,448.70899090000603,None,2,0.1971705999894766,448.70899090000603,None,448.70899090000603,None,None,None,448.9435310999979,None,448.9435310999979,None,None,None,None,None,None,,,,,,IA6LI11,1,Serial_COM3,C:\Users\EEG\Desktop\FINALCoScienceTasksLogfiles\,2022_Jan_05_1247,UltimatumGame,2020.1.3,60.09005095049733,
,Offer3,3,7,3,,,,,,,,,,,,,12,2,38,2,,,,,,,,,,,,,0.5581428317238326,449.95930750000116,None,7_3_V1.png,,,,,,,,,,,87,450.53207850000763,None,2,0.08827469999960158,450.53207850000763,None,450.53207850000763,None,None,None,450.64915610000025,None,450.64915610000025,None,None,None,None,None,None,,,,,,IA6LI11,1,Serial_COM3,C:\Users\EEG\Desktop\FINALCoScienceTasksLogfiles\,2022_Jan_05_1247,UltimatumGame,2020.1.3,60.09005095049733,
,Offer2,5,5,2,,,,,,,,,,,,,13,0,39,1,,,,,,,,,,,,,0.5716337847664962,451.6599395000085,None,5_5_V1.png,,,,,,,,,,,92,452.2506057999999,None,2,0.5626059000060195,452.2506057999999,None,452.2506057999999,None,None,None,452.8547787999996,None,452.8547787999996,None,None,None,None,None,None,,,,,,IA6LI11,1,Serial_COM3,C:\Users\EEG\Desktop\FINALCoScienceTasksLogfiles\,2022_Jan_05_1247,UltimatumGame,2020.1.3,60.09005095049733,
,Offer2,5,5,2,,,,,,,,,,,,,13,1,40,1,,,,,,,,,,,,,0.5749056276037761,453.8621772000042,None,5_5_V1.png,,,,,,,,,,,97,454.44979949999833,None,2,0.5388539999985369,454.44979949999833,None,454.44979949999833,None,None,None,455.01061930001015,None,455.01061930001015,None,None,None,None,None,None,,,,,,IA6LI11,1,Serial_COM3,C:\Users\EEG\Desktop\FINALCoScienceTasksLogfiles\,2022_Jan_05_1247,UltimatumGame,2020.1.3,60.09005095049733,
,Offer2,5,5,2,,,,,,,,,,,,,13,2,41,1,,,,,,,,,,,,,0.5117507638521985,456.03104660000827,None,5_5_V1.png,,,,,,,,,,,102,456.5536917999998,None,2,1.3099174000089988,456.5536917999998,None,456.5536917999998,None,None,None,457.8915918999992,None,457.8915918999992,None,None,None,None,None,None,,,,,,IA6LI11,1,Serial_COM3,C:\Users\EEG\Desktop\FINALCoScienceTasksLogfiles\,2022_Jan_05_1247,UltimatumGame,2020.1.3,60.09005095049733,
,Offer2,5,5,2,,,,,,,,,,,,,14,0,42,1,,,,,,,,,,,,,0.699577892858168,458.90027949999785,None,5_5_V1.png,,,,,,,,,,,107,459.6233174000081,None,2,0.30907410000509117,459.6233174000081,None,459.6233174000081,None,None,None,459.9701204000012,None,459.9701204000012,None,None,None,None,None,None,,,,,,IA6LI11,1,Serial_COM3,C:\Users\EEG\Desktop\FINALCoScienceTasksLogfiles\,2022_Jan_05_1247,UltimatumGame,2020.1.3,60.09005095049733,
,Offer1,1,9,1,,,,,,,,,,,,,14,1,43,0,,,,,,,,,,,,,0.6660721698769216,460.98505309999746,None,9_1_V1.png,,,,,,,,,,,108,461.6691129000101,None,2,0.2245215000002645,461.6691129000101,None,461.6691129000101,None,None,None,461.9376759000006,None,461.9376759000006,None,None,None,None,None,None,,,,,,IA6LI11,1,Serial_COM3,C:\Users\EEG\Desktop\FINALCoScienceTasksLogfiles\,2022_Jan_05_1247,UltimatumGame,2020.1.3,60.09005095049733,
,Offer1,1,9,1,,,,,,,,,,,,,14,2,44,0,,,,,,,,,,,,,0.5109726435314175,462.9531369000033,None,9_1_V1.png,,,,,,,,,,,109,463.4758904000046,None,2,0.21535389999917243,463.4758904000046,None,463.4758904000046,None,None,None,463.72525869999663,None,463.72525869999663,None,None,None,None,None,None,,,,,,IA6LI11,1,Serial_COM3,C:\Users\EEG\Desktop\FINALCoScienceTasksLogfiles\,2022_Jan_05_1247,UltimatumGame,2020.1.3,60.09005095049733,
,Offer2,5,5,2,,,,,,,,,,,,,15,0,45,1,,,,,,,,,,,,,0.6206396615572823,464.7379090000031,None,5_5_V1.png,,,,,,,,,,,114,465.37516250000044,None,2,0.10611119998793583,465.37516250000044,None,465.37516250000044,None,None,None,465.52687600000354,None,465.52687600000354,None,None,None,None,None,None,,,,,,IA6LI11,1,Serial_COM3,C:\Users\EEG\Desktop\FINALCoScienceTasksLogfiles\,2022_Jan_05_1247,UltimatumGame,2020.1.3,60.09005095049733,
,Offer2,5,5,2,,,,,,,,,,,,,15,1,46,1,,,,,,,,,,,,,0.5699498110534029,466.5394310999982,None,5_5_V1.png,,,,,,,,,,,119,467.1243204000057,None,2,0.11106979999749456,467.1243204000057,None,467.1243204000057,None,None,None,467.2812096999987,None,467.2812096999987,None,None,None,None,None,None,,,,,,IA6LI11,1,Serial_COM3,C:\Users\EEG\Desktop\FINALCoScienceTasksLogfiles\,2022_Jan_05_1247,UltimatumGame,2020.1.3,60.09005095049733,
,Offer2,5,5,2,,,,,,,,,,,,,15,2,47,1,,,,,,,,,,,,,0.605383429414749,468.29073710000375,None,5_5_V1.png,,,,,,,,,,,124,468.9092837000062,None,2,0.5029146000015317,468.9092837000062,None,468.9092837000062,None,None,None,469.4493389999989,None,469.4493389999989,None,None,None,None,None,None,,,,,,IA6LI11,1,Serial_COM3,C:\Users\EEG\Desktop\FINALCoScienceTasksLogfiles\,2022_Jan_05_1247,UltimatumGame,2020.1.3,60.09005095049733,
,Offer3,3,7,3,,,,,,,,,,,,,16,0,48,2,,,,,,,,,,,,,0.5437087162837514,470.4597963999986,None,7_3_V1.png,,,,,,,,,,,127,471.01075010000204,None,2,0.22534540000197012,471.01075010000204,None,471.01075010000204,None,None,None,471.2738374000037,None,471.2738374000037,None,None,None,None,None,None,,,,,,IA6LI11,1,Serial_COM3,C:\Users\EEG\Desktop\FINALCoScienceTasksLogfiles\,2022_Jan_05_1247,UltimatumGame,2020.1.3,60.09005095049733,
,Offer2,5,5,2,,,,,,,,,,,,,16,1,49,1,,,,,,,,,,,,,0.5598234127753583,472.2943307000096,None,5_5_V1.png,,,,,,,,,,,132,472.8673909000063,None,2,0.17986990000645164,472.8673909000063,None,472.8673909000063,None,None,None,473.10073679999914,None,473.10073679999914,None,474.11272220000683,None,space,475.1077784000081,None,4.363676699998905,,,,,IA6LI11,1,Serial_COM3,C:\Users\EEG\Desktop\FINALCoScienceTasksLogfiles\,2022_Jan_05_1247,UltimatumGame,2020.1.3,60.09005095049733,
,Offer2,5,5,2,,,,,,,,,,,,,16,2,50,1,,,,,,,,,,,,,0.5188432071549347,479.50863900000695,None,5_5_V1.png,,,,,,,,,,,137,480.04027959999803,None,2,0.32491519999166485,480.04027959999803,None,480.04027959999803,None,None,None,480.4073356000008,None,480.4073356000008,None,None,None,None,None,None,,,,,,IA6LI11,1,Serial_COM3,C:\Users\EEG\Desktop\FINALCoScienceTasksLogfiles\,2022_Jan_05_1247,UltimatumGame,2020.1.3,60.09005095049733,
,Offer3,3,7,3,,,,,,,,,,,,,17,0,51,2,,,,,,,,,,,,,0.5305009105245068,481.41874510000343,None,7_3_V1.png,,,,,,,,,,,140,481.9699313000019,None,2,0.13254299999971408,481.9699313000019,None,481.9699313000019,None,None,None,482.13964439999836,None,482.13964439999836,None,None,None,None,None,None,,,,,,IA6LI11,1,Serial_COM3,C:\Users\EEG\Desktop\FINALCoScienceTasksLogfiles\,2022_Jan_05_1247,UltimatumGame,2020.1.3,60.09005095049733,
,Offer1,1,9,1,,,,,,,,,,,,,17,1,52,0,,,,,,,,,,,,,0.6909478593515261,483.1532628999994,None,9_1_V1.png,,,,,,,,,,,141,483.8604903000087,None,2,0.052992400000221096,483.8604903000087,None,483.8604903000087,None,None,None,483.97020950001024,None,483.97020950001024,None,None,None,None,None,None,,,,,,IA6LI11,1,Serial_COM3,C:\Users\EEG\Desktop\FINALCoScienceTasksLogfiles\,2022_Jan_05_1247,UltimatumGame,2020.1.3,60.09005095049733,
,Offer1,1,9,1,,,,,,,,,,,,,17,2,53,0,,,,,,,,,,,,,0.6735807466241872,484.98792450000474,None,9_1_V1.png,,,,,,,,,,,142,485.6774415999971,None,2,0.43973430000187363,485.6774415999971,None,485.6774415999971,None,None,None,486.1575811000075,None,486.1575811000075,None,None,None,None,None,None,,,,,,IA6LI11,1,Serial_COM3,C:\Users\EEG\Desktop\FINALCoScienceTasksLogfiles\,2022_Jan_05_1247,UltimatumGame,2020.1.3,60.09005095049733,
,Offer3,3,7,3,,,,,,,,,,,,,18,0,54,2,,,,,,,,,,,,,0.5176894617709049,487.17340690000856,None,7_3_V1.png,,,,,,,,,,,145,487.7132883000013,None,2,0.2230563000048278,487.7132883000013,None,487.7132883000013,None,None,None,487.9850713000051,None,487.9850713000051,None,None,None,None,None,None,,,,,,IA6LI11,1,Serial_COM3,C:\Users\EEG\Desktop\FINALCoScienceTasksLogfiles\,2022_Jan_05_1247,UltimatumGame,2020.1.3,60.09005095049733,
,Offer1,1,9,1,,,,,,,,,,,,,18,1,55,0,,,,,,,,,,,,,0.5654986715334374,488.9915475000016,None,9_1_V1.png,,,,,,,,,,,146,489.58009210000455,None,2,0.22926510000252165,489.58009210000455,None,489.58009210000455,None,None,None,489.8386884000065,None,489.8386884000065,None,None,None,None,None,None,,,,,,IA6LI11,1,Serial_COM3,C:\Users\EEG\Desktop\FINALCoScienceTasksLogfiles\,2022_Jan_05_1247,UltimatumGame,2020.1.3,60.09005095049733,
,Offer1,1,9,1,,,,,,,,,,,,,18,2,56,0,,,,,,,,,,,,,0.5979277653042512,490.8598178999964,None,9_1_V1.png,,,,,,,,,,,147,491.47829870000714,None,2,0.20411509998666588,491.47829870000714,None,491.47829870000714,None,None,None,491.7102729000035,None,491.7102729000035,None,None,None,None,None,None,,,,,,IA6LI11,1,Serial_COM3,C:\Users\EEG\Desktop\FINALCoScienceTasksLogfiles\,2022_Jan_05_1247,UltimatumGame,2020.1.3,60.09005095049733,
,Offer1,1,9,1,,,,,,,,,,,,,19,0,57,0,,,,,,,,,,,,,0.6416922251949151,492.7275452000031,None,9_1_V1.png,,,,,,,,,,,148,493.3786388000008,None,2,0.0016808999935165048,493.3786388000008,None,493.3786388000008,None,None,None,493.40379740000935,None,493.40379740000935,None,None,None,None,None,None,,,,,,IA6LI11,1,Serial_COM3,C:\Users\EEG\Desktop\FINALCoScienceTasksLogfiles\,2022_Jan_05_1247,UltimatumGame,2020.1.3,60.09005095049733,
,Offer1,1,9,1,,,,,,,,,,,,,19,1,58,0,,,,,,,,,,,,,0.6546530664106656,494.41278779999993,None,9_1_V1.png,,,,,,,,,,,149,495.0850946999999,None,2,0.24948259998927824,495.0850946999999,None,495.0850946999999,None,None,None,495.36360930000956,None,495.36360930000956,None,None,None,None,None,None,,,,,,IA6LI11,1,Serial_COM3,C:\Users\EEG\Desktop\FINALCoScienceTasksLogfiles\,2022_Jan_05_1247,UltimatumGame,2020.1.3,60.09005095049733,
,Offer1,1,9,1,,,,,,,,,,,,,19,2,59,0,,,,,,,,,,,,,0.5986958112691274,496.38111840000784,None,9_1_V1.png,,,,,,,,,,,150,497.0039315000031,None,2,0.14566449999983888,497.0039315000031,None,497.0039315000031,None,None,None,497.18299640000623,None,497.18299640000623,None,None,None,None,None,None,,,,,,IA6LI11,1,Serial_COM3,C:\Users\EEG\Desktop\FINALCoScienceTasksLogfiles\,2022_Jan_05_1247,UltimatumGame,2020.1.3,60.09005095049733,
,Offer1,1,9,1,,,,,,,,,,,,,20,0,60,0,,,,,,,,,,,,,0.5696432212438579,498.19921550000436,None,9_1_V1.png,,,,,,,,,,,151,498.78428800000984,None,2,0.2372544999961974,498.78428800000984,None,498.78428800000984,None,None,None,499.0569228000095,None,499.0569228000095,None,None,None,None,None,None,,,,,,IA6LI11,1,Serial_COM3,C:\Users\EEG\Desktop\FINALCoScienceTasksLogfiles\,2022_Jan_05_1247,UltimatumGame,2020.1.3,60.09005095049733,
,Offer3,3,7,3,,,,,,,,,,,,,20,1,61,2,,,,,,,,,,,,,0.5703474250341818,500.07467420000467,None,7_3_V1.png,,,,,,,,,,,154,500.65239990000555,None,2,0.1647464999987278,500.65239990000555,None,500.65239990000555,None,None,None,500.8667803999997,None,500.8667803999997,None,None,None,None,None,None,,,,,,IA6LI11,1,Serial_COM3,C:\Users\EEG\Desktop\FINALCoScienceTasksLogfiles\,2022_Jan_05_1247,UltimatumGame,2020.1.3,60.09005095049733,
,Offer1,1,9,1,,,,,,,,,,,,,20,2,62,0,,,,,,,,,,,,,0.5534517628737348,501.8850819000072,None,9_1_V1.png,,,,,,,,,,,155,502.4589980000019,None,2,0.16657080000732094,502.4589980000019,None,502.4589980000019,None,None,None,502.6571789000009,None,502.6571789000009,None,None,None,None,None,None,,,,,,IA6LI11,1,Serial_COM3,C:\Users\EEG\Desktop\FINALCoScienceTasksLogfiles\,2022_Jan_05_1247,UltimatumGame,2020.1.3,60.09005095049733,
,Offer3,3,7,3,,,,,,,,,,,,,21,0,63,2,,,,,,,,,,,,,0.5091167330228245,503.67024870000023,None,7_3_V1.png,,,,,,,,,,,158,504.19414849999885,None,2,0.1800087000010535,504.19414849999885,None,504.19414849999885,None,None,None,504.4037127000047,None,504.4037127000047,None,None,None,None,None,None,,,,,,IA6LI11,1,Serial_COM3,C:\Users\EEG\Desktop\FINALCoScienceTasksLogfiles\,2022_Jan_05_1247,UltimatumGame,2020.1.3,60.09005095049733,
,Offer2,5,5,2,,,,,,,,,,,,,21,1,64,1,,,,,,,,,,,,,0.6559128647483744,505.4166397000081,None,5_5_V1.png,,,,,,,,,,,163,506.09501080001064,None,2,0.04150890000164509,506.09501080001064,None,506.09501080001064,None,None,None,506.18214499999885,None,506.18214499999885,None,None,None,None,None,None,,,,,,IA6LI11,1,Serial_COM3,C:\Users\EEG\Desktop\FINALCoScienceTasksLogfiles\,2022_Jan_05_1247,UltimatumGame,2020.1.3,60.09005095049733,
,Offer1,1,9,1,,,,,,,,,,,,,21,2,65,0,,,,,,,,,,,,,0.5998367252368345,507.1902265000099,None,9_1_V1.png,,,,,,,,,,,164,507.8084824000107,None,2,0.13092700000561308,507.8084824000107,None,507.8084824000107,None,None,None,507.9941276000027,None,507.9941276000027,None,None,None,None,None,None,,,,,,IA6LI11,1,Serial_COM3,C:\Users\EEG\Desktop\FINALCoScienceTasksLogfiles\,2022_Jan_05_1247,UltimatumGame,2020.1.3,60.09005095049733,
,Offer1,1,9,1,,,,,,,,,,,,,22,0,66,0,,,,,,,,,,,,,0.6466318344206599,509.0081088000006,None,9_1_V1.png,,,,,,,,,,,165,509.6805185999983,None,2,0.20421019999776036,509.6805185999983,None,509.6805185999983,None,None,None,509.9234992999991,None,509.9234992999991,None,None,None,None,None,None,,,,,,IA6LI11,1,Serial_COM3,C:\Users\EEG\Desktop\FINALCoScienceTasksLogfiles\,2022_Jan_05_1247,UltimatumGame,2020.1.3,60.09005095049733,
,Offer3,3,7,3,,,,,,,,,,,,,22,1,67,2,,,,,,,,,,,,,0.5247042498414057,510.94358510000166,None,7_3_V1.png,,,,,,,,,,,168,511.4831298000063,None,2,0.1990492000040831,511.4831298000063,None,511.4831298000063,None,None,None,511.7328685000102,None,511.7328685000102,None,None,None,None,None,None,,,,,,IA6LI11,1,Serial_COM3,C:\Users\EEG\Desktop\FINALCoScienceTasksLogfiles\,2022_Jan_05_1247,UltimatumGame,2020.1.3,60.09005095049733,
,Offer1,1,9,1,,,,,,,,,,,,,22,2,68,0,,,,,,,,,,,,,0.6064627384288296,512.7444967000047,None,9_1_V1.png,,,,,,,,,,,169,513.3673259000061,None,2,0.09579309998662211,513.3673259000061,None,513.3673259000061,None,None,None,513.5057652000105,None,513.5057652000105,None,None,None,None,None,None,,,,,,IA6LI11,1,Serial_COM3,C:\Users\EEG\Desktop\FINALCoScienceTasksLogfiles\,2022_Jan_05_1247,UltimatumGame,2020.1.3,60.09005095049733,
,Offer1,1,9,1,,,,,,,,,,,,,23,0,69,0,,,,,,,,,,,,,0.5840085470231086,514.5128906000027,None,9_1_V1.png,,,,,,,,,,,170,515.1179714000027,None,2,0.07822480000322685,515.1179714000027,None,515.1179714000027,None,None,None,515.2361466000002,None,515.2361466000002,None,None,None,None,None,None,,,,,,IA6LI11,1,Serial_COM3,C:\Users\EEG\Desktop\FINALCoScienceTasksLogfiles\,2022_Jan_05_1247,UltimatumGame,2020.1.3,60.09005095049733,
,Offer2,5,5,2,,,,,,,,,,,,,23,1,70,1,,,,,,,,,,,,,0.6412067588035169,516.2473372000095,None,5_5_V1.png,,,,,,,,,,,175,516.9039002000063,None,2,0.19342140000662766,516.9039002000063,None,516.9039002000063,None,None,None,517.1525840999966,None,517.1525840999966,None,None,None,None,None,None,,,,,,IA6LI11,1,Serial_COM3,C:\Users\EEG\Desktop\FINALCoScienceTasksLogfiles\,2022_Jan_05_1247,UltimatumGame,2020.1.3,60.09005095049733,
,Offer3,3,7,3,,,,,,,,,,,,,23,2,71,2,,,,,,,,,,,,,0.577068419536046,518.1658368000062,None,7_3_V1.png,,,,,,,,,,,178,518.7508089000039,None,2,0.3178656999953091,518.7508089000039,None,518.7508089000039,None,None,None,519.1057978000026,None,519.1057978000026,None,None,None,None,None,None,,,,,,IA6LI11,1,Serial_COM3,C:\Users\EEG\Desktop\FINALCoScienceTasksLogfiles\,2022_Jan_05_1247,UltimatumGame,2020.1.3,60.09005095049733,
,Offer3,3,7,3,,,,,,,,,,,,,24,0,72,2,,,,,,,,,,,,,0.6367278842577505,520.1174780000001,None,7_3_V1.png,,,,,,,,,,,178,520.7681486000074,None,4,0.2829818000027444,520.7681486000074,None,520.7681486000074,None,None,None,521.0912009000021,None,521.0912009000021,None,None,None,None,None,None,,,,,,IA6LI11,1,Serial_COM3,C:\Users\EEG\Desktop\FINALCoScienceTasksLogfiles\,2022_Jan_05_1247,UltimatumGame,2020.1.3,60.09005095049733,
,Offer1,1,9,1,,,,,,,,,,,,,24,1,73,0,,,,,,,,,,,,,0.5612305347084087,522.1026393000066,None,9_1_V1.png,,,,,,,,,,,179,522.6704680999974,None,2,0.18999790000088979,522.6704680999974,None,522.6704680999974,None,None,None,522.8937724999996,None,522.8937724999996,None,None,None,None,None,None,,,,,,IA6LI11,1,Serial_COM3,C:\Users\EEG\Desktop\FINALCoScienceTasksLogfiles\,2022_Jan_05_1247,UltimatumGame,2020.1.3,60.09005095049733,
,Offer2,5,5,2,,,,,,,,,,,,,24,2,74,1,,,,,,,,,,,,,0.5287720682288208,523.9036277999985,None,5_5_V1.png,,,,,,,,,,,184,524.4386780000059,None,2,0.23768099999870174,524.4386780000059,None,524.4386780000059,None,None,None,524.7186056000064,None,524.7186056000064,None,None,None,None,None,None,,,,,,IA6LI11,1,Serial_COM3,C:\Users\EEG\Desktop\FINALCoScienceTasksLogfiles\,2022_Jan_05_1247,UltimatumGame,2020.1.3,60.09005095049733,
,,,,,,,,,,,,,,,,,,,,,,,,,,,,,,,,,,,,,,,,,,,,,,,,,,,,,,,,,,,,,,,,,,,,525.7511511000048,535.7584866999969,525.7511511000048,535.7584866999969,,,,,,,,,
