"Onset","Duration","Participant","date_time","Running","Trial","Event","MoneyMagnitude","CardNumber","Feedback","Response","RT","Post_Trial"
165.412104411364,3.26169570024374,"AU06EL20","2022_Mar_01_1002","Practice",0,"Fixation",10,4,"reward",4,4.88554066794859,NA
168.648217823746,0.5,"AU06EL20","2022_Mar_01_1002","Practice",0,"Money",10,4,"reward",4,4.88554066794859,NA
169.148647513342,4.88554066794859,"AU06EL20","2022_Mar_01_1002","Practice",0,"Choice",10,4,"reward",4,4.88554066794859,NA
174.034188181291,0,"AU06EL20","2022_Mar_01_1002","Practice",0,"Response",10,4,"reward",4,4.88554066794859,NA
176.0549594289,1,"AU06EL20","2022_Mar_01_1002","Practice",0,"Feedback",10,4,"reward",4,4.88554066794859,NA
177.055822308621,2.99408644613963,"AU06EL20","2022_Mar_01_1002","Practice",1,"Fixation",10,5,"loss",4,0.893604713575769,"post_reward"
180.025034888578,0.5,"AU06EL20","2022_Mar_01_1002","Practice",1,"Money",10,5,"loss",4,0.893604713575769,"post_reward"
180.525481497385,0.893604713575769,"AU06EL20","2022_Mar_01_1002","Practice",1,"Choice",10,5,"loss",4,0.893604713575769,"post_reward"
181.419086210961,0,"AU06EL20","2022_Mar_01_1002","Practice",1,"Response",10,5,"loss",4,0.893604713575769,"post_reward"
183.427958586441,1,"AU06EL20","2022_Mar_01_1002","Practice",1,"Feedback",10,5,"loss",4,0.893604713575769,"post_reward"
184.428817965634,2.55725891364615,"AU06EL20","2022_Mar_01_1002","Practice",2,"Fixation",0,5,"reward",2,1.05723564609252,"post_break"
186.964329929266,0.5,"AU06EL20","2022_Mar_01_1002","Practice",2,"Money",0,5,"reward",2,1.05723564609252,"post_break"
187.464758160309,1.05723564609252,"AU06EL20","2022_Mar_01_1002","Practice",2,"Choice",0,5,"reward",2,1.05723564609252,"post_break"
188.521993806402,0,"AU06EL20","2022_Mar_01_1002","Practice",2,"Response",0,5,"reward",2,1.05723564609252,"post_break"
190.534064204319,1,"AU06EL20","2022_Mar_01_1002","Practice",2,"Feedback",0,5,"reward",2,1.05723564609252,"post_break"
191.534927667459,3.31000015937221,"AU06EL20","2022_Mar_01_1002","Practice",3,"Fixation",50,3,"reward",2,0.725743395090831,"post_break"
194.837758776403,0.5,"AU06EL20","2022_Mar_01_1002","Practice",3,"Money",50,3,"reward",2,0.725743395090831,"post_break"
195.338159586658,0.725743395090831,"AU06EL20","2022_Mar_01_1002","Practice",3,"Choice",50,3,"reward",2,0.725743395090831,"post_break"
196.063902981748,0,"AU06EL20","2022_Mar_01_1002","Practice",3,"Response",50,3,"reward",2,0.725743395090831,"post_break"
198.073872480496,1,"AU06EL20","2022_Mar_01_1002","Practice",3,"Feedback",50,3,"reward",2,0.725743395090831,"post_break"
199.074732151399,4.1144651119068,"AU06EL20","2022_Mar_01_1002","Practice",4,"Fixation",10,4,"reward",2,0.808803006719245,"post_break"
203.161579332425,0.5,"AU06EL20","2022_Mar_01_1002","Practice",4,"Money",10,4,"reward",2,0.808803006719245,"post_break"
203.662004938074,0.808803006719245,"AU06EL20","2022_Mar_01_1002","Practice",4,"Choice",10,4,"reward",2,0.808803006719245,"post_break"
204.470807944794,0,"AU06EL20","2022_Mar_01_1002","Practice",4,"Response",10,4,"reward",2,0.808803006719245,"post_break"
206.481092490903,1,"AU06EL20","2022_Mar_01_1002","Practice",4,"Feedback",10,4,"reward",2,0.808803006719245,"post_break"
207.481959746281,2.92436185698165,"AU06EL20","2022_Mar_01_1002","Practice",5,"Fixation",10,4,"loss",2,0.610842121599489,"post_reward"
210.384444419811,0.5,"AU06EL20","2022_Mar_01_1002","Practice",5,"Money",10,4,"loss",2,0.610842121599489,"post_reward"
210.884866524933,0.610842121599489,"AU06EL20","2022_Mar_01_1002","Practice",5,"Choice",10,4,"loss",2,0.610842121599489,"post_reward"
211.495708646533,0,"AU06EL20","2022_Mar_01_1002","Practice",5,"Response",10,4,"loss",2,0.610842121599489,"post_reward"
213.503793987029,1,"AU06EL20","2022_Mar_01_1002","Practice",5,"Feedback",10,4,"loss",2,0.610842121599489,"post_reward"
214.504657158459,3.25241858610404,"AU06EL20","2022_Mar_01_1002","Practice",6,"Fixation",0,5,"loss",2,1.35439006830711,"post_loss"
217.740765028342,0.5,"AU06EL20","2022_Mar_01_1002","Practice",6,"Money",0,5,"loss",2,1.35439006830711,"post_loss"
218.24120113557,1.35439006830711,"AU06EL20","2022_Mar_01_1002","Practice",6,"Choice",0,5,"loss",2,1.35439006830711,"post_loss"
219.595591203877,0,"AU06EL20","2022_Mar_01_1002","Practice",6,"Response",0,5,"loss",2,1.35439006830711,"post_loss"
221.61075373331,1,"AU06EL20","2022_Mar_01_1002","Practice",6,"Feedback",0,5,"loss",2,1.35439006830711,"post_loss"
222.611635282503,4.27896834818299,"AU06EL20","2022_Mar_01_1002","Practice",7,"Fixation",50,4,"loss",2,0.957802906370489,"post_loss"
226.865268245327,0.5,"AU06EL20","2022_Mar_01_1002","Practice",7,"Money",50,4,"loss",2,0.957802906370489,"post_loss"
227.365697059791,0.957802906370489,"AU06EL20","2022_Mar_01_1002","Practice",7,"Choice",50,4,"loss",2,0.957802906370489,"post_loss"
228.323499966162,0,"AU06EL20","2022_Mar_01_1002","Practice",7,"Response",50,4,"loss",2,0.957802906370489,"post_loss"
230.334913140276,1,"AU06EL20","2022_Mar_01_1002","Practice",7,"Feedback",50,4,"loss",2,0.957802906370489,"post_loss"
231.335777478547,4.34798506745777,"AU06EL20","2022_Mar_01_1002","Practice",8,"Fixation",0,7,"loss",4,0.956106609693961,"post_loss"
235.672833816017,0.5,"AU06EL20","2022_Mar_01_1002","Practice",8,"Money",0,7,"loss",4,0.956106609693961,"post_loss"
236.173262922191,0.956106609693961,"AU06EL20","2022_Mar_01_1002","Practice",8,"Choice",0,7,"loss",4,0.956106609693961,"post_loss"
237.129369531885,0,"AU06EL20","2022_Mar_01_1002","Practice",8,"Response",0,7,"loss",4,0.956106609693961,"post_loss"
239.142479586097,1,"AU06EL20","2022_Mar_01_1002","Practice",8,"Feedback",0,7,"loss",4,0.956106609693961,"post_loss"
240.14334392437,3.70781339605807,"AU06EL20","2022_Mar_01_1002","Practice",9,"Fixation",50,8,"reward",4,0.465996471470135,"post_loss"
243.829838835771,0.5,"AU06EL20","2022_Mar_01_1002","Practice",9,"Money",50,8,"reward",4,0.465996471470135,"post_loss"
244.330266483394,0.465996471470135,"AU06EL20","2022_Mar_01_1002","Practice",9,"Choice",50,8,"reward",4,0.465996471470135,"post_loss"
244.796262954864,0,"AU06EL20","2022_Mar_01_1002","Practice",9,"Response",50,8,"reward",4,0.465996471470135,"post_loss"
246.799058125071,1,"AU06EL20","2022_Mar_01_1002","Practice",9,"Feedback",50,8,"reward",4,0.465996471470135,"post_loss"
361.647704704941,3.99992862811643,"AU06EL20","2022_Mar_01_1002","MainTask",0,"Fixation",10,4,"loss",4,1.85251962045004,NA
365.617767912776,0.5,"AU06EL20","2022_Mar_01_1002","MainTask",0,"Money",10,4,"loss",4,1.85251962045004,NA
366.118199060926,1.85251962045004,"AU06EL20","2022_Mar_01_1002","MainTask",0,"Choice",10,4,"loss",4,1.85251962045004,NA
367.970718681376,0,"AU06EL20","2022_Mar_01_1002","MainTask",0,"Response",10,4,"loss",4,1.85251962045004,NA
369.988204976815,1,"AU06EL20","2022_Mar_01_1002","MainTask",0,"Feedback",10,4,"loss",4,1.85251962045004,NA
371.022416203235,3.64182748375956,"AU06EL20","2022_Mar_01_1002","MainTask",1,"Fixation",10,4,"loss",2,1.01794865661395,"post_loss"
374.64218349992,0.5,"AU06EL20","2022_Mar_01_1002","MainTask",1,"Money",10,4,"loss",2,1.01794865661395,"post_loss"
375.142612606094,1.01794865661395,"AU06EL20","2022_Mar_01_1002","MainTask",1,"Choice",10,4,"loss",2,1.01794865661395,"post_loss"
376.160561262708,0,"AU06EL20","2022_Mar_01_1002","MainTask",1,"Response",10,4,"loss",2,1.01794865661395,"post_loss"
378.161876002025,1,"AU06EL20","2022_Mar_01_1002","MainTask",1,"Feedback",10,4,"loss",2,1.01794865661395,"post_loss"
379.196093646078,3.15841596734098,"AU06EL20","2022_Mar_01_1002","MainTask",2,"Fixation",50,5,"reward",4,1.00794269405196,"post_break"
382.332125554542,0.5,"AU06EL20","2022_Mar_01_1002","MainTask",2,"Money",50,5,"reward",4,1.00794269405196,"post_break"
382.832551743611,1.00794269405196,"AU06EL20","2022_Mar_01_1002","MainTask",2,"Choice",50,5,"reward",4,1.00794269405196,"post_break"
383.840494437663,0,"AU06EL20","2022_Mar_01_1002","MainTask",2,"Response",50,5,"reward",4,1.00794269405196,"post_break"
385.868499814473,1,"AU06EL20","2022_Mar_01_1002","MainTask",2,"Feedback",50,5,"reward",4,1.00794269405196,"post_break"
386.90269878905,3.1239476321912,"AU06EL20","2022_Mar_01_1002","MainTask",3,"Fixation",10,5,"reward",4,0.795561974484372,"post_break"
390.005380600551,0.5,"AU06EL20","2022_Mar_01_1002","MainTask",3,"Money",10,5,"reward",4,0.795561974484372,"post_break"
390.505807373042,0.795561974484372,"AU06EL20","2022_Mar_01_1002","MainTask",3,"Choice",10,5,"reward",4,0.795561974484372,"post_break"
391.301369347526,0,"AU06EL20","2022_Mar_01_1002","MainTask",3,"Response",10,5,"reward",4,0.795561974484372,"post_break"
393.308179913047,1,"AU06EL20","2022_Mar_01_1002","MainTask",3,"Feedback",10,5,"reward",4,0.795561974484372,"post_break"
394.3257580973,4.0816020533291,"AU06EL20","2022_Mar_01_1002","MainTask",4,"Fixation",10,8,"loss",4,1.42790578683707,"post_break"
398.395919436554,0.5,"AU06EL20","2022_Mar_01_1002","MainTask",4,"Money",10,8,"loss",4,1.42790578683707,"post_break"
398.896335999178,1.42790578683707,"AU06EL20","2022_Mar_01_1002","MainTask",4,"Choice",10,8,"loss",4,1.42790578683707,"post_break"
400.324241786015,0,"AU06EL20","2022_Mar_01_1002","MainTask",4,"Response",10,8,"loss",4,1.42790578683707,"post_break"
402.349302053408,1,"AU06EL20","2022_Mar_01_1002","MainTask",4,"Feedback",10,8,"loss",4,1.42790578683707,"post_break"
403.383532824435,4.15894062946538,"AU06EL20","2022_Mar_01_1002","MainTask",5,"Fixation",50,4,"reward",2,1.2456167577202,"post_loss"
407.537128623337,0.5,"AU06EL20","2022_Mar_01_1002","MainTask",5,"Money",50,4,"reward",2,1.2456167577202,"post_loss"
408.037533517538,1.2456167577202,"AU06EL20","2022_Mar_01_1002","MainTask",5,"Choice",50,4,"reward",2,1.2456167577202,"post_loss"
409.283150275258,0,"AU06EL20","2022_Mar_01_1002","MainTask",5,"Response",50,4,"reward",2,1.2456167577202,"post_loss"
411.307004027938,1,"AU06EL20","2022_Mar_01_1002","MainTask",5,"Feedback",50,4,"reward",2,1.2456167577202,"post_loss"
412.341228381332,3.84858606545504,"AU06EL20","2022_Mar_01_1002","MainTask",6,"Fixation",10,5,"loss",4,1.67673690278025,"post_reward"
416.177855029206,0.5,"AU06EL20","2022_Mar_01_1002","MainTask",6,"Money",10,5,"loss",4,1.67673690278025,"post_reward"
416.67828880275,1.67673690278025,"AU06EL20","2022_Mar_01_1002","MainTask",6,"Choice",10,5,"loss",4,1.67673690278025,"post_reward"
418.35502570553,0,"AU06EL20","2022_Mar_01_1002","MainTask",6,"Response",10,5,"loss",4,1.67673690278025,"post_reward"
420.381465180266,1,"AU06EL20","2022_Mar_01_1002","MainTask",6,"Feedback",10,5,"loss",4,1.67673690278025,"post_reward"
421.415684282871,2.95372484293592,"AU06EL20","2022_Mar_01_1002","MainTask",7,"Fixation",10,5,"loss",4,1.01597144270636,"post_loss"
424.351540348232,0.5,"AU06EL20","2022_Mar_01_1002","MainTask",7,"Money",10,5,"loss",4,1.01597144270636,"post_loss"
424.851963036775,1.01597144270636,"AU06EL20","2022_Mar_01_1002","MainTask",7,"Choice",10,5,"loss",4,1.01597144270636,"post_loss"
425.867934479482,0,"AU06EL20","2022_Mar_01_1002","MainTask",7,"Response",10,5,"loss",4,1.01597144270636,"post_loss"
427.871229933233,1,"AU06EL20","2022_Mar_01_1002","MainTask",7,"Feedback",10,5,"loss",4,1.01597144270636,"post_loss"
428.888764360909,3.58329225729173,"AU06EL20","2022_Mar_01_1002","MainTask",8,"Fixation",10,5,"loss",4,0.766860284662471,"post_loss"
432.458500969646,0.5,"AU06EL20","2022_Mar_01_1002","MainTask",8,"Money",10,5,"loss",4,0.766860284662471,"post_loss"
432.958941452531,0.766860284662471,"AU06EL20","2022_Mar_01_1002","MainTask",8,"Choice",10,5,"loss",4,0.766860284662471,"post_loss"
433.725801737193,0,"AU06EL20","2022_Mar_01_1002","MainTask",8,"Response",10,5,"loss",4,0.766860284662471,"post_loss"
435.727978189387,1,"AU06EL20","2022_Mar_01_1002","MainTask",8,"Feedback",10,5,"loss",4,0.766860284662471,"post_loss"
436.7455219518,2.80809557218419,"AU06EL20","2022_Mar_01_1002","MainTask",9,"Fixation",50,3,"reward",2,1.33005732695165,"post_loss"
439.531252406612,0.5,"AU06EL20","2022_Mar_01_1002","MainTask",9,"Money",50,3,"reward",2,1.33005732695165,"post_loss"
440.031673636602,1.33005732695165,"AU06EL20","2022_Mar_01_1002","MainTask",9,"Choice",50,3,"reward",2,1.33005732695165,"post_loss"
441.361730963554,0,"AU06EL20","2022_Mar_01_1002","MainTask",9,"Response",50,3,"reward",2,1.33005732695165,"post_loss"
443.384552352703,1,"AU06EL20","2022_Mar_01_1002","MainTask",9,"Feedback",50,3,"reward",2,1.33005732695165,"post_loss"
444.418817837281,3.97220223145215,"AU06EL20","2022_Mar_01_1002","MainTask",10,"Fixation",10,5,"reward",2,1.05802238936667,"post_reward"
448.372169241109,0.5,"AU06EL20","2022_Mar_01_1002","MainTask",10,"Money",10,5,"reward",2,1.05802238936667,"post_reward"
448.872599222415,1.05802238936667,"AU06EL20","2022_Mar_01_1002","MainTask",10,"Choice",10,5,"reward",2,1.05802238936667,"post_reward"
449.930621611782,0,"AU06EL20","2022_Mar_01_1002","MainTask",10,"Response",10,5,"reward",2,1.05802238936667,"post_reward"
451.941901182478,1,"AU06EL20","2022_Mar_01_1002","MainTask",10,"Feedback",10,5,"reward",2,1.05802238936667,"post_reward"
452.959462739231,2.89938789567116,"AU06EL20","2022_Mar_01_1002","MainTask",11,"Fixation",50,5,"loss",2,0.704847295375657,"post_reward"
455.845257487043,0.5,"AU06EL20","2022_Mar_01_1002","MainTask",11,"Money",50,5,"loss",2,0.704847295375657,"post_reward"
456.345682217559,0.704847295375657,"AU06EL20","2022_Mar_01_1002","MainTask",11,"Choice",50,5,"loss",2,0.704847295375657,"post_reward"
457.050529512935,0,"AU06EL20","2022_Mar_01_1002","MainTask",11,"Response",50,5,"loss",2,0.704847295375657,"post_reward"
459.081365065214,1,"AU06EL20","2022_Mar_01_1002","MainTask",11,"Feedback",50,5,"loss",2,0.704847295375657,"post_reward"
460.115593210845,4.4786093159541,"AU06EL20","2022_Mar_01_1002","MainTask",12,"Fixation",0,4,"reward",2,1.16285789963877,"post_loss"
464.586093401042,0.5,"AU06EL20","2022_Mar_01_1002","MainTask",12,"Money",0,4,"reward",2,1.16285789963877,"post_loss"
465.086523674059,1.16285789963877,"AU06EL20","2022_Mar_01_1002","MainTask",12,"Choice",0,4,"reward",2,1.16285789963877,"post_loss"
466.249381573698,0,"AU06EL20","2022_Mar_01_1002","MainTask",12,"Response",0,4,"reward",2,1.16285789963877,"post_loss"
468.272591521258,1,"AU06EL20","2022_Mar_01_1002","MainTask",12,"Feedback",0,4,"reward",2,1.16285789963877,"post_loss"
469.273454400978,4.41225906598619,"AU06EL20","2022_Mar_01_1002","MainTask",13,"Fixation",0,5,"loss",2,0.813637233462941,"post_reward"
473.677233685798,0.5,"AU06EL20","2022_Mar_01_1002","MainTask",13,"Money",0,5,"loss",2,0.813637233462941,"post_reward"
474.177663375394,0.813637233462941,"AU06EL20","2022_Mar_01_1002","MainTask",13,"Choice",0,5,"loss",2,0.813637233462941,"post_reward"
474.991300608857,0,"AU06EL20","2022_Mar_01_1002","MainTask",13,"Response",0,5,"loss",2,0.813637233462941,"post_reward"
477.013432977757,1,"AU06EL20","2022_Mar_01_1002","MainTask",13,"Feedback",0,5,"loss",2,0.813637233462941,"post_reward"
478.014296149187,4.06656615318104,"AU06EL20","2022_Mar_01_1002","MainTask",14,"Fixation",10,8,"loss",4,0.788983610536889,"post_loss"
482.067773688645,0.5,"AU06EL20","2022_Mar_01_1002","MainTask",14,"Money",10,8,"loss",4,0.788983610536889,"post_loss"
482.568205128504,0.788983610536889,"AU06EL20","2022_Mar_01_1002","MainTask",14,"Choice",10,8,"loss",4,0.788983610536889,"post_loss"
483.357188739041,0,"AU06EL20","2022_Mar_01_1002","MainTask",14,"Response",10,8,"loss",4,0.788983610536889,"post_loss"
485.370614132324,1,"AU06EL20","2022_Mar_01_1002","MainTask",14,"Feedback",10,8,"loss",4,0.788983610536889,"post_loss"
486.40482769243,3.03530947447133,"AU06EL20","2022_Mar_01_1002","MainTask",15,"Fixation",10,5,"loss",2,1.04556459987907,"post_loss"
489.424093422043,0.5,"AU06EL20","2022_Mar_01_1002","MainTask",15,"Money",10,5,"loss",2,1.04556459987907,"post_loss"
489.92452223651,1.04556459987907,"AU06EL20","2022_Mar_01_1002","MainTask",15,"Choice",10,5,"loss",2,1.04556459987907,"post_loss"
490.970086836389,0,"AU06EL20","2022_Mar_01_1002","MainTask",15,"Response",10,5,"loss",2,1.04556459987907,"post_loss"
492.97714418901,1,"AU06EL20","2022_Mar_01_1002","MainTask",15,"Feedback",10,5,"loss",2,1.04556459987907,"post_loss"
493.994685034317,2.8938465416233,"AU06EL20","2022_Mar_01_1002","MainTask",16,"Fixation",0,5,"reward",2,0.812072789942249,"post_loss"
496.880496117916,0.5,"AU06EL20","2022_Mar_01_1002","MainTask",16,"Money",0,5,"reward",2,0.812072789942249,"post_loss"
497.380926099224,0.812072789942249,"AU06EL20","2022_Mar_01_1002","MainTask",16,"Choice",0,5,"reward",2,0.812072789942249,"post_loss"
498.192998889166,0,"AU06EL20","2022_Mar_01_1002","MainTask",16,"Response",0,5,"reward",2,0.812072789942249,"post_loss"
500.216693076192,1,"AU06EL20","2022_Mar_01_1002","MainTask",16,"Feedback",0,5,"reward",2,0.812072789942249,"post_loss"
501.21755537249,4.40443562202768,"AU06EL20","2022_Mar_01_1002","MainTask",17,"Fixation",50,5,"reward",2,1.08581685946774,"post_reward"
505.604675361195,0.5,"AU06EL20","2022_Mar_01_1002","MainTask",17,"Money",50,5,"reward",2,1.08581685946774,"post_reward"
506.105088131582,1.08581685946774,"AU06EL20","2022_Mar_01_1002","MainTask",17,"Choice",50,5,"reward",2,1.08581685946774,"post_reward"
507.19090499105,0,"AU06EL20","2022_Mar_01_1002","MainTask",17,"Response",50,5,"reward",2,1.08581685946774,"post_reward"
509.20774660624,1,"AU06EL20","2022_Mar_01_1002","MainTask",17,"Feedback",50,5,"reward",2,1.08581685946774,"post_reward"
510.241982628055,3.2082567505575,"AU06EL20","2022_Mar_01_1002","MainTask",18,"Fixation",0,3,"reward",2,3.24360774736488,"post_reward"
513.44472202321,0.5,"AU06EL20","2022_Mar_01_1002","MainTask",18,"Money",0,3,"reward",2,3.24360774736488,"post_reward"
513.945152004517,3.24360774736488,"AU06EL20","2022_Mar_01_1002","MainTask",18,"Choice",0,3,"reward",2,3.24360774736488,"post_reward"
517.188759751882,0,"AU06EL20","2022_Mar_01_1002","MainTask",18,"Response",0,3,"reward",2,3.24360774736488,"post_reward"
519.199663891139,1,"AU06EL20","2022_Mar_01_1002","MainTask",18,"Feedback",0,3,"reward",2,3.24360774736488,"post_reward"
520.20052852112,4.35416612097557,"AU06EL20","2022_Mar_01_1002","MainTask",19,"Fixation",50,5,"loss",4,2.10461322685478,"post_reward"
524.537581649774,0.5,"AU06EL20","2022_Mar_01_1002","MainTask",19,"Money",50,5,"loss",4,2.10461322685478,"post_reward"
525.038012214503,2.10461322685478,"AU06EL20","2022_Mar_01_1002","MainTask",19,"Choice",50,5,"loss",4,2.10461322685478,"post_reward"
527.142625441358,0,"AU06EL20","2022_Mar_01_1002","MainTask",19,"Response",50,5,"loss",4,2.10461322685478,"post_reward"
529.174899709922,1,"AU06EL20","2022_Mar_01_1002","MainTask",19,"Feedback",50,5,"loss",4,2.10461322685478,"post_reward"
530.209112103186,3.12285417452033,"AU06EL20","2022_Mar_01_1002","MainTask",20,"Fixation",50,4,"reward",2,2.08030003010572,"post_loss"
533.311787205343,0.5,"AU06EL20","2022_Mar_01_1002","MainTask",20,"Money",50,4,"reward",2,2.08030003010572,"post_loss"
533.812214852966,2.08030003010572,"AU06EL20","2022_Mar_01_1002","MainTask",20,"Choice",50,4,"reward",2,2.08030003010572,"post_loss"
535.892514883071,0,"AU06EL20","2022_Mar_01_1002","MainTask",20,"Response",50,4,"reward",2,2.08030003010572,"post_loss"
537.915737082474,1,"AU06EL20","2022_Mar_01_1002","MainTask",20,"Feedback",50,4,"reward",2,2.08030003010572,"post_loss"
538.949962894421,2.65930180534109,"AU06EL20","2022_Mar_01_1002","MainTask",21,"Fixation",0,4,"loss",4,1.06038757826536,"post_reward"
541.585556653683,0.5,"AU06EL20","2022_Mar_01_1002","MainTask",21,"Money",0,4,"loss",4,1.06038757826536,"post_reward"
542.085994802885,1.06038757826536,"AU06EL20","2022_Mar_01_1002","MainTask",21,"Choice",0,4,"loss",4,1.06038757826536,"post_reward"
543.14638238115,0,"AU06EL20","2022_Mar_01_1002","MainTask",21,"Response",0,4,"loss",4,1.06038757826536,"post_reward"
545.171984354982,1,"AU06EL20","2022_Mar_01_1002","MainTask",21,"Feedback",0,4,"loss",4,1.06038757826536,"post_reward"
546.172832940885,4.22908734693111,"AU06EL20","2022_Mar_01_1002","MainTask",22,"Fixation",10,5,"reward",2,0.953755131187791,"post_loss"
550.393119598979,0.5,"AU06EL20","2022_Mar_01_1002","MainTask",22,"Money",10,5,"reward",2,0.953755131187791,"post_loss"
550.893549580287,0.953755131187791,"AU06EL20","2022_Mar_01_1002","MainTask",22,"Choice",10,5,"reward",2,0.953755131187791,"post_loss"
551.847304711475,0,"AU06EL20","2022_Mar_01_1002","MainTask",22,"Response",10,5,"reward",2,0.953755131187791,"post_loss"
553.879450919121,1,"AU06EL20","2022_Mar_01_1002","MainTask",22,"Feedback",10,5,"reward",2,0.953755131187791,"post_loss"
554.913686357515,4.37284157606383,"AU06EL20","2022_Mar_01_1002","MainTask",23,"Fixation",50,4,"reward",2,1.08135106311056,"post_reward"
559.267410158993,0.5,"AU06EL20","2022_Mar_01_1002","MainTask",23,"Money",50,4,"reward",2,1.08135106311056,"post_reward"
559.767838098327,1.08135106311056,"AU06EL20","2022_Mar_01_1002","MainTask",23,"Choice",50,4,"reward",2,1.08135106311056,"post_reward"
560.849189161438,0,"AU06EL20","2022_Mar_01_1002","MainTask",23,"Response",50,4,"reward",2,1.08135106311056,"post_reward"
562.85382064937,1,"AU06EL20","2022_Mar_01_1002","MainTask",23,"Feedback",50,4,"reward",2,1.08135106311056,"post_reward"
563.871364120072,2.82131030420318,"AU06EL20","2022_Mar_01_1002","MainTask",24,"Fixation",50,5,"reward",4,1.34421024627409,"post_reward"
566.690453714875,0.5,"AU06EL20","2022_Mar_01_1002","MainTask",24,"Money",50,5,"reward",4,1.34421024627409,"post_reward"
567.190879028814,1.34421024627409,"AU06EL20","2022_Mar_01_1002","MainTask",24,"Choice",50,5,"reward",4,1.34421024627409,"post_reward"
568.535089275088,0,"AU06EL20","2022_Mar_01_1002","MainTask",24,"Response",50,5,"reward",4,1.34421024627409,"post_reward"
570.543758620046,1,"AU06EL20","2022_Mar_01_1002","MainTask",24,"Feedback",50,5,"reward",4,1.34421024627409,"post_reward"
571.561306174695,3.65683241472886,"AU06EL20","2022_Mar_01_1002","MainTask",25,"Fixation",0,5,"reward",4,0.959796747778455,"post_reward"
575.19776456394,0.5,"AU06EL20","2022_Mar_01_1002","MainTask",25,"Money",0,5,"reward",4,0.959796747778455,"post_reward"
575.698186377353,0.959796747778455,"AU06EL20","2022_Mar_01_1002","MainTask",25,"Choice",0,5,"reward",4,0.959796747778455,"post_reward"
576.657983125131,0,"AU06EL20","2022_Mar_01_1002","MainTask",25,"Response",0,5,"reward",4,0.959796747778455,"post_reward"
578.667405666651,1,"AU06EL20","2022_Mar_01_1002","MainTask",25,"Feedback",0,5,"reward",4,0.959796747778455,"post_reward"
579.668264462423,2.7891907002347,"AU06EL20","2022_Mar_01_1002","MainTask",26,"Fixation",10,5,"loss",4,0.575160674155995,"post_reward"
582.437307325201,0.5,"AU06EL20","2022_Mar_01_1002","MainTask",26,"Money",10,5,"loss",4,0.575160674155995,"post_reward"
582.937735847956,0.575160674155995,"AU06EL20","2022_Mar_01_1002","MainTask",26,"Choice",10,5,"loss",4,0.575160674155995,"post_reward"
583.512896522112,0,"AU06EL20","2022_Mar_01_1002","MainTask",26,"Response",10,5,"loss",4,0.575160674155995,"post_reward"
585.539973967752,1,"AU06EL20","2022_Mar_01_1002","MainTask",26,"Feedback",10,5,"loss",4,0.575160674155995,"post_reward"
586.574185777596,2.88769346250034,"AU06EL20","2022_Mar_01_1002","MainTask",27,"Fixation",10,5,"reward",2,1.11535634190295,"post_loss"
589.460007071062,0.5,"AU06EL20","2022_Mar_01_1002","MainTask",27,"Money",10,5,"reward",2,1.11535634190295,"post_loss"
589.960443470001,1.11535634190295,"AU06EL20","2022_Mar_01_1002","MainTask",27,"Choice",10,5,"reward",2,1.11535634190295,"post_loss"
591.075799811904,0,"AU06EL20","2022_Mar_01_1002","MainTask",27,"Response",10,5,"reward",2,1.11535634190295,"post_loss"
593.096460209517,1,"AU06EL20","2022_Mar_01_1002","MainTask",27,"Feedback",10,5,"reward",2,1.11535634190295,"post_loss"
594.130705566069,2.85202528342005,"AU06EL20","2022_Mar_01_1002","MainTask",28,"Fixation",10,5,"reward",2,0.972826873305166,"post_reward"
596.966450373038,0.5,"AU06EL20","2022_Mar_01_1002","MainTask",28,"Money",10,5,"reward",2,0.972826873305166,"post_reward"
597.466881229479,0.972826873305166,"AU06EL20","2022_Mar_01_1002","MainTask",28,"Choice",10,5,"reward",2,0.972826873305166,"post_reward"
598.439708102784,0,"AU06EL20","2022_Mar_01_1002","MainTask",28,"Response",10,5,"reward",2,0.972826873305166,"post_reward"
600.45278110976,1,"AU06EL20","2022_Mar_01_1002","MainTask",28,"Feedback",10,5,"reward",2,0.972826873305166,"post_reward"
601.470321663357,3.97969000534768,"AU06EL20","2022_Mar_01_1002","MainTask",29,"Fixation",10,4,"reward",2,1.97675329691265,"post_reward"
605.440395956191,0.5,"AU06EL20","2022_Mar_01_1002","MainTask",29,"Money",10,4,"reward",2,1.97675329691265,"post_reward"
605.940825062367,1.97675329691265,"AU06EL20","2022_Mar_01_1002","MainTask",29,"Choice",10,4,"reward",2,1.97675329691265,"post_reward"
607.91757835928,0,"AU06EL20","2022_Mar_01_1002","MainTask",29,"Response",10,4,"reward",2,1.97675329691265,"post_reward"
609.927554275659,1,"AU06EL20","2022_Mar_01_1002","MainTask",29,"Feedback",10,4,"reward",2,1.97675329691265,"post_reward"
610.945195469385,3.5575149514451,"AU06EL20","2022_Mar_01_1002","MainTask",30,"Fixation",0,4,"reward",2,1.12455164092898,"post_reward"
614.481496509976,0.5,"AU06EL20","2022_Mar_01_1002","MainTask",30,"Money",0,4,"reward",2,1.12455164092898,"post_reward"
614.981924449308,1.12455164092898,"AU06EL20","2022_Mar_01_1002","MainTask",30,"Choice",0,4,"reward",2,1.12455164092898,"post_reward"
616.106476090237,0,"AU06EL20","2022_Mar_01_1002","MainTask",30,"Response",0,4,"reward",2,1.12455164092898,"post_reward"
618.117968026192,1,"AU06EL20","2022_Mar_01_1002","MainTask",30,"Feedback",0,4,"reward",2,1.12455164092898,"post_reward"
619.118818945781,3.74728643272263,"AU06EL20","2022_Mar_01_1002","MainTask",31,"Fixation",50,5,"loss",2,1.09158426816975,"post_reward"
622.855352713024,0.5,"AU06EL20","2022_Mar_01_1002","MainTask",31,"Money",50,5,"loss",2,1.09158426816975,"post_reward"
623.3557818192,1.09158426816975,"AU06EL20","2022_Mar_01_1002","MainTask",31,"Choice",50,5,"loss",2,1.09158426816975,"post_reward"
624.44736608737,0,"AU06EL20","2022_Mar_01_1002","MainTask",31,"Response",50,5,"loss",2,1.09158426816975,"post_reward"
626.475125260496,1,"AU06EL20","2022_Mar_01_1002","MainTask",31,"Feedback",50,5,"loss",2,1.09158426816975,"post_reward"
627.509350197313,3.87535618279448,"AU06EL20","2022_Mar_01_1002","MainTask",32,"Fixation",50,4,"loss",2,1.25050524262224,"post_loss"
631.379337443728,0.5,"AU06EL20","2022_Mar_01_1002","MainTask",32,"Money",50,4,"loss",2,1.25050524262224,"post_loss"
631.879768300167,1.25050524262224,"AU06EL20","2022_Mar_01_1002","MainTask",32,"Choice",50,4,"loss",2,1.25050524262224,"post_loss"
633.130273542789,0,"AU06EL20","2022_Mar_01_1002","MainTask",32,"Response",50,4,"loss",2,1.25050524262224,"post_loss"
635.132558803007,1,"AU06EL20","2022_Mar_01_1002","MainTask",32,"Feedback",50,4,"loss",2,1.25050524262224,"post_loss"
636.150107232786,2.51676818681815,"AU06EL20","2022_Mar_01_1002","MainTask",33,"Fixation",50,5,"loss",2,1.10648338300052,"post_loss"
638.652248971428,0.5,"AU06EL20","2022_Mar_01_1002","MainTask",33,"Money",50,5,"loss",2,1.10648338300052,"post_loss"
639.152679244446,1.10648338300052,"AU06EL20","2022_Mar_01_1002","MainTask",33,"Choice",50,5,"loss",2,1.10648338300052,"post_loss"
640.259162627446,0,"AU06EL20","2022_Mar_01_1002","MainTask",33,"Response",50,5,"loss",2,1.10648338300052,"post_loss"
642.272025019427,1,"AU06EL20","2022_Mar_01_1002","MainTask",33,"Feedback",50,5,"loss",2,1.10648338300052,"post_loss"
643.289564989604,3.70202021091875,"AU06EL20","2022_Mar_01_1002","MainTask",34,"Fixation",0,4,"reward",2,1.95954879383498,"post_loss"
646.976064276663,0.5,"AU06EL20","2022_Mar_01_1002","MainTask",34,"Money",0,4,"reward",2,1.95954879383498,"post_loss"
647.476494549681,1.95954879383498,"AU06EL20","2022_Mar_01_1002","MainTask",34,"Choice",0,4,"reward",2,1.95954879383498,"post_loss"
649.436043343516,0,"AU06EL20","2022_Mar_01_1002","MainTask",34,"Response",0,4,"reward",2,1.95954879383498,"post_loss"
651.463255851129,1,"AU06EL20","2022_Mar_01_1002","MainTask",34,"Feedback",0,4,"reward",2,1.95954879383498,"post_loss"
652.464112896638,4.32072498542842,"AU06EL20","2022_Mar_01_1002","MainTask",35,"Fixation",0,4,"loss",2,1.14069373429083,"post_reward"
656.767810385827,0.5,"AU06EL20","2022_Mar_01_1002","MainTask",35,"Money",0,4,"loss",2,1.14069373429083,"post_reward"
657.268236283187,1.14069373429083,"AU06EL20","2022_Mar_01_1002","MainTask",35,"Choice",0,4,"loss",2,1.14069373429083,"post_reward"
658.408930017478,0,"AU06EL20","2022_Mar_01_1002","MainTask",35,"Response",0,4,"loss",2,1.14069373429083,"post_reward"
660.437626164799,1,"AU06EL20","2022_Mar_01_1002","MainTask",35,"Feedback",0,4,"loss",2,1.14069373429083,"post_reward"
661.438477667809,3.21443686486413,"AU06EL20","2022_Mar_01_1002","MainTask",36,"Fixation",50,5,"loss",4,1.43411892921358,"post_loss"
664.641233982175,0.5,"AU06EL20","2022_Mar_01_1002","MainTask",36,"Money",50,5,"loss",4,1.43411892921358,"post_loss"
665.141666588877,1.43411892921358,"AU06EL20","2022_Mar_01_1002","MainTask",36,"Choice",50,5,"loss",4,1.43411892921358,"post_loss"
666.575785518091,0,"AU06EL20","2022_Mar_01_1002","MainTask",36,"Response",50,5,"loss",4,1.43411892921358,"post_loss"
668.57794942673,1,"AU06EL20","2022_Mar_01_1002","MainTask",36,"Feedback",50,5,"loss",4,1.43411892921358,"post_loss"
669.612174071835,4.4081736709281,"AU06EL20","2022_Mar_01_1002","MainTask",37,"Fixation",0,4,"loss",2,2.38030592265568,"post_loss"
674.015965025075,0.5,"AU06EL20","2022_Mar_01_1002","MainTask",37,"Money",0,4,"loss",2,2.38030592265568,"post_loss"
674.516383337961,2.38030592265568,"AU06EL20","2022_Mar_01_1002","MainTask",37,"Choice",0,4,"loss",2,2.38030592265568,"post_loss"
676.896689260617,0,"AU06EL20","2022_Mar_01_1002","MainTask",37,"Response",0,4,"loss",2,2.38030592265568,"post_loss"
678.903487282589,1,"AU06EL20","2022_Mar_01_1002","MainTask",37,"Feedback",0,4,"loss",2,2.38030592265568,"post_loss"
679.904351329149,3.44721911988252,"AU06EL20","2022_Mar_01_1002","MainTask",38,"Fixation",0,5,"reward",2,1.48555653699805,"post_loss"
683.34062774937,0.5,"AU06EL20","2022_Mar_01_1002","MainTask",38,"Money",0,5,"reward",2,1.48555653699805,"post_loss"
683.841055688705,1.48555653699805,"AU06EL20","2022_Mar_01_1002","MainTask",38,"Choice",0,5,"reward",2,1.48555653699805,"post_loss"
685.326612225703,0,"AU06EL20","2022_Mar_01_1002","MainTask",38,"Response",0,5,"reward",2,1.48555653699805,"post_loss"
687.360744981996,1,"AU06EL20","2022_Mar_01_1002","MainTask",38,"Feedback",0,5,"reward",2,1.48555653699805,"post_loss"
688.361606111452,2.64132147499266,"AU06EL20","2022_Mar_01_1002","MainTask",39,"Fixation",50,4,"loss",2,0.778542707586894,"post_reward"
690.980521029995,0.5,"AU06EL20","2022_Mar_01_1002","MainTask",39,"Money",50,4,"loss",2,0.778542707586894,"post_reward"
691.480951303012,0.778542707586894,"AU06EL20","2022_Mar_01_1002","MainTask",39,"Choice",50,4,"loss",2,0.778542707586894,"post_reward"
692.259494010599,0,"AU06EL20","2022_Mar_01_1002","MainTask",39,"Response",50,4,"loss",2,0.778542707586894,"post_reward"
694.283362932227,1,"AU06EL20","2022_Mar_01_1002","MainTask",39,"Feedback",50,4,"loss",2,0.778542707586894,"post_reward"
695.317577950886,4.46972601975195,"AU06EL20","2022_Mar_01_1002","MainTask",40,"Fixation",10,3,"reward",2,1.50553579054758,"post_loss"
699.77140396773,0.5,"AU06EL20","2022_Mar_01_1002","MainTask",40,"Money",10,3,"reward",2,1.50553579054758,"post_loss"
700.271836574431,1.50553579054758,"AU06EL20","2022_Mar_01_1002","MainTask",40,"Choice",10,3,"reward",2,1.50553579054758,"post_loss"
701.777372364979,0,"AU06EL20","2022_Mar_01_1002","MainTask",40,"Response",10,3,"reward",2,1.50553579054758,"post_loss"
703.808205583573,1,"AU06EL20","2022_Mar_01_1002","MainTask",40,"Feedback",10,3,"reward",2,1.50553579054758,"post_loss"
704.842434312624,4.46162098097168,"AU06EL20","2022_Mar_01_1002","MainTask",41,"Fixation",0,5,"loss",2,0.850248654047391,"post_reward"
709.279580321909,0.5,"AU06EL20","2022_Mar_01_1002","MainTask",41,"Money",0,5,"loss",2,0.850248654047391,"post_reward"
709.780000676768,0.850248654047391,"AU06EL20","2022_Mar_01_1002","MainTask",41,"Choice",0,5,"loss",2,0.850248654047391,"post_reward"
710.630249330816,0,"AU06EL20","2022_Mar_01_1002","MainTask",41,"Response",0,5,"loss",2,0.850248654047391,"post_reward"
712.649132044517,1,"AU06EL20","2022_Mar_01_1002","MainTask",41,"Feedback",0,5,"loss",2,0.850248654047391,"post_reward"
713.649995799367,4.2769712659593,"AU06EL20","2022_Mar_01_1002","MainTask",42,"Fixation",0,8,"reward",4,2.40435628822706,"post_loss"
717.920328022647,0.5,"AU06EL20","2022_Mar_01_1002","MainTask",42,"Money",0,8,"reward",4,2.40435628822706,"post_loss"
718.420753044875,2.40435628822706,"AU06EL20","2022_Mar_01_1002","MainTask",42,"Choice",0,8,"reward",4,2.40435628822706,"post_loss"
720.825109333102,0,"AU06EL20","2022_Mar_01_1002","MainTask",42,"Response",0,8,"reward",4,2.40435628822706,"post_loss"
722.857897887316,1,"AU06EL20","2022_Mar_01_1002","MainTask",42,"Feedback",0,8,"reward",4,2.40435628822706,"post_loss"
723.858761058746,3.08976890073315,"AU06EL20","2022_Mar_01_1002","MainTask",43,"Fixation",0,5,"reward",4,1.33651900669065,"post_reward"
726.928061268543,0.5,"AU06EL20","2022_Mar_01_1002","MainTask",43,"Money",0,5,"reward",4,1.33651900669065,"post_reward"
727.428498542615,1.33651900669065,"AU06EL20","2022_Mar_01_1002","MainTask",43,"Choice",0,5,"reward",4,1.33651900669065,"post_reward"
728.765017549305,0,"AU06EL20","2022_Mar_01_1002","MainTask",43,"Response",0,5,"reward",4,1.33651900669065,"post_reward"
730.781368799109,1,"AU06EL20","2022_Mar_01_1002","MainTask",43,"Feedback",0,5,"reward",4,1.33651900669065,"post_reward"
731.782236054487,4.37028230895027,"AU06EL20","2022_Mar_01_1002","MainTask",44,"Fixation",0,4,"loss",2,1.49349193828857,"post_reward"
736.135960731097,0.5,"AU06EL20","2022_Mar_01_1002","MainTask",44,"Money",0,4,"loss",2,1.49349193828857,"post_reward"
736.636399755429,1.49349193828857,"AU06EL20","2022_Mar_01_1002","MainTask",44,"Choice",0,4,"loss",2,1.49349193828857,"post_reward"
738.129891693718,0,"AU06EL20","2022_Mar_01_1002","MainTask",44,"Response",0,4,"loss",2,1.49349193828857,"post_reward"
740.139408749448,1,"AU06EL20","2022_Mar_01_1002","MainTask",44,"Feedback",0,4,"loss",2,1.49349193828857,"post_reward"
741.1402558768,4.1825186498058,"AU06EL20","2022_Mar_01_1002","MainTask",45,"Fixation",0,5,"loss",4,1.33784337245197,"post_loss"
745.310510680105,0.5,"AU06EL20","2022_Mar_01_1002","MainTask",45,"Money",0,5,"loss",4,1.33784337245197,"post_loss"
745.810942703387,1.33784337245197,"AU06EL20","2022_Mar_01_1002","MainTask",45,"Choice",0,5,"loss",4,1.33784337245197,"post_loss"
747.148786075839,0,"AU06EL20","2022_Mar_01_1002","MainTask",45,"Response",0,5,"loss",4,1.33784337245197,"post_loss"
749.163822878039,1,"AU06EL20","2022_Mar_01_1002","MainTask",45,"Feedback",0,5,"loss",4,1.33784337245197,"post_loss"
750.164684590916,2.50048223914349,"AU06EL20","2022_Mar_01_1002","MainTask",46,"Fixation",0,4,"loss",4,0.9860868667256,"post_loss"
752.650154489891,0.5,"AU06EL20","2022_Mar_01_1002","MainTask",46,"Money",0,4,"loss",4,0.9860868667256,"post_loss"
753.15058592975,0.9860868667256,"AU06EL20","2022_Mar_01_1002","MainTask",46,"Choice",0,4,"loss",4,0.9860868667256,"post_loss"
754.136672796476,0,"AU06EL20","2022_Mar_01_1002","MainTask",46,"Response",0,4,"loss",4,0.9860868667256,"post_loss"
756.153161733648,1,"AU06EL20","2022_Mar_01_1002","MainTask",46,"Feedback",0,4,"loss",4,0.9860868667256,"post_loss"
757.15403190613,3.38132912964599,"AU06EL20","2022_Mar_01_1002","MainTask",47,"Fixation",0,7,"reward",4,2.39156624045791,"post_loss"
760.523581586765,0.5,"AU06EL20","2022_Mar_01_1002","MainTask",47,"Money",0,7,"reward",4,2.39156624045791,"post_loss"
761.024008942677,2.39156624045791,"AU06EL20","2022_Mar_01_1002","MainTask",47,"Choice",0,7,"reward",4,2.39156624045791,"post_loss"
763.415575183135,0,"AU06EL20","2022_Mar_01_1002","MainTask",47,"Response",0,7,"reward",4,2.39156624045791,"post_loss"
765.427789686049,1,"AU06EL20","2022_Mar_01_1002","MainTask",47,"Feedback",0,7,"reward",4,2.39156624045791,"post_loss"
766.428651107217,2.59159336298066,"AU06EL20","2022_Mar_01_1002","MainTask",48,"Fixation",10,5,"reward",4,1.44552393543199,"post_reward"
768.997520752286,0.5,"AU06EL20","2022_Mar_01_1002","MainTask",48,"Money",10,5,"reward",4,1.44552393543199,"post_reward"
769.497953650698,1.44552393543199,"AU06EL20","2022_Mar_01_1002","MainTask",48,"Choice",10,5,"reward",4,1.44552393543199,"post_reward"
770.94347758613,0,"AU06EL20","2022_Mar_01_1002","MainTask",48,"Response",10,5,"reward",4,1.44552393543199,"post_reward"
772.950929914798,1,"AU06EL20","2022_Mar_01_1002","MainTask",48,"Feedback",10,5,"reward",4,1.44552393543199,"post_reward"
773.98513647385,4.37121298925141,"AU06EL20","2022_Mar_01_1002","MainTask",49,"Fixation",10,5,"reward",4,1.19905479957197,"post_reward"
778.338878361379,0.5,"AU06EL20","2022_Mar_01_1002","MainTask",49,"Money",10,5,"reward",4,1.19905479957197,"post_reward"
778.839306009004,1.19905479957197,"AU06EL20","2022_Mar_01_1002","MainTask",49,"Choice",10,5,"reward",4,1.19905479957197,"post_reward"
780.038360808576,0,"AU06EL20","2022_Mar_01_1002","MainTask",49,"Response",10,5,"reward",4,1.19905479957197,"post_reward"
782.042058239422,1,"AU06EL20","2022_Mar_01_1002","MainTask",49,"Feedback",10,5,"reward",4,1.19905479957197,"post_reward"
783.05959966815,3.89829703980517,"AU06EL20","2022_Mar_01_1002","MainTask",50,"Fixation",10,4,"reward",2,4.15550941991569,"post_reward"
786.946269547521,0.5,"AU06EL20","2022_Mar_01_1002","MainTask",50,"Money",10,4,"reward",2,4.15550941991569,"post_reward"
787.44670011225,4.15550941991569,"AU06EL20","2022_Mar_01_1002","MainTask",50,"Choice",10,4,"reward",2,4.15550941991569,"post_reward"
791.602209532166,0,"AU06EL20","2022_Mar_01_1002","MainTask",50,"Response",10,4,"reward",2,4.15550941991569,"post_reward"
793.618667256311,1,"AU06EL20","2022_Mar_01_1002","MainTask",50,"Feedback",10,4,"reward",2,4.15550941991569,"post_reward"
794.636208685039,3.44921286805331,"AU06EL20","2022_Mar_01_1002","MainTask",51,"Fixation",50,5,"reward",4,1.63017581976601,"post_reward"
798.072490647761,0.5,"AU06EL20","2022_Mar_01_1002","MainTask",51,"Money",50,5,"reward",4,1.63017581976601,"post_reward"
798.572924129594,1.63017581976601,"AU06EL20","2022_Mar_01_1002","MainTask",51,"Choice",50,5,"reward",4,1.63017581976601,"post_reward"
800.20309994936,0,"AU06EL20","2022_Mar_01_1002","MainTask",51,"Response",50,5,"reward",4,1.63017581976601,"post_reward"
802.209395062391,1,"AU06EL20","2022_Mar_01_1002","MainTask",51,"Feedback",50,5,"reward",4,1.63017581976601,"post_reward"
803.226925697829,3.14614654127903,"AU06EL20","2022_Mar_01_1002","MainTask",52,"Fixation",0,4,"loss",2,1.19930625404049,"post_reward"
806.346263013205,0.5,"AU06EL20","2022_Mar_01_1002","MainTask",52,"Money",0,4,"loss",2,1.19930625404049,"post_reward"
806.846692411093,1.19930625404049,"AU06EL20","2022_Mar_01_1002","MainTask",52,"Choice",0,4,"loss",2,1.19930625404049,"post_reward"
808.045998665133,0,"AU06EL20","2022_Mar_01_1002","MainTask",52,"Response",0,4,"loss",2,1.19930625404049,"post_reward"
810.066124649073,1,"AU06EL20","2022_Mar_01_1002","MainTask",52,"Feedback",0,4,"loss",2,1.19930625404049,"post_reward"
811.066985778529,3.31675883999029,"AU06EL20","2022_Mar_01_1002","MainTask",53,"Fixation",10,4,"reward",2,2.15763307250563,"post_loss"
814.369818054314,0.5,"AU06EL20","2022_Mar_01_1002","MainTask",53,"Money",10,4,"reward",2,2.15763307250563,"post_loss"
814.870250952727,2.15763307250563,"AU06EL20","2022_Mar_01_1002","MainTask",53,"Choice",10,4,"reward",2,2.15763307250563,"post_loss"
817.027884025232,0,"AU06EL20","2022_Mar_01_1002","MainTask",53,"Response",10,4,"reward",2,2.15763307250563,"post_loss"
819.057180512804,1,"AU06EL20","2022_Mar_01_1002","MainTask",53,"Feedback",10,4,"reward",2,2.15763307250563,"post_loss"
820.091395823172,3.05300300707863,"AU06EL20","2022_Mar_01_1002","MainTask",54,"Fixation",50,4,"loss",2,2.67899240852421,"post_reward"
823.127341268637,0.5,"AU06EL20","2022_Mar_01_1002","MainTask",54,"Money",50,4,"loss",2,2.67899240852421,"post_reward"
823.627769499681,2.67899240852421,"AU06EL20","2022_Mar_01_1002","MainTask",54,"Choice",50,4,"loss",2,2.67899240852421,"post_reward"
826.306761908205,0,"AU06EL20","2022_Mar_01_1002","MainTask",54,"Response",50,4,"loss",2,2.67899240852421,"post_reward"
828.331811674021,1,"AU06EL20","2022_Mar_01_1002","MainTask",54,"Feedback",50,4,"loss",2,2.67899240852421,"post_reward"
829.36607219952,4.13826311367312,"AU06EL20","2022_Mar_01_1002","MainTask",55,"Fixation",50,5,"reward",4,1.86429480731931,"post_loss"
833.502917980337,0.5,"AU06EL20","2022_Mar_01_1002","MainTask",55,"Money",50,5,"reward",4,1.86429480731931,"post_loss"
834.003348253354,1.86429480731931,"AU06EL20","2022_Mar_01_1002","MainTask",55,"Choice",50,5,"reward",4,1.86429480731931,"post_loss"
835.867643060674,0,"AU06EL20","2022_Mar_01_1002","MainTask",55,"Response",50,5,"reward",4,1.86429480731931,"post_loss"
837.890022800095,1,"AU06EL20","2022_Mar_01_1002","MainTask",55,"Feedback",50,5,"reward",4,1.86429480731931,"post_loss"
838.924237818752,4.23146297004635,"AU06EL20","2022_Mar_01_1002","MainTask",56,"Fixation",10,6,"loss",4,2.92953849061996,"post_reward"
843.144531769609,0.5,"AU06EL20","2022_Mar_01_1002","MainTask",56,"Money",10,6,"loss",4,2.92953849061996,"post_reward"
843.644963792889,2.92953849061996,"AU06EL20","2022_Mar_01_1002","MainTask",56,"Choice",10,6,"loss",4,2.92953849061996,"post_reward"
846.574502283509,0,"AU06EL20","2022_Mar_01_1002","MainTask",56,"Response",10,6,"loss",4,2.92953849061996,"post_reward"
848.599216873936,1,"AU06EL20","2022_Mar_01_1002","MainTask",56,"Feedback",10,6,"loss",4,2.92953849061996,"post_reward"
849.633441810753,3.99956450726801,"AU06EL20","2022_Mar_01_1002","MainTask",57,"Fixation",10,4,"reward",2,1.22276153015082,"post_loss"
853.620198444833,0.5,"AU06EL20","2022_Mar_01_1002","MainTask",57,"Money",10,4,"reward",2,1.22276153015082,"post_loss"
854.120625800744,1.22276153015082,"AU06EL20","2022_Mar_01_1002","MainTask",57,"Choice",10,4,"reward",2,1.22276153015082,"post_loss"
855.343387330895,0,"AU06EL20","2022_Mar_01_1002","MainTask",57,"Response",10,4,"reward",2,1.22276153015082,"post_loss"
857.373416303584,1,"AU06EL20","2022_Mar_01_1002","MainTask",57,"Feedback",10,4,"reward",2,1.22276153015082,"post_loss"
858.407635114478,3.32383898876164,"AU06EL20","2022_Mar_01_1002","MainTask",58,"Fixation",50,4,"reward",2,0.836382486166258,"post_reward"
861.710476141579,0.5,"AU06EL20","2022_Mar_01_1002","MainTask",58,"Money",50,4,"reward",2,0.836382486166258,"post_reward"
862.210904664335,0.836382486166258,"AU06EL20","2022_Mar_01_1002","MainTask",58,"Choice",50,4,"reward",2,0.836382486166258,"post_reward"
863.047287150501,0,"AU06EL20","2022_Mar_01_1002","MainTask",58,"Response",50,4,"reward",2,0.836382486166258,"post_reward"
865.0633609836,1,"AU06EL20","2022_Mar_01_1002","MainTask",58,"Feedback",50,4,"reward",2,0.836382486166258,"post_reward"
866.080896578118,2.82914528760778,"AU06EL20","2022_Mar_01_1002","MainTask",59,"Fixation",10,5,"reward",4,1.53777067819283,"post_reward"
868.899987339762,0.5,"AU06EL20","2022_Mar_01_1002","MainTask",59,"Money",10,5,"reward",4,1.53777067819283,"post_reward"
869.400412945413,1.53777067819283,"AU06EL20","2022_Mar_01_1002","MainTask",59,"Choice",10,5,"reward",4,1.53777067819283,"post_reward"
870.938183623606,0,"AU06EL20","2022_Mar_01_1002","MainTask",59,"Response",10,5,"reward",4,1.53777067819283,"post_reward"
872.953463420667,1,"AU06EL20","2022_Mar_01_1002","MainTask",59,"Feedback",10,5,"reward",4,1.53777067819283,"post_reward"
873.971004849396,122.459122313054,"AU06EL20","2022_Mar_01_1002","MainTask",1,"Break",NA,NA,NA,NA,122.459122313054,NA
997.460387169871,4.42733844912583,"AU06EL20","2022_Mar_01_1002","MainTask",60,"Fixation",10,8,"reward",4,0.928874265766353,NA
1001.86416966351,0.5,"AU06EL20","2022_Mar_01_1002","MainTask",60,"Money",10,8,"reward",4,0.928874265766353,NA
1002.36460256192,0.928874265766353,"AU06EL20","2022_Mar_01_1002","MainTask",60,"Choice",10,8,"reward",4,0.928874265766353,NA
1003.29347682768,0,"AU06EL20","2022_Mar_01_1002","MainTask",60,"Response",10,8,"reward",4,0.928874265766353,NA
1005.30045658531,1,"AU06EL20","2022_Mar_01_1002","MainTask",60,"Feedback",10,8,"reward",4,0.928874265766353,NA
1006.31799830575,3.11539374096111,"AU06EL20","2022_Mar_01_1002","MainTask",61,"Fixation",10,5,"reward",4,1.31497122567271,"post_reward"
1009.40398727442,0.5,"AU06EL20","2022_Mar_01_1002","MainTask",61,"Money",10,5,"reward",4,1.31497122567271,"post_reward"
1009.90440937954,1.31497122567271,"AU06EL20","2022_Mar_01_1002","MainTask",61,"Choice",10,5,"reward",4,1.31497122567271,"post_reward"
1011.21938060522,0,"AU06EL20","2022_Mar_01_1002","MainTask",61,"Response",10,5,"reward",4,1.31497122567271,"post_reward"
1013.22392662197,1,"AU06EL20","2022_Mar_01_1002","MainTask",61,"Feedback",10,5,"reward",4,1.31497122567271,"post_reward"
1014.24147709372,3.57699031406173,"AU06EL20","2022_Mar_01_1002","MainTask",62,"Fixation",10,3,"loss",2,1.10831182454422,"post_reward"
1017.79452902753,0.5,"AU06EL20","2022_Mar_01_1002","MainTask",62,"Money",10,3,"loss",2,1.10831182454422,"post_reward"
1018.29494909068,1.10831182454422,"AU06EL20","2022_Mar_01_1002","MainTask",62,"Choice",10,3,"loss",2,1.10831182454422,"post_reward"
1019.40326091522,0,"AU06EL20","2022_Mar_01_1002","MainTask",62,"Response",10,3,"loss",2,1.10831182454422,"post_reward"
1021.43097866546,1,"AU06EL20","2022_Mar_01_1002","MainTask",62,"Feedback",10,3,"loss",2,1.10831182454422,"post_reward"
1022.46520506083,2.92642734112619,"AU06EL20","2022_Mar_01_1002","MainTask",63,"Fixation",10,4,"loss",2,2.91503055959402,"post_loss"
1025.36769235975,0.5,"AU06EL20","2022_Mar_01_1002","MainTask",63,"Money",10,4,"loss",2,2.91503055959402,"post_loss"
1025.86811913224,2.91503055959402,"AU06EL20","2022_Mar_01_1002","MainTask",63,"Choice",10,4,"loss",2,2.91503055959402,"post_loss"
1028.78314969184,0,"AU06EL20","2022_Mar_01_1002","MainTask",63,"Response",10,4,"loss",2,2.91503055959402,"post_loss"
1030.78901073961,1,"AU06EL20","2022_Mar_01_1002","MainTask",63,"Feedback",10,4,"loss",2,2.91503055959402,"post_loss"
1031.80655246005,3.59388924212873,"AU06EL20","2022_Mar_01_1002","MainTask",64,"Fixation",10,4,"reward",2,1.07863815526798,"post_loss"
1035.39296732609,0.5,"AU06EL20","2022_Mar_01_1002","MainTask",64,"Money",10,4,"reward",2,1.07863815526798,"post_loss"
1035.89340460016,1.07863815526798,"AU06EL20","2022_Mar_01_1002","MainTask",64,"Choice",10,4,"reward",2,1.07863815526798,"post_loss"
1036.97204275543,0,"AU06EL20","2022_Mar_01_1002","MainTask",64,"Response",10,4,"reward",2,1.07863815526798,"post_loss"
1038.99618646836,1,"AU06EL20","2022_Mar_01_1002","MainTask",64,"Feedback",10,4,"reward",2,1.07863815526798,"post_loss"
1040.03027721834,2.73054016438092,"AU06EL20","2022_Mar_01_1002","MainTask",65,"Fixation",50,5,"loss",4,1.23625109974819,"post_reward"
1042.7492818087,0.5,"AU06EL20","2022_Mar_01_1002","MainTask",65,"Money",50,5,"loss",4,1.23625109974819,"post_reward"
1043.24971470711,1.23625109974819,"AU06EL20","2022_Mar_01_1002","MainTask",65,"Choice",50,5,"loss",4,1.23625109974819,"post_reward"
1044.48596580686,0,"AU06EL20","2022_Mar_01_1002","MainTask",65,"Response",50,5,"loss",4,1.23625109974819,"post_reward"
1046.51918725948,1,"AU06EL20","2022_Mar_01_1002","MainTask",65,"Feedback",50,5,"loss",4,1.23625109974819,"post_reward"
1047.55341044604,3.75329881304552,"AU06EL20","2022_Mar_01_1002","MainTask",66,"Fixation",50,4,"loss",2,1.03744629609355,"post_loss"
1051.28995063091,0.5,"AU06EL20","2022_Mar_01_1002","MainTask",66,"Money",50,4,"loss",2,1.03744629609355,"post_loss"
1051.79038148735,1.03744629609355,"AU06EL20","2022_Mar_01_1002","MainTask",66,"Choice",50,4,"loss",2,1.03744629609355,"post_loss"
1052.82782778344,0,"AU06EL20","2022_Mar_01_1002","MainTask",66,"Response",50,4,"loss",2,1.03744629609355,"post_loss"
1054.84300635696,1,"AU06EL20","2022_Mar_01_1002","MainTask",66,"Feedback",50,4,"loss",2,1.03744629609355,"post_loss"
1055.86054720226,2.73656213080169,"AU06EL20","2022_Mar_01_1002","MainTask",67,"Fixation",0,4,"reward",2,1.76879724251921,"post_loss"
1058.5795622942,0.5,"AU06EL20","2022_Mar_01_1002","MainTask",67,"Money",0,4,"reward",2,1.76879724251921,"post_loss"
1059.07997477287,1.76879724251921,"AU06EL20","2022_Mar_01_1002","MainTask",67,"Choice",0,4,"reward",2,1.76879724251921,"post_loss"
1060.84877201539,0,"AU06EL20","2022_Mar_01_1002","MainTask",67,"Response",0,4,"reward",2,1.76879724251921,"post_loss"
1062.86656110635,1,"AU06EL20","2022_Mar_01_1002","MainTask",67,"Feedback",0,4,"reward",2,1.76879724251921,"post_loss"
1063.86742340265,4.21803472139318,"AU06EL20","2022_Mar_01_1002","MainTask",68,"Fixation",50,4,"loss",2,2.09814396264301,"post_reward"
1068.07104872266,0.5,"AU06EL20","2022_Mar_01_1002","MainTask",68,"Money",50,4,"loss",2,2.09814396264301,"post_reward"
1068.5714629516,2.09814396264301,"AU06EL20","2022_Mar_01_1002","MainTask",68,"Choice",50,4,"loss",2,2.09814396264301,"post_reward"
1070.66960691424,0,"AU06EL20","2022_Mar_01_1002","MainTask",68,"Response",50,4,"loss",2,2.09814396264301,"post_reward"
1072.6916660638,1,"AU06EL20","2022_Mar_01_1002","MainTask",68,"Feedback",50,4,"loss",2,2.09814396264301,"post_reward"
1073.72588895864,2.57122563317112,"AU06EL20","2022_Mar_01_1002","MainTask",69,"Fixation",50,5,"loss",4,0.86802636829816,"post_loss"
1076.27807597075,0.5,"AU06EL20","2022_Mar_01_1002","MainTask",69,"Money",50,5,"loss",4,0.86802636829816,"post_loss"
1076.77851411996,0.86802636829816,"AU06EL20","2022_Mar_01_1002","MainTask",69,"Choice",50,5,"loss",4,0.86802636829816,"post_loss"
1077.64654048825,0,"AU06EL20","2022_Mar_01_1002","MainTask",69,"Response",50,5,"loss",4,0.86802636829816,"post_loss"
1079.66431907763,1,"AU06EL20","2022_Mar_01_1002","MainTask",69,"Feedback",50,5,"loss",4,0.86802636829816,"post_loss"
1080.68186225663,3.46156247036426,"AU06EL20","2022_Mar_01_1002","MainTask",70,"Fixation",50,4,"loss",4,0.671164064997356,"post_loss"
1084.13482510204,0.5,"AU06EL20","2022_Mar_01_1002","MainTask",70,"Money",50,4,"loss",4,0.671164064997356,"post_loss"
1084.63525333308,0.671164064997356,"AU06EL20","2022_Mar_01_1002","MainTask",70,"Choice",50,4,"loss",4,0.671164064997356,"post_loss"
1085.30641739808,0,"AU06EL20","2022_Mar_01_1002","MainTask",70,"Response",50,4,"loss",4,0.671164064997356,"post_loss"
1087.32089528292,1,"AU06EL20","2022_Mar_01_1002","MainTask",70,"Feedback",50,4,"loss",4,0.671164064997356,"post_loss"
1088.33844225415,4.3222438097883,"AU06EL20","2022_Mar_01_1002","MainTask",71,"Fixation",50,4,"loss",2,1.0767332855703,"post_loss"
1092.64213361742,0.5,"AU06EL20","2022_Mar_01_1002","MainTask",71,"Money",50,4,"loss",2,1.0767332855703,"post_loss"
1093.14257322517,1.0767332855703,"AU06EL20","2022_Mar_01_1002","MainTask",71,"Choice",50,4,"loss",2,1.0767332855703,"post_loss"
1094.21930651074,0,"AU06EL20","2022_Mar_01_1002","MainTask",71,"Response",50,4,"loss",2,1.0767332855703,"post_loss"
1096.22854819174,1,"AU06EL20","2022_Mar_01_1002","MainTask",71,"Feedback",50,4,"loss",2,1.0767332855703,"post_loss"
1097.24608611995,3.80955256065333,"AU06EL20","2022_Mar_01_1002","MainTask",72,"Fixation",10,4,"loss",2,1.58208734046275,"post_loss"
1101.0326800379,0.5,"AU06EL20","2022_Mar_01_1002","MainTask",72,"Money",10,4,"loss",2,1.58208734046275,"post_loss"
1101.53309980934,1.58208734046275,"AU06EL20","2022_Mar_01_1002","MainTask",72,"Choice",10,4,"loss",2,1.58208734046275,"post_loss"
1103.1151871498,0,"AU06EL20","2022_Mar_01_1002","MainTask",72,"Response",10,4,"loss",2,1.58208734046275,"post_loss"
1105.11951146656,1,"AU06EL20","2022_Mar_01_1002","MainTask",72,"Feedback",10,4,"loss",2,1.58208734046275,"post_loss"
1106.13705406213,3.95034121747284,"AU06EL20","2022_Mar_01_1002","MainTask",73,"Fixation",0,5,"reward",4,1.11954297129341,"post_loss"
1110.07376804813,0.5,"AU06EL20","2022_Mar_01_1002","MainTask",73,"Money",0,5,"reward",4,1.11954297129341,"post_loss"
1110.55751656332,1.11954297129341,"AU06EL20","2022_Mar_01_1002","MainTask",73,"Choice",0,5,"reward",4,1.11954297129341,"post_loss"
1111.67705953462,0,"AU06EL20","2022_Mar_01_1002","MainTask",73,"Response",0,5,"reward",4,1.11954297129341,"post_loss"
1113.71022527053,1,"AU06EL20","2022_Mar_01_1002","MainTask",73,"Feedback",0,5,"reward",4,1.11954297129341,"post_loss"
1114.71108610828,4.34732501161145,"AU06EL20","2022_Mar_01_1002","MainTask",74,"Fixation",10,5,"reward",4,1.19509745465075,"post_reward"
1119.03146214647,0.5,"AU06EL20","2022_Mar_01_1002","MainTask",74,"Money",10,5,"reward",4,1.19509745465075,"post_reward"
1119.53188250134,1.19509745465075,"AU06EL20","2022_Mar_01_1002","MainTask",74,"Choice",10,5,"reward",4,1.19509745465075,"post_reward"
1120.72697995599,0,"AU06EL20","2022_Mar_01_1002","MainTask",74,"Response",10,5,"reward",4,1.19509745465075,"post_reward"
1122.7346443582,1,"AU06EL20","2022_Mar_01_1002","MainTask",74,"Feedback",10,5,"reward",4,1.19509745465075,"post_reward"
1123.7688853391,2.7906666154442,"AU06EL20","2022_Mar_01_1002","MainTask",75,"Fixation",0,5,"reward",4,2.96178446326303,"post_reward"
1126.55459158193,0.5,"AU06EL20","2022_Mar_01_1002","MainTask",75,"Money",0,5,"reward",4,2.96178446326303,"post_reward"
1127.05502681403,2.96178446326303,"AU06EL20","2022_Mar_01_1002","MainTask",75,"Choice",0,5,"reward",4,2.96178446326303,"post_reward"
1130.01681127729,0,"AU06EL20","2022_Mar_01_1002","MainTask",75,"Response",0,5,"reward",4,2.96178446326303,"post_reward"
1132.0259561104,1,"AU06EL20","2022_Mar_01_1002","MainTask",75,"Feedback",0,5,"reward",4,2.96178446326303,"post_reward"
1133.02681694815,3.93828873674438,"AU06EL20","2022_Mar_01_1002","MainTask",76,"Fixation",10,4,"loss",2,1.91843919702478,"post_reward"
1136.94684975975,0.5,"AU06EL20","2022_Mar_01_1002","MainTask",76,"Money",10,4,"loss",2,1.91843919702478,"post_reward"
1137.44727944934,1.91843919702478,"AU06EL20","2022_Mar_01_1002","MainTask",76,"Choice",10,4,"loss",2,1.91843919702478,"post_reward"
1139.36571864637,0,"AU06EL20","2022_Mar_01_1002","MainTask",76,"Response",10,4,"loss",2,1.91843919702478,"post_reward"
1141.38398760114,1,"AU06EL20","2022_Mar_01_1002","MainTask",76,"Feedback",10,4,"loss",2,1.91843919702478,"post_reward"
1142.41821574677,3.78587801663563,"AU06EL20","2022_Mar_01_1002","MainTask",77,"Fixation",50,6,"loss",4,1.45505120103189,"post_loss"
1146.18811536334,0.5,"AU06EL20","2022_Mar_01_1002","MainTask",77,"Money",50,6,"loss",4,1.45505120103189,"post_loss"
1146.68854592807,1.45505120103189,"AU06EL20","2022_Mar_01_1002","MainTask",77,"Choice",50,6,"loss",4,1.45505120103189,"post_loss"
1148.1435971291,0,"AU06EL20","2022_Mar_01_1002","MainTask",77,"Response",50,6,"loss",4,1.45505120103189,"post_loss"
1150.15820015776,1,"AU06EL20","2022_Mar_01_1002","MainTask",77,"Feedback",50,6,"loss",4,1.45505120103189,"post_loss"
1151.17573721083,3.53056338772273,"AU06EL20","2022_Mar_01_1002","MainTask",78,"Fixation",0,5,"loss",4,1.18764775137788,"post_loss"
1154.69542125333,0.5,"AU06EL20","2022_Mar_01_1002","MainTask",78,"Money",0,5,"loss",4,1.18764775137788,"post_loss"
1155.19585210977,1.18764775137788,"AU06EL20","2022_Mar_01_1002","MainTask",78,"Choice",0,5,"loss",4,1.18764775137788,"post_loss"
1156.38349986115,0,"AU06EL20","2022_Mar_01_1002","MainTask",78,"Response",0,5,"loss",4,1.18764775137788,"post_loss"
1158.39860083966,1,"AU06EL20","2022_Mar_01_1002","MainTask",78,"Feedback",0,5,"loss",4,1.18764775137788,"post_loss"
1159.39946576135,3.48901869565087,"AU06EL20","2022_Mar_01_1002","MainTask",79,"Fixation",50,2,"reward",2,1.40086568013976,"post_loss"
1162.86910832262,0.5,"AU06EL20","2022_Mar_01_1002","MainTask",79,"Money",50,2,"reward",2,1.40086568013976,"post_loss"
1163.36953684537,1.40086568013976,"AU06EL20","2022_Mar_01_1002","MainTask",79,"Choice",50,2,"reward",2,1.40086568013976,"post_loss"
1164.77040252551,0,"AU06EL20","2022_Mar_01_1002","MainTask",79,"Response",50,2,"reward",2,1.40086568013976,"post_loss"
1166.78914667672,1,"AU06EL20","2022_Mar_01_1002","MainTask",79,"Feedback",50,2,"reward",2,1.40086568013976,"post_loss"
1167.82336461248,2.7604508348395,"AU06EL20","2022_Mar_01_1002","MainTask",80,"Fixation",0,4,"reward",4,2.64811835045839,"post_reward"
1170.57572630085,0.5,"AU06EL20","2022_Mar_01_1002","MainTask",80,"Money",0,4,"reward",4,2.64811835045839,"post_reward"
1171.07615657387,2.64811835045839,"AU06EL20","2022_Mar_01_1002","MainTask",80,"Choice",0,4,"reward",4,2.64811835045839,"post_reward"
1173.72427492433,0,"AU06EL20","2022_Mar_01_1002","MainTask",80,"Response",0,4,"reward",4,2.64811835045839,"post_reward"
1175.73015114106,1,"AU06EL20","2022_Mar_01_1002","MainTask",80,"Feedback",0,4,"reward",4,2.64811835045839,"post_reward"
1176.73101431249,3.26106692840161,"AU06EL20","2022_Mar_01_1002","MainTask",81,"Fixation",50,5,"reward",4,2.44491951123382,"post_reward"
1179.98381444177,0.5,"AU06EL20","2022_Mar_01_1002","MainTask",81,"Money",50,5,"reward",4,2.44491951123382,"post_reward"
1180.48423917229,2.44491951123382,"AU06EL20","2022_Mar_01_1002","MainTask",81,"Choice",50,5,"reward",4,2.44491951123382,"post_reward"
1182.92915868352,0,"AU06EL20","2022_Mar_01_1002","MainTask",81,"Response",50,5,"reward",4,2.44491951123382,"post_reward"
1184.93806810624,1,"AU06EL20","2022_Mar_01_1002","MainTask",81,"Feedback",50,5,"reward",4,2.44491951123382,"post_reward"
1185.95560924326,2.83309859769746,"AU06EL20","2022_Mar_01_1002","MainTask",82,"Fixation",50,5,"loss",4,0.694956850180461,"post_reward"
1188.77468775306,0.5,"AU06EL20","2022_Mar_01_1002","MainTask",82,"Money",50,5,"loss",4,0.694956850180461,"post_reward"
1189.27511802608,0.694956850180461,"AU06EL20","2022_Mar_01_1002","MainTask",82,"Choice",50,5,"loss",4,0.694956850180461,"post_reward"
1189.97007487626,0,"AU06EL20","2022_Mar_01_1002","MainTask",82,"Response",50,5,"loss",4,0.694956850180461,"post_reward"
1191.99412028275,1,"AU06EL20","2022_Mar_01_1002","MainTask",82,"Feedback",50,5,"loss",4,0.694956850180461,"post_reward"
1193.02834230246,3.07934053829261,"AU06EL20","2022_Mar_01_1002","MainTask",83,"Fixation",50,5,"reward",4,0.400939482900867,"post_loss"
1196.09764397081,0.5,"AU06EL20","2022_Mar_01_1002","MainTask",83,"Money",50,5,"reward",4,0.400939482900867,"post_loss"
1196.59807220185,0.400939482900867,"AU06EL20","2022_Mar_01_1002","MainTask",83,"Choice",50,5,"reward",4,0.400939482900867,"post_loss"
1196.99901168475,0,"AU06EL20","2022_Mar_01_1002","MainTask",83,"Response",50,5,"reward",4,0.400939482900867,"post_loss"
1199.01681798664,1,"AU06EL20","2022_Mar_01_1002","MainTask",83,"Feedback",50,5,"reward",4,0.400939482900867,"post_loss"
1200.05102687937,4.01853721497471,"AU06EL20","2022_Mar_01_1002","MainTask",84,"Fixation",50,6,"reward",4,2.32494480836976,"post_reward"
1204.05447518944,0.5,"AU06EL20","2022_Mar_01_1002","MainTask",84,"Money",50,6,"reward",4,2.32494480836976,"post_reward"
1204.55490517074,2.32494480836976,"AU06EL20","2022_Mar_01_1002","MainTask",84,"Choice",50,6,"reward",4,2.32494480836976,"post_reward"
1206.87984997911,0,"AU06EL20","2022_Mar_01_1002","MainTask",84,"Response",50,6,"reward",4,2.32494480836976,"post_reward"
1208.89196442532,1,"AU06EL20","2022_Mar_01_1002","MainTask",84,"Feedback",50,6,"reward",4,2.32494480836976,"post_reward"
1209.92618907042,4.12057925555204,"AU06EL20","2022_Mar_01_1002","MainTask",85,"Fixation",10,4,"reward",4,2.19058323434729,"post_reward"
1214.02970896625,0.5,"AU06EL20","2022_Mar_01_1002","MainTask",85,"Money",10,4,"reward",4,2.19058323434729,"post_reward"
1214.530137489,2.19058323434729,"AU06EL20","2022_Mar_01_1002","MainTask",85,"Choice",10,4,"reward",4,2.19058323434729,"post_reward"
1216.72072072335,0,"AU06EL20","2022_Mar_01_1002","MainTask",85,"Response",10,4,"reward",4,2.19058323434729,"post_reward"
1218.73374909861,1,"AU06EL20","2022_Mar_01_1002","MainTask",85,"Feedback",10,4,"reward",4,2.19058323434729,"post_reward"
1219.75129461129,3.97482250137335,"AU06EL20","2022_Mar_01_1002","MainTask",86,"Fixation",0,5,"loss",4,3.51147384990327,"post_reward"
1223.70468335406,0.5,"AU06EL20","2022_Mar_01_1002","MainTask",86,"Money",0,5,"loss",4,3.51147384990327,"post_reward"
1224.20511333537,3.51147384990327,"AU06EL20","2022_Mar_01_1002","MainTask",86,"Choice",0,5,"loss",4,3.51147384990327,"post_reward"
1227.71658718527,0,"AU06EL20","2022_Mar_01_1002","MainTask",86,"Response",0,5,"loss",4,3.51147384990327,"post_reward"
1229.74320314487,1,"AU06EL20","2022_Mar_01_1002","MainTask",86,"Feedback",0,5,"loss",4,3.51147384990327,"post_reward"
1230.74406835828,4.31978230710707,"AU06EL20","2022_Mar_01_1002","MainTask",87,"Fixation",0,5,"reward",4,1.10028190904632,"post_loss"
1235.04775622102,0.5,"AU06EL20","2022_Mar_01_1002","MainTask",87,"Money",0,5,"reward",4,1.10028190904632,"post_loss"
1235.54818911943,1.10028190904632,"AU06EL20","2022_Mar_01_1002","MainTask",87,"Choice",0,5,"reward",4,1.10028190904632,"post_loss"
1236.64847102848,0,"AU06EL20","2022_Mar_01_1002","MainTask",87,"Response",0,5,"reward",4,1.10028190904632,"post_loss"
1238.66753314415,1,"AU06EL20","2022_Mar_01_1002","MainTask",87,"Feedback",0,5,"reward",4,1.10028190904632,"post_loss"
1239.66839310676,4.15763465999898,"AU06EL20","2022_Mar_01_1002","MainTask",88,"Fixation",50,4,"reward",2,2.02862730363813,"post_reward"
1243.80527972705,0.5,"AU06EL20","2022_Mar_01_1002","MainTask",88,"Money",50,4,"reward",2,2.02862730363813,"post_reward"
1244.30571058349,2.02862730363813,"AU06EL20","2022_Mar_01_1002","MainTask",88,"Choice",50,4,"reward",2,2.02862730363813,"post_reward"
1246.33433788713,0,"AU06EL20","2022_Mar_01_1002","MainTask",88,"Response",50,4,"reward",2,2.02862730363813,"post_reward"
1248.34250811539,1,"AU06EL20","2022_Mar_01_1002","MainTask",88,"Feedback",50,4,"reward",2,2.02862730363813,"post_reward"
1249.37673334391,2.84043329636567,"AU06EL20","2022_Mar_01_1002","MainTask",89,"Fixation",50,5,"reward",4,0.873319747401183,"post_reward"
1252.21252453286,0.5,"AU06EL20","2022_Mar_01_1002","MainTask",89,"Money",50,5,"reward",4,0.873319747401183,"post_reward"
1252.71292884364,0.873319747401183,"AU06EL20","2022_Mar_01_1002","MainTask",89,"Choice",50,5,"reward",4,0.873319747401183,"post_reward"
1253.58624859104,0,"AU06EL20","2022_Mar_01_1002","MainTask",89,"Response",50,5,"reward",4,0.873319747401183,"post_reward"
1255.59873817697,1,"AU06EL20","2022_Mar_01_1002","MainTask",89,"Feedback",50,5,"reward",4,0.873319747401183,"post_reward"
1256.61629010728,3.79600353488981,"AU06EL20","2022_Mar_01_1002","MainTask",90,"Fixation",50,2,"loss",2,1.24783171570198,"post_reward"
1260.40287177339,0.5,"AU06EL20","2022_Mar_01_1002","MainTask",90,"Money",50,2,"loss",2,1.24783171570198,"post_reward"
1260.90329387851,1.24783171570198,"AU06EL20","2022_Mar_01_1002","MainTask",90,"Choice",50,2,"loss",2,1.24783171570198,"post_reward"
1262.15112559422,0,"AU06EL20","2022_Mar_01_1002","MainTask",90,"Response",50,2,"loss",2,1.24783171570198,"post_reward"
1264.17276876457,1,"AU06EL20","2022_Mar_01_1002","MainTask",90,"Feedback",50,2,"loss",2,1.24783171570198,"post_reward"
1265.20699165941,4.45011023900644,"AU06EL20","2022_Mar_01_1002","MainTask",91,"Fixation",10,4,"reward",2,4.28407178879206,"post_loss"
1269.62745299377,0.5,"AU06EL20","2022_Mar_01_1002","MainTask",91,"Money",10,4,"reward",2,4.28407178879206,"post_loss"
1270.12788501705,4.28407178879206,"AU06EL20","2022_Mar_01_1002","MainTask",91,"Choice",10,4,"reward",2,4.28407178879206,"post_loss"
1274.41195680584,0,"AU06EL20","2022_Mar_01_1002","MainTask",91,"Response",10,4,"reward",2,4.28407178879206,"post_loss"
1276.43329834752,1,"AU06EL20","2022_Mar_01_1002","MainTask",91,"Feedback",10,4,"reward",2,4.28407178879206,"post_loss"
1277.4675224092,2.90691099592674,"AU06EL20","2022_Mar_01_1002","MainTask",92,"Fixation",0,5,"loss",4,1.09913402814891,"post_reward"
1280.35332999227,0.5,"AU06EL20","2022_Mar_01_1002","MainTask",92,"Money",0,5,"loss",4,1.09913402814891,"post_reward"
1280.85375326424,1.09913402814891,"AU06EL20","2022_Mar_01_1002","MainTask",92,"Choice",0,5,"loss",4,1.09913402814891,"post_reward"
1281.95288729239,0,"AU06EL20","2022_Mar_01_1002","MainTask",92,"Response",0,5,"loss",4,1.09913402814891,"post_reward"
1283.97311800041,1,"AU06EL20","2022_Mar_01_1002","MainTask",92,"Feedback",0,5,"loss",4,1.09913402814891,"post_reward"
1284.97396658631,3.32084417772394,"AU06EL20","2022_Mar_01_1002","MainTask",93,"Fixation",10,4,"reward",2,3.04652111867472,"post_loss"
1288.27680148749,0.5,"AU06EL20","2022_Mar_01_1002","MainTask",93,"Money",10,4,"reward",2,3.04652111867472,"post_loss"
1288.77723584445,3.04652111867472,"AU06EL20","2022_Mar_01_1002","MainTask",93,"Choice",10,4,"reward",2,3.04652111867472,"post_loss"
1291.82375696313,0,"AU06EL20","2022_Mar_01_1002","MainTask",93,"Response",10,4,"reward",2,3.04652111867472,"post_loss"
1293.84825247896,1,"AU06EL20","2022_Mar_01_1002","MainTask",93,"Feedback",10,4,"reward",2,3.04652111867472,"post_loss"
1294.8824809163,3.87436558527229,"AU06EL20","2022_Mar_01_1002","MainTask",94,"Fixation",50,4,"reward",4,0.633410306016231,"post_reward"
1298.73578552976,0.5,"AU06EL20","2022_Mar_01_1002","MainTask",94,"Money",50,4,"reward",4,0.633410306016231,"post_reward"
1299.23621784475,0.633410306016231,"AU06EL20","2022_Mar_01_1002","MainTask",94,"Choice",50,4,"reward",4,0.633410306016231,"post_reward"
1299.86962815077,0,"AU06EL20","2022_Mar_01_1002","MainTask",94,"Response",50,4,"reward",4,0.633410306016231,"post_reward"
1301.87180810348,1,"AU06EL20","2022_Mar_01_1002","MainTask",94,"Feedback",50,4,"reward",4,0.633410306016231,"post_reward"
1302.90609459122,3.18791932551062,"AU06EL20","2022_Mar_01_1002","MainTask",95,"Fixation",50,4,"loss",4,0.563708119119838,"post_reward"
1306.07541942139,0.5,"AU06EL20","2022_Mar_01_1002","MainTask",95,"Money",50,4,"loss",4,0.563708119119838,"post_reward"
1306.57584823585,0.563708119119838,"AU06EL20","2022_Mar_01_1002","MainTask",95,"Choice",50,4,"loss",4,0.563708119119838,"post_reward"
1307.13955635497,0,"AU06EL20","2022_Mar_01_1002","MainTask",95,"Response",50,4,"loss",4,0.563708119119838,"post_reward"
1309.16141976677,1,"AU06EL20","2022_Mar_01_1002","MainTask",95,"Feedback",50,4,"loss",4,0.563708119119838,"post_reward"
1310.19561874135,3.13603824094464,"AU06EL20","2022_Mar_01_1002","MainTask",96,"Fixation",50,5,"reward",4,1.03605804572544,"post_loss"
1313.31496976712,0.5,"AU06EL20","2022_Mar_01_1002","MainTask",96,"Money",50,5,"reward",4,1.03605804572544,"post_loss"
1313.81539828988,1.03605804572544,"AU06EL20","2022_Mar_01_1002","MainTask",96,"Choice",50,5,"reward",4,1.03605804572544,"post_loss"
1314.8514563356,0,"AU06EL20","2022_Mar_01_1002","MainTask",96,"Response",50,5,"reward",4,1.03605804572544,"post_loss"
1316.88470229191,1,"AU06EL20","2022_Mar_01_1002","MainTask",96,"Feedback",50,5,"reward",4,1.03605804572544,"post_loss"
1317.91891789399,3.09000642954228,"AU06EL20","2022_Mar_01_1002","MainTask",97,"Fixation",10,5,"reward",2,0.740703477422358,"post_reward"
1320.98822539655,0.5,"AU06EL20","2022_Mar_01_1002","MainTask",97,"Money",10,5,"reward",2,0.740703477422358,"post_reward"
1321.48865946181,0.740703477422358,"AU06EL20","2022_Mar_01_1002","MainTask",97,"Choice",10,5,"reward",2,0.740703477422358,"post_reward"
1322.22936293923,0,"AU06EL20","2022_Mar_01_1002","MainTask",97,"Response",10,5,"reward",2,0.740703477422358,"post_reward"
1324.24102202531,1,"AU06EL20","2022_Mar_01_1002","MainTask",97,"Feedback",10,5,"reward",2,0.740703477422358,"post_reward"
1325.25856607943,3.58993824007965,"AU06EL20","2022_Mar_01_1002","MainTask",98,"Fixation",50,5,"loss",4,1.4158415148413,"post_reward"
1328.84497161073,0.5,"AU06EL20","2022_Mar_01_1002","MainTask",98,"Money",50,5,"loss",4,1.4158415148413,"post_reward"
1329.34541034335,1.4158415148413,"AU06EL20","2022_Mar_01_1002","MainTask",98,"Choice",50,5,"loss",4,1.4158415148413,"post_reward"
1330.7612518582,0,"AU06EL20","2022_Mar_01_1002","MainTask",98,"Response",50,5,"loss",4,1.4158415148413,"post_reward"
1332.78168559673,1,"AU06EL20","2022_Mar_01_1002","MainTask",98,"Feedback",50,5,"loss",4,1.4158415148413,"post_reward"
1333.81590761644,3.93119901492975,"AU06EL20","2022_Mar_01_1002","MainTask",99,"Fixation",0,5,"reward",4,2.97372388315853,"post_loss"
1337.73594305344,0.5,"AU06EL20","2022_Mar_01_1002","MainTask",99,"Money",0,5,"reward",4,2.97372388315853,"post_loss"
1338.23636690882,2.97372388315853,"AU06EL20","2022_Mar_01_1002","MainTask",99,"Choice",0,5,"reward",4,2.97372388315853,"post_loss"
1341.21009079198,0,"AU06EL20","2022_Mar_01_1002","MainTask",99,"Response",0,5,"reward",4,2.97372388315853,"post_loss"
1343.240669639,1,"AU06EL20","2022_Mar_01_1002","MainTask",99,"Feedback",0,5,"reward",4,2.97372388315853,"post_loss"
1344.24152464254,3.87650430234687,"AU06EL20","2022_Mar_01_1002","MainTask",100,"Fixation",50,4,"loss",2,3.47003462020439,"post_reward"
1348.11151509777,0.5,"AU06EL20","2022_Mar_01_1002","MainTask",100,"Money",50,4,"loss",2,3.47003462020439,"post_reward"
1348.61196549881,3.47003462020439,"AU06EL20","2022_Mar_01_1002","MainTask",100,"Choice",50,4,"loss",2,3.47003462020439,"post_reward"
1352.08200011902,0,"AU06EL20","2022_Mar_01_1002","MainTask",100,"Response",50,4,"loss",2,3.47003462020439,"post_reward"
1354.09999603274,1,"AU06EL20","2022_Mar_01_1002","MainTask",100,"Feedback",50,4,"loss",2,3.47003462020439,"post_reward"
1355.13420784258,2.67522217150719,"AU06EL20","2022_Mar_01_1002","MainTask",101,"Fixation",10,4,"loss",4,3.21291863376791,"post_loss"
1357.78649327782,0.5,"AU06EL20","2022_Mar_01_1002","MainTask",101,"Money",10,4,"loss",4,3.21291863376791,"post_loss"
1358.2869363861,3.21291863376791,"AU06EL20","2022_Mar_01_1002","MainTask",101,"Choice",10,4,"loss",4,3.21291863376791,"post_loss"
1361.49985501987,0,"AU06EL20","2022_Mar_01_1002","MainTask",101,"Response",10,4,"loss",4,3.21291863376791,"post_loss"
1363.50806987984,1,"AU06EL20","2022_Mar_01_1002","MainTask",101,"Feedback",10,4,"loss",4,3.21291863376791,"post_loss"
1364.52561276712,4.15027583167907,"AU06EL20","2022_Mar_01_1002","MainTask",102,"Fixation",0,5,"loss",4,7.38272945366225,"post_loss"
1368.66250347135,0.5,"AU06EL20","2022_Mar_01_1002","MainTask",102,"Money",0,5,"loss",4,7.38272945366225,"post_loss"
1369.16292791016,7.38272945366225,"AU06EL20","2022_Mar_01_1002","MainTask",102,"Choice",0,5,"loss",4,7.38272945366225,"post_loss"
1376.54565736382,0,"AU06EL20","2022_Mar_01_1002","MainTask",102,"Response",0,5,"loss",4,7.38272945366225,"post_loss"
1378.55432291655,1,"AU06EL20","2022_Mar_01_1002","MainTask",102,"Feedback",0,5,"loss",4,7.38272945366225,"post_loss"
1379.55518346258,2.99251226673173,"AU06EL20","2022_Mar_01_1002","MainTask",103,"Fixation",0,4,"reward",4,0.975738727722273,"post_loss"
1382.52439983477,0.5,"AU06EL20","2022_Mar_01_1002","MainTask",103,"Money",0,4,"reward",4,0.975738727722273,"post_loss"
1383.02482923266,0.975738727722273,"AU06EL20","2022_Mar_01_1002","MainTask",103,"Choice",0,4,"reward",4,0.975738727722273,"post_loss"
1384.00056796038,0,"AU06EL20","2022_Mar_01_1002","MainTask",103,"Response",0,4,"reward",4,0.975738727722273,"post_loss"
1386.02741641327,1,"AU06EL20","2022_Mar_01_1002","MainTask",103,"Feedback",0,4,"reward",4,0.975738727722273,"post_loss"
1387.02827083338,3.11441268027382,"AU06EL20","2022_Mar_01_1002","MainTask",104,"Fixation",10,4,"reward",2,1.82409534733415,"post_reward"
1390.13093193343,0.5,"AU06EL20","2022_Mar_01_1002","MainTask",104,"Money",10,4,"reward",2,1.82409534733415,"post_reward"
1390.63136103961,1.82409534733415,"AU06EL20","2022_Mar_01_1002","MainTask",104,"Choice",10,4,"reward",2,1.82409534733415,"post_reward"
1392.45545638694,0,"AU06EL20","2022_Mar_01_1002","MainTask",104,"Response",10,4,"reward",2,1.82409534733415,"post_reward"
1394.46798885432,1,"AU06EL20","2022_Mar_01_1002","MainTask",104,"Feedback",10,4,"reward",2,1.82409534733415,"post_reward"
1395.50221379114,3.66414366030752,"AU06EL20","2022_Mar_01_1002","MainTask",105,"Fixation",10,4,"loss",2,1.06957237571442,"post_reward"
1399.15535014597,0.5,"AU06EL20","2022_Mar_01_1002","MainTask",105,"Money",10,4,"loss",2,1.06957237571442,"post_reward"
1399.65578216925,1.06957237571442,"AU06EL20","2022_Mar_01_1002","MainTask",105,"Choice",10,4,"loss",2,1.06957237571442,"post_reward"
1400.72535454497,0,"AU06EL20","2022_Mar_01_1002","MainTask",105,"Response",10,4,"loss",2,1.06957237571442,"post_reward"
1402.75844618641,1,"AU06EL20","2022_Mar_01_1002","MainTask",105,"Feedback",10,4,"loss",2,1.06957237571442,"post_reward"
1403.79266966467,3.61651684331147,"AU06EL20","2022_Mar_01_1002","MainTask",106,"Fixation",0,4,"loss",4,2.24706685071578,"post_loss"
1407.39575957919,0.5,"AU06EL20","2022_Mar_01_1002","MainTask",106,"Money",0,4,"loss",4,2.24706685071578,"post_loss"
1407.89619014392,2.24706685071578,"AU06EL20","2022_Mar_01_1002","MainTask",106,"Choice",0,4,"loss",4,2.24706685071578,"post_loss"
1410.14325699463,0,"AU06EL20","2022_Mar_01_1002","MainTask",106,"Response",0,4,"loss",4,2.24706685071578,"post_loss"
1412.14984440161,1,"AU06EL20","2022_Mar_01_1002","MainTask",106,"Feedback",0,4,"loss",4,2.24706685071578,"post_loss"
1413.15070290567,3.85550874302049,"AU06EL20","2022_Mar_01_1002","MainTask",107,"Fixation",0,5,"loss",4,1.03336351564758,"post_loss"
1416.98732663644,0.5,"AU06EL20","2022_Mar_01_1002","MainTask",107,"Money",0,5,"loss",4,1.03336351564758,"post_loss"
1417.48775603432,1.03336351564758,"AU06EL20","2022_Mar_01_1002","MainTask",107,"Choice",0,5,"loss",4,1.03336351564758,"post_loss"
1418.52111954997,0,"AU06EL20","2022_Mar_01_1002","MainTask",107,"Response",0,5,"loss",4,1.03336351564758,"post_loss"
1420.52369681242,1,"AU06EL20","2022_Mar_01_1002","MainTask",107,"Feedback",0,5,"loss",4,1.03336351564758,"post_loss"
1421.52456173411,3.86773317082391,"AU06EL20","2022_Mar_01_1002","MainTask",108,"Fixation",0,4,"reward",4,0.491727089638516,"post_loss"
1425.3778698481,0.5,"AU06EL20","2022_Mar_01_1002","MainTask",108,"Money",0,4,"reward",4,0.491727089638516,"post_loss"
1425.87829895428,0.491727089638516,"AU06EL20","2022_Mar_01_1002","MainTask",108,"Choice",0,4,"reward",4,0.491727089638516,"post_loss"
1426.37002604391,0,"AU06EL20","2022_Mar_01_1002","MainTask",108,"Response",0,4,"reward",4,0.491727089638516,"post_loss"
1428.39712478443,1,"AU06EL20","2022_Mar_01_1002","MainTask",108,"Feedback",0,4,"reward",4,0.491727089638516,"post_loss"
1429.39798620559,3.96086986099777,"AU06EL20","2022_Mar_01_1002","MainTask",109,"Fixation",10,4,"loss",4,0.650809088299866,"post_reward"
1433.35138107429,0.5,"AU06EL20","2022_Mar_01_1002","MainTask",109,"Money",10,4,"loss",4,0.650809088299866,"post_reward"
1433.83513075632,0.650809088299866,"AU06EL20","2022_Mar_01_1002","MainTask",109,"Choice",10,4,"loss",4,0.650809088299866,"post_reward"
1434.48593984462,0,"AU06EL20","2022_Mar_01_1002","MainTask",109,"Response",10,4,"loss",4,0.650809088299866,"post_reward"
1436.50408919808,1,"AU06EL20","2022_Mar_01_1002","MainTask",109,"Feedback",10,4,"loss",4,0.650809088299866,"post_reward"
1437.53830946752,2.55817663373198,"AU06EL20","2022_Mar_01_1002","MainTask",110,"Fixation",0,5,"loss",2,1.34758708725894,"post_loss"
1440.07381734721,0.5,"AU06EL20","2022_Mar_01_1002","MainTask",110,"Money",0,5,"loss",2,1.34758708725894,"post_loss"
1440.57424674509,1.34758708725894,"AU06EL20","2022_Mar_01_1002","MainTask",110,"Choice",0,5,"loss",2,1.34758708725894,"post_loss"
1441.92183383235,0,"AU06EL20","2022_Mar_01_1002","MainTask",110,"Response",0,5,"loss",2,1.34758708725894,"post_loss"
1443.9271283783,1,"AU06EL20","2022_Mar_01_1002","MainTask",110,"Feedback",0,5,"loss",2,1.34758708725894,"post_loss"
1444.92799154973,4.45607092269813,"AU06EL20","2022_Mar_01_1002","MainTask",111,"Fixation",50,4,"loss",2,2.90215824945699,"post_loss"
1449.36513114138,0.5,"AU06EL20","2022_Mar_01_1002","MainTask",111,"Money",50,4,"loss",2,2.90215824945699,"post_loss"
1449.865558789,2.90215824945699,"AU06EL20","2022_Mar_01_1002","MainTask",111,"Choice",50,4,"loss",2,2.90215824945699,"post_loss"
1452.76771703846,0,"AU06EL20","2022_Mar_01_1002","MainTask",111,"Response",50,4,"loss",2,2.90215824945699,"post_loss"
1454.76976922197,1,"AU06EL20","2022_Mar_01_1002","MainTask",111,"Feedback",50,4,"loss",2,2.90215824945699,"post_loss"
1455.78731181754,4.27341809070472,"AU06EL20","2022_Mar_01_1002","MainTask",112,"Fixation",0,4,"loss",2,2.41346290725596,"post_loss"
1460.05764841648,0.5,"AU06EL20","2022_Mar_01_1002","MainTask",112,"Money",0,4,"loss",2,2.41346290725596,"post_loss"
1460.55807839779,2.41346290725596,"AU06EL20","2022_Mar_01_1002","MainTask",112,"Choice",0,4,"loss",2,2.41346290725596,"post_loss"
1462.97154130504,0,"AU06EL20","2022_Mar_01_1002","MainTask",112,"Response",0,4,"loss",2,2.41346290725596,"post_loss"
1464.97853739846,1,"AU06EL20","2022_Mar_01_1002","MainTask",112,"Feedback",0,4,"loss",2,2.41346290725596,"post_loss"
1465.97940202844,2.84584715660697,"AU06EL20","2022_Mar_01_1002","MainTask",113,"Fixation",50,4,"reward",2,2.13952864247221,"post_loss"
1468.79845545113,0.5,"AU06EL20","2022_Mar_01_1002","MainTask",113,"Money",50,4,"reward",2,2.13952864247221,"post_loss"
1469.29890468534,2.13952864247221,"AU06EL20","2022_Mar_01_1002","MainTask",113,"Choice",50,4,"reward",2,2.13952864247221,"post_loss"
1471.43843332781,0,"AU06EL20","2022_Mar_01_1002","MainTask",113,"Response",50,4,"reward",2,2.13952864247221,"post_loss"
1473.46916123891,1,"AU06EL20","2022_Mar_01_1002","MainTask",113,"Feedback",50,4,"reward",2,2.13952864247221,"post_loss"
1474.50340513691,2.78016508957848,"AU06EL20","2022_Mar_01_1002","MainTask",114,"Fixation",0,4,"loss",2,1.86115016790791,"post_reward"
1477.25574815581,0.5,"AU06EL20","2022_Mar_01_1002","MainTask",114,"Money",0,4,"loss",2,1.86115016790791,"post_reward"
1477.75617842882,1.86115016790791,"AU06EL20","2022_Mar_01_1002","MainTask",114,"Choice",0,4,"loss",2,1.86115016790791,"post_reward"
1479.61732859673,0,"AU06EL20","2022_Mar_01_1002","MainTask",114,"Response",0,4,"loss",2,1.86115016790791,"post_reward"
1481.64284889162,1,"AU06EL20","2022_Mar_01_1002","MainTask",114,"Feedback",0,4,"loss",2,1.86115016790791,"post_reward"
1482.64370768739,2.70544990268883,"AU06EL20","2022_Mar_01_1002","MainTask",115,"Fixation",10,4,"loss",2,1.001497350102,"post_loss"
1485.32934496986,0.5,"AU06EL20","2022_Mar_01_1002","MainTask",115,"Money",10,4,"loss",2,1.001497350102,"post_loss"
1485.82977524288,1.001497350102,"AU06EL20","2022_Mar_01_1002","MainTask",115,"Choice",10,4,"loss",2,1.001497350102,"post_loss"
1486.83127259298,0,"AU06EL20","2022_Mar_01_1002","MainTask",115,"Response",10,4,"loss",2,1.001497350102,"post_loss"
1488.84903455486,1,"AU06EL20","2022_Mar_01_1002","MainTask",115,"Feedback",10,4,"loss",2,1.001497350102,"post_loss"
1489.88325949168,3.94217525504432,"AU06EL20","2022_Mar_01_1002","MainTask",116,"Fixation",10,5,"loss",4,1.21671553790293,"post_loss"
1493.81997026886,0.5,"AU06EL20","2022_Mar_01_1002","MainTask",116,"Money",10,5,"loss",4,1.21671553790293,"post_loss"
1494.32040841807,1.21671553790293,"AU06EL20","2022_Mar_01_1002","MainTask",116,"Choice",10,5,"loss",4,1.21671553790293,"post_loss"
1495.53712395597,0,"AU06EL20","2022_Mar_01_1002","MainTask",116,"Response",10,5,"loss",4,1.21671553790293,"post_loss"
1497.53983073789,1,"AU06EL20","2022_Mar_01_1002","MainTask",116,"Feedback",10,5,"loss",4,1.21671553790293,"post_loss"
1498.57412043444,2.76893457246401,"AU06EL20","2022_Mar_01_1002","MainTask",117,"Fixation",50,4,"loss",2,1.60117220955544,"post_loss"
1501.32641707137,0.5,"AU06EL20","2022_Mar_01_1002","MainTask",117,"Money",50,4,"loss",2,1.60117220955544,"post_loss"
1501.82684530241,1.60117220955544,"AU06EL20","2022_Mar_01_1002","MainTask",117,"Choice",50,4,"loss",2,1.60117220955544,"post_loss"
1503.42801751197,0,"AU06EL20","2022_Mar_01_1002","MainTask",117,"Response",50,4,"loss",2,1.60117220955544,"post_loss"
1505.42994046772,1,"AU06EL20","2022_Mar_01_1002","MainTask",117,"Feedback",50,4,"loss",2,1.60117220955544,"post_loss"
1506.44748743895,3.04481114593403,"AU06EL20","2022_Mar_01_1002","MainTask",118,"Fixation",0,4,"reward",4,1.22976404119436,"post_loss"
1509.46675112659,0.5,"AU06EL20","2022_Mar_01_1002","MainTask",118,"Money",0,4,"reward",4,1.22976404119436,"post_loss"
1509.96716856434,1.22976404119436,"AU06EL20","2022_Mar_01_1002","MainTask",118,"Choice",0,4,"reward",4,1.22976404119436,"post_loss"
1511.19693260554,0,"AU06EL20","2022_Mar_01_1002","MainTask",118,"Response",0,4,"reward",4,1.22976404119436,"post_loss"
1513.21993222981,1,"AU06EL20","2022_Mar_01_1002","MainTask",118,"Feedback",0,4,"reward",4,1.22976404119436,"post_loss"
1514.22082457229,3.26527196563834,"AU06EL20","2022_Mar_01_1002","MainTask",119,"Fixation",10,4,"reward",2,3.34174850119052,"post_reward"
1517.47361536684,0.5,"AU06EL20","2022_Mar_01_1002","MainTask",119,"Money",10,4,"reward",2,3.34174850119052,"post_reward"
1517.97404505644,3.34174850119052,"AU06EL20","2022_Mar_01_1002","MainTask",119,"Choice",10,4,"reward",2,3.34174850119052,"post_reward"
1521.31579355763,0,"AU06EL20","2022_Mar_01_1002","MainTask",119,"Response",10,4,"reward",2,3.34174850119052,"post_reward"
1523.32864282264,1,"AU06EL20","2022_Mar_01_1002","MainTask",119,"Feedback",10,4,"reward",2,3.34174850119052,"post_reward"
1524.36286280037,81.6913930227511,"AU06EL20","2022_Mar_01_1002","MainTask",2,"Break",NA,NA,NA,NA,81.6913930227511,"post_break"
1607.08389886279,4.111847257371,"AU06EL20","2022_Mar_01_1002","MainTask",120,"Fixation",0,5,"reward",4,0.93445877196973,NA
1611.18742313428,0.5,"AU06EL20","2022_Mar_01_1002","MainTask",120,"Money",0,5,"reward",4,0.93445877196973,NA
1611.67117310802,0.93445877196973,"AU06EL20","2022_Mar_01_1002","MainTask",120,"Choice",0,5,"reward",4,0.93445877196973,NA
1612.60563187999,0,"AU06EL20","2022_Mar_01_1002","MainTask",120,"Response",0,5,"reward",4,0.93445877196973,NA
1614.62370626384,1,"AU06EL20","2022_Mar_01_1002","MainTask",120,"Feedback",0,5,"reward",4,0.93445877196973,NA
1615.62456885185,2.69335172207851,"AU06EL20","2022_Mar_01_1002","MainTask",121,"Fixation",50,5,"reward",4,1.06656746564113,"post_reward"
1618.31020671774,0.5,"AU06EL20","2022_Mar_01_1002","MainTask",121,"Money",50,5,"reward",4,1.06656746564113,"post_reward"
1618.79395552465,1.06656746564113,"AU06EL20","2022_Mar_01_1002","MainTask",121,"Choice",50,5,"reward",4,1.06656746564113,"post_reward"
1619.86052299029,0,"AU06EL20","2022_Mar_01_1002","MainTask",121,"Response",50,5,"reward",4,1.06656746564113,"post_reward"
1621.86325544273,1,"AU06EL20","2022_Mar_01_1002","MainTask",121,"Feedback",50,5,"reward",4,1.06656746564113,"post_reward"
1622.8807980383,4.04416329157273,"AU06EL20","2022_Mar_01_1002","MainTask",122,"Fixation",50,5,"loss",4,0.871384539808787,"post_reward"
1626.91759702875,0.5,"AU06EL20","2022_Mar_01_1002","MainTask",122,"Money",50,5,"loss",4,0.871384539808787,"post_reward"
1627.41802409295,0.871384539808787,"AU06EL20","2022_Mar_01_1002","MainTask",122,"Choice",50,5,"loss",4,0.871384539808787,"post_reward"
1628.28940863276,0,"AU06EL20","2022_Mar_01_1002","MainTask",122,"Response",50,5,"loss",4,0.871384539808787,"post_reward"
1630.32051868464,1,"AU06EL20","2022_Mar_01_1002","MainTask",122,"Feedback",50,5,"loss",4,0.871384539808787,"post_reward"
1631.3547418712,3.26225010557649,"AU06EL20","2022_Mar_01_1002","MainTask",123,"Fixation",50,8,"reward",4,0.885040092694908,"post_loss"
1634.59085615871,0.5,"AU06EL20","2022_Mar_01_1002","MainTask",123,"Money",50,8,"reward",4,0.885040092694908,"post_loss"
1635.09128438975,0.885040092694908,"AU06EL20","2022_Mar_01_1002","MainTask",123,"Choice",50,8,"reward",4,0.885040092694908,"post_loss"
1635.97632448245,0,"AU06EL20","2022_Mar_01_1002","MainTask",123,"Response",50,8,"reward",4,0.885040092694908,"post_loss"
1638.01045869729,1,"AU06EL20","2022_Mar_01_1002","MainTask",123,"Feedback",50,8,"reward",4,0.885040092694908,"post_loss"
1639.04467167398,3.89617374528942,"AU06EL20","2022_Mar_01_1002","MainTask",124,"Fixation",10,4,"reward",2,1.72941398857074,"post_reward"
1642.93134767927,0.5,"AU06EL20","2022_Mar_01_1002","MainTask",124,"Money",10,4,"reward",2,1.72941398857074,"post_reward"
1643.43177766057,1.72941398857074,"AU06EL20","2022_Mar_01_1002","MainTask",124,"Choice",10,4,"reward",2,1.72941398857074,"post_reward"
1645.16119164915,0,"AU06EL20","2022_Mar_01_1002","MainTask",124,"Response",10,4,"reward",2,1.72941398857074,"post_reward"
1647.16832513821,1,"AU06EL20","2022_Mar_01_1002","MainTask",124,"Feedback",10,4,"reward",2,1.72941398857074,"post_reward"
1648.18586744207,3.75034132409424,"AU06EL20","2022_Mar_01_1002","MainTask",125,"Fixation",10,5,"loss",4,3.20823580478282,"post_reward"
1651.92240441813,0.5,"AU06EL20","2022_Mar_01_1002","MainTask",125,"Money",10,5,"loss",4,3.20823580478282,"post_reward"
1652.42283089891,3.20823580478282,"AU06EL20","2022_Mar_01_1002","MainTask",125,"Choice",10,5,"loss",4,3.20823580478282,"post_reward"
1655.63106670369,0,"AU06EL20","2022_Mar_01_1002","MainTask",125,"Response",10,5,"loss",4,3.20823580478282,"post_reward"
1657.66066394481,1,"AU06EL20","2022_Mar_01_1002","MainTask",125,"Feedback",10,5,"loss",4,3.20823580478282,"post_reward"
1658.69487954689,2.5965366431124,"AU06EL20","2022_Mar_01_1002","MainTask",126,"Fixation",50,2,"reward",2,2.88275220708238,"post_loss"
1661.26375677644,0.5,"AU06EL20","2022_Mar_01_1002","MainTask",126,"Money",50,2,"reward",2,2.88275220708238,"post_loss"
1661.764188508,2.88275220708238,"AU06EL20","2022_Mar_01_1002","MainTask",126,"Choice",50,2,"reward",2,2.88275220708238,"post_loss"
1664.64694071509,0,"AU06EL20","2022_Mar_01_1002","MainTask",126,"Response",50,2,"reward",2,2.88275220708238,"post_loss"
1666.6684024415,1,"AU06EL20","2022_Mar_01_1002","MainTask",126,"Feedback",50,2,"reward",2,2.88275220708238,"post_loss"
1667.7026160016,3.4702650272277,"AU06EL20","2022_Mar_01_1002","MainTask",127,"Fixation",10,5,"reward",4,7.07572775940753,"post_reward"
1671.1555756382,0.5,"AU06EL20","2022_Mar_01_1002","MainTask",127,"Money",10,5,"reward",4,7.07572775940753,"post_reward"
1671.65603158175,7.07572775940753,"AU06EL20","2022_Mar_01_1002","MainTask",127,"Choice",10,5,"reward",4,7.07572775940753,"post_reward"
1678.73175934116,0,"AU06EL20","2022_Mar_01_1002","MainTask",127,"Response",10,5,"reward",4,7.07572775940753,"post_reward"
1680.74715436387,1,"AU06EL20","2022_Mar_01_1002","MainTask",127,"Feedback",10,5,"reward",4,7.07572775940753,"post_reward"
1681.76469783457,4.26969409773224,"AU06EL20","2022_Mar_01_1002","MainTask",128,"Fixation",0,8,"loss",4,0.464869010307666,"post_reward"
1686.01834771661,0.5,"AU06EL20","2022_Mar_01_1002","MainTask",128,"Money",0,8,"loss",4,0.464869010307666,"post_reward"
1686.51878644923,0.464869010307666,"AU06EL20","2022_Mar_01_1002","MainTask",128,"Choice",0,8,"loss",4,0.464869010307666,"post_reward"
1686.98365545954,0,"AU06EL20","2022_Mar_01_1002","MainTask",128,"Response",0,8,"loss",4,0.464869010307666,"post_reward"
1689.00424818031,1,"AU06EL20","2022_Mar_01_1002","MainTask",128,"Feedback",0,8,"loss",4,0.464869010307666,"post_reward"
1690.0051075595,2.53375941492417,"AU06EL20","2022_Mar_01_1002","MainTask",129,"Fixation",0,5,"reward",4,0.902186545377845,"post_loss"
1692.52393513992,0.5,"AU06EL20","2022_Mar_01_1002","MainTask",129,"Money",0,5,"reward",4,0.902186545377845,"post_loss"
1693.02436366267,0.902186545377845,"AU06EL20","2022_Mar_01_1002","MainTask",129,"Choice",0,5,"reward",4,0.902186545377845,"post_loss"
1693.92655020805,0,"AU06EL20","2022_Mar_01_1002","MainTask",129,"Response",0,5,"reward",4,0.902186545377845,"post_loss"
1695.96022060316,1,"AU06EL20","2022_Mar_01_1002","MainTask",129,"Feedback",0,5,"reward",4,0.902186545377845,"post_loss"
1696.96108085749,3.04823693679665,"AU06EL20","2022_Mar_01_1002","MainTask",130,"Fixation",50,5,"reward",4,0.81401733227176,"post_reward"
1699.99702396927,0.5,"AU06EL20","2022_Mar_01_1002","MainTask",130,"Money",50,5,"reward",4,0.81401733227176,"post_reward"
1700.49745103347,0.81401733227176,"AU06EL20","2022_Mar_01_1002","MainTask",130,"Choice",50,5,"reward",4,0.81401733227176,"post_reward"
1701.31146836574,0,"AU06EL20","2022_Mar_01_1002","MainTask",130,"Response",50,5,"reward",4,0.81401733227176,"post_reward"
1703.31653596091,1,"AU06EL20","2022_Mar_01_1002","MainTask",130,"Feedback",50,5,"reward",4,0.81401733227176,"post_reward"
1704.35076089772,2.67375914509427,"AU06EL20","2022_Mar_01_1002","MainTask",131,"Fixation",50,2,"loss",2,1.20790529676378,"post_reward"
1707.00303553968,0.5,"AU06EL20","2022_Mar_01_1002","MainTask",131,"Money",50,2,"loss",2,1.20790529676378,"post_reward"
1707.50346639611,1.20790529676378,"AU06EL20","2022_Mar_01_1002","MainTask",131,"Choice",50,2,"loss",2,1.20790529676378,"post_reward"
1708.71137169288,0,"AU06EL20","2022_Mar_01_1002","MainTask",131,"Response",50,2,"loss",2,1.20790529676378,"post_reward"
1710.73956172244,1,"AU06EL20","2022_Mar_01_1002","MainTask",131,"Feedback",50,2,"loss",2,1.20790529676378,"post_reward"
1711.77380211992,3.43725786344796,"AU06EL20","2022_Mar_01_1002","MainTask",132,"Fixation",10,4,"reward",2,1.11243106880283,"post_loss"
1715.1934020331,0.5,"AU06EL20","2022_Mar_01_1002","MainTask",132,"Money",10,4,"reward",2,1.11243106880283,"post_loss"
1715.69383551494,1.11243106880283,"AU06EL20","2022_Mar_01_1002","MainTask",132,"Choice",10,4,"reward",2,1.11243106880283,"post_loss"
1716.80626658374,0,"AU06EL20","2022_Mar_01_1002","MainTask",132,"Response",10,4,"reward",2,1.11243106880283,"post_loss"
1718.82985808867,1,"AU06EL20","2022_Mar_01_1002","MainTask",132,"Feedback",10,4,"reward",2,1.11243106880283,"post_loss"
1719.86407427417,3.6112782026445,"AU06EL20","2022_Mar_01_1002","MainTask",133,"Fixation",10,4,"reward",2,2.44654346370226,"post_reward"
1723.46718052447,0.5,"AU06EL20","2022_Mar_01_1002","MainTask",133,"Money",10,4,"reward",2,2.44654346370226,"post_reward"
1723.96760233789,2.44654346370226,"AU06EL20","2022_Mar_01_1002","MainTask",133,"Choice",10,4,"reward",2,2.44654346370226,"post_reward"
1726.41414580159,0,"AU06EL20","2022_Mar_01_1002","MainTask",133,"Response",10,4,"reward",2,2.44654346370226,"post_reward"
1728.42143535578,1,"AU06EL20","2022_Mar_01_1002","MainTask",133,"Feedback",10,4,"reward",2,2.44654346370226,"post_reward"
1729.43899137004,3.30745509958031,"AU06EL20","2022_Mar_01_1002","MainTask",134,"Fixation",10,5,"reward",4,0.903801454818677,"post_reward"
1732.74181110227,0.5,"AU06EL20","2022_Mar_01_1002","MainTask",134,"Money",10,5,"reward",4,0.903801454818677,"post_reward"
1733.24224370897,0.903801454818677,"AU06EL20","2022_Mar_01_1002","MainTask",134,"Choice",10,5,"reward",4,0.903801454818677,"post_reward"
1734.14604516379,0,"AU06EL20","2022_Mar_01_1002","MainTask",134,"Response",10,5,"reward",4,0.903801454818677,"post_reward"
1736.16140722322,1,"AU06EL20","2022_Mar_01_1002","MainTask",134,"Feedback",10,5,"reward",4,0.903801454818677,"post_reward"
1737.17894106747,2.89757528003902,"AU06EL20","2022_Mar_01_1002","MainTask",135,"Fixation",50,3,"loss",2,1.06476119409854,"post_reward"
1740.06475973555,0.5,"AU06EL20","2022_Mar_01_1002","MainTask",135,"Money",50,3,"loss",2,1.06476119409854,"post_reward"
1740.56519146712,1.06476119409854,"AU06EL20","2022_Mar_01_1002","MainTask",135,"Choice",50,3,"loss",2,1.06476119409854,"post_reward"
1741.62995266121,0,"AU06EL20","2022_Mar_01_1002","MainTask",135,"Response",50,3,"loss",2,1.06476119409854,"post_reward"
1743.65117343474,1,"AU06EL20","2022_Mar_01_1002","MainTask",135,"Feedback",50,3,"loss",2,1.06476119409854,"post_reward"
1744.68539662129,3.73299107650983,"AU06EL20","2022_Mar_01_1002","MainTask",136,"Fixation",10,6,"reward",4,1.2268198069105,"post_loss"
1748.3885756242,0.5,"AU06EL20","2022_Mar_01_1002","MainTask",136,"Money",10,6,"reward",4,1.2268198069105,"post_loss"
1748.8890248584,1.2268198069105,"AU06EL20","2022_Mar_01_1002","MainTask",136,"Choice",10,6,"reward",4,1.2268198069105,"post_loss"
1750.11584466531,0,"AU06EL20","2022_Mar_01_1002","MainTask",136,"Response",10,6,"reward",4,1.2268198069105,"post_loss"
1752.14179785861,1,"AU06EL20","2022_Mar_01_1002","MainTask",136,"Feedback",10,6,"reward",4,1.2268198069105,"post_loss"
1753.19277135496,3.59966227356986,"AU06EL20","2022_Mar_01_1002","MainTask",137,"Fixation",0,4,"loss",2,1.25116334155609,"post_reward"
1756.7791141685,0.5,"AU06EL20","2022_Mar_01_1002","MainTask",137,"Money",0,4,"loss",2,1.25116334155609,"post_reward"
1757.27954152441,1.25116334155609,"AU06EL20","2022_Mar_01_1002","MainTask",137,"Choice",0,4,"loss",2,1.25116334155609,"post_reward"
1758.53070486597,0,"AU06EL20","2022_Mar_01_1002","MainTask",137,"Response",0,4,"loss",2,1.25116334155609,"post_reward"
1760.54901699389,1,"AU06EL20","2022_Mar_01_1002","MainTask",137,"Feedback",0,4,"loss",2,1.25116334155609,"post_reward"
1761.54987841505,3.94336250023735,"AU06EL20","2022_Mar_01_1002","MainTask",138,"Fixation",10,4,"loss",4,2.18926907845162,"post_loss"
1765.46991443547,0.5,"AU06EL20","2022_Mar_01_1002","MainTask",138,"Money",10,4,"loss",4,2.18926907845162,"post_loss"
1765.97034091625,2.18926907845162,"AU06EL20","2022_Mar_01_1002","MainTask",138,"Choice",10,4,"loss",4,2.18926907845162,"post_loss"
1768.1596099947,0,"AU06EL20","2022_Mar_01_1002","MainTask",138,"Response",10,4,"loss",4,2.18926907845162,"post_loss"
1770.17395369271,1,"AU06EL20","2022_Mar_01_1002","MainTask",138,"Feedback",10,4,"loss",4,2.18926907845162,"post_loss"
1771.20815558439,3.85189335702222,"AU06EL20","2022_Mar_01_1002","MainTask",139,"Fixation",0,4,"reward",4,0.558271218440495,"post_loss"
1775.04480090173,0.5,"AU06EL20","2022_Mar_01_1002","MainTask",139,"Money",0,4,"reward",4,0.558271218440495,"post_loss"
1775.54523000791,0.558271218440495,"AU06EL20","2022_Mar_01_1002","MainTask",139,"Choice",0,4,"reward",4,0.558271218440495,"post_loss"
1776.10350122635,0,"AU06EL20","2022_Mar_01_1002","MainTask",139,"Response",0,4,"reward",4,0.558271218440495,"post_loss"
1778.13078549475,1,"AU06EL20","2022_Mar_01_1002","MainTask",139,"Feedback",0,4,"reward",4,0.558271218440495,"post_loss"
1779.13164487395,3.8258511625862,"AU06EL20","2022_Mar_01_1002","MainTask",140,"Fixation",50,4,"loss",2,0.658089016049416,"post_reward"
1782.9349088813,0.5,"AU06EL20","2022_Mar_01_1002","MainTask",140,"Money",50,4,"loss",2,0.658089016049416,"post_reward"
1783.43532981958,0.658089016049416,"AU06EL20","2022_Mar_01_1002","MainTask",140,"Choice",50,4,"loss",2,0.658089016049416,"post_reward"
1784.09341883563,0,"AU06EL20","2022_Mar_01_1002","MainTask",140,"Response",50,4,"loss",2,0.658089016049416,"post_reward"
1786.12097614508,1,"AU06EL20","2022_Mar_01_1002","MainTask",140,"Feedback",50,4,"loss",2,0.658089016049416,"post_reward"
1787.15520720782,2.95734979609991,"AU06EL20","2022_Mar_01_1002","MainTask",141,"Fixation",10,5,"loss",4,0.593832481150457,"post_loss"
1790.09106473173,0.5,"AU06EL20","2022_Mar_01_1002","MainTask",141,"Money",10,5,"loss",4,0.593832481150457,"post_loss"
1790.59148479488,0.593832481150457,"AU06EL20","2022_Mar_01_1002","MainTask",141,"Choice",10,5,"loss",4,0.593832481150457,"post_loss"
1791.18531727603,0,"AU06EL20","2022_Mar_01_1002","MainTask",141,"Response",10,5,"loss",4,0.593832481150457,"post_loss"
1793.19372058099,1,"AU06EL20","2022_Mar_01_1002","MainTask",141,"Feedback",10,5,"loss",4,0.593832481150457,"post_loss"
1794.2112725113,4.24143418873027,"AU06EL20","2022_Mar_01_1002","MainTask",142,"Fixation",10,4,"loss",2,0.820558648983933,"post_loss"
1798.44823042564,0.5,"AU06EL20","2022_Mar_01_1002","MainTask",142,"Money",10,4,"loss",2,0.820558648983933,"post_loss"
1798.94866011524,0.820558648983933,"AU06EL20","2022_Mar_01_1002","MainTask",142,"Choice",10,4,"loss",2,0.820558648983933,"post_loss"
1799.76921876422,0,"AU06EL20","2022_Mar_01_1002","MainTask",142,"Response",10,4,"loss",2,0.820558648983933,"post_loss"
1801.78443175957,1,"AU06EL20","2022_Mar_01_1002","MainTask",142,"Feedback",10,4,"loss",2,0.820558648983933,"post_loss"
1802.80197056291,3.95066593553491,"AU06EL20","2022_Mar_01_1002","MainTask",143,"Fixation",0,4,"reward",4,0.323662740631335,"post_loss"
1806.72200279109,0.5,"AU06EL20","2022_Mar_01_1002","MainTask",143,"Money",0,4,"reward",4,0.323662740631335,"post_loss"
1807.22243131384,0.323662740631335,"AU06EL20","2022_Mar_01_1002","MainTask",143,"Choice",0,4,"reward",4,0.323662740631335,"post_loss"
1807.54609405447,0,"AU06EL20","2022_Mar_01_1002","MainTask",143,"Response",0,4,"reward",4,0.323662740631335,"post_loss"
1809.57445356785,1,"AU06EL20","2022_Mar_01_1002","MainTask",143,"Feedback",0,4,"reward",4,0.323662740631335,"post_loss"
1810.5753117802,2.90947037692017,"AU06EL20","2022_Mar_01_1002","MainTask",144,"Fixation",0,4,"reward",4,0.696466160414275,"post_reward"
1813.46112315551,0.5,"AU06EL20","2022_Mar_01_1002","MainTask",144,"Money",0,4,"reward",4,0.696466160414275,"post_reward"
1813.96155167827,0.696466160414275,"AU06EL20","2022_Mar_01_1002","MainTask",144,"Choice",0,4,"reward",4,0.696466160414275,"post_reward"
1814.65801783868,0,"AU06EL20","2022_Mar_01_1002","MainTask",144,"Response",0,4,"reward",4,0.696466160414275,"post_reward"
1816.66387626106,1,"AU06EL20","2022_Mar_01_1002","MainTask",144,"Feedback",0,4,"reward",4,0.696466160414275,"post_reward"
1817.66473564026,3.53371062213245,"AU06EL20","2022_Mar_01_1002","MainTask",145,"Fixation",50,4,"loss",4,1.12406302580894,"post_reward"
1821.18442551697,0.5,"AU06EL20","2022_Mar_01_1002","MainTask",145,"Money",50,4,"loss",4,1.12406302580894,"post_reward"
1821.68485491485,1.12406302580894,"AU06EL20","2022_Mar_01_1002","MainTask",145,"Choice",50,4,"loss",4,1.12406302580894,"post_reward"
1822.80891794066,0,"AU06EL20","2022_Mar_01_1002","MainTask",145,"Response",50,4,"loss",4,1.12406302580894,"post_reward"
1824.83756099667,1,"AU06EL20","2022_Mar_01_1002","MainTask",145,"Feedback",50,4,"loss",4,1.12406302580894,"post_reward"
1825.87178301638,4.42164752590751,"AU06EL20","2022_Mar_01_1002","MainTask",146,"Fixation",50,5,"reward",4,1.72678305138652,"post_loss"
1830.27555354988,0.5,"AU06EL20","2022_Mar_01_1002","MainTask",146,"Money",50,5,"reward",4,1.72678305138652,"post_loss"
1830.7759949079,1.72678305138652,"AU06EL20","2022_Mar_01_1002","MainTask",146,"Choice",50,5,"reward",4,1.72678305138652,"post_loss"
1832.50277795929,0,"AU06EL20","2022_Mar_01_1002","MainTask",146,"Response",50,5,"reward",4,1.72678305138652,"post_loss"
1834.52921451692,1,"AU06EL20","2022_Mar_01_1002","MainTask",146,"Feedback",50,5,"reward",4,1.72678305138652,"post_loss"
1835.56345666465,3.51028271282056,"AU06EL20","2022_Mar_01_1002","MainTask",147,"Fixation",10,4,"reward",2,1.73479167201549,"post_reward"
1839.06644407209,0.5,"AU06EL20","2022_Mar_01_1002","MainTask",147,"Money",10,4,"reward",2,1.73479167201549,"post_reward"
1839.56687259485,1.73479167201549,"AU06EL20","2022_Mar_01_1002","MainTask",147,"Choice",10,4,"reward",2,1.73479167201549,"post_reward"
1841.30166426686,0,"AU06EL20","2022_Mar_01_1002","MainTask",147,"Response",10,4,"reward",2,1.73479167201549,"post_reward"
1843.30341628025,1,"AU06EL20","2022_Mar_01_1002","MainTask",147,"Feedback",10,4,"reward",2,1.73479167201549,"post_reward"
1844.32096004266,3.64473646190003,"AU06EL20","2022_Mar_01_1002","MainTask",148,"Fixation",10,4,"loss",2,0.39272462293593,"post_reward"
1847.95741084743,0.5,"AU06EL20","2022_Mar_01_1002","MainTask",148,"Money",10,4,"loss",2,0.39272462293593,"post_reward"
1848.45784228729,0.39272462293593,"AU06EL20","2022_Mar_01_1002","MainTask",148,"Choice",10,4,"loss",2,0.39272462293593,"post_reward"
1848.85056691023,0,"AU06EL20","2022_Mar_01_1002","MainTask",148,"Response",10,4,"loss",2,0.39272462293593,"post_reward"
1850.87658515497,1,"AU06EL20","2022_Mar_01_1002","MainTask",148,"Feedback",10,4,"loss",2,0.39272462293593,"post_reward"
1851.91080863323,3.48190505878452,"AU06EL20","2022_Mar_01_1002","MainTask",149,"Fixation",0,5,"reward",2,0.784573239177917,"post_loss"
1855.38047248936,0.5,"AU06EL20","2022_Mar_01_1002","MainTask",149,"Money",0,5,"reward",2,0.784573239177917,"post_loss"
1855.88088292607,0.784573239177917,"AU06EL20","2022_Mar_01_1002","MainTask",149,"Choice",0,5,"reward",2,0.784573239177917,"post_loss"
1856.66545616524,0,"AU06EL20","2022_Mar_01_1002","MainTask",149,"Response",0,5,"reward",2,0.784573239177917,"post_loss"
1858.69997047889,1,"AU06EL20","2022_Mar_01_1002","MainTask",149,"Feedback",0,5,"reward",2,0.784573239177917,"post_loss"
1859.70083540059,2.84177903122893,"AU06EL20","2022_Mar_01_1002","MainTask",150,"Fixation",50,4,"reward",2,0.622346017684322,"post_reward"
