values,cards,winlose,winlosecolor,MoneyTrigger,ChoiceTrigger,FeedbackTrigger,TrialPractice.thisRepN,TrialPractice.thisTrialN,TrialPractice.thisN,TrialPractice.thisIndex,Trial.thisRepN,Trial.thisTrialN,Trial.thisN,Trial.thisIndex,example2.started,example2.stopped,jitter,Fixation_prac.started,Fixation_prac.stopped,Money_prac.started,Money_prac.stopped,Choice_prac.started,Choice_prac.stopped,choice_prac.keys,choice_prac.rt,FeedbackSlide_prac.started,FeedbackSlide_prac.stopped,Fixation.started,Fixation.stopped,Money.started,Money.stopped,Choice.started,Choice.stopped,choice_resp.keys,choice_resp.rt,choice_resp.started,choice_resp.stopped,Square1.started,Square1.stopped,Square2.started,Square2.stopped,MoneyWon,FeedbackSlide.started,FeedbackSlide.stopped,square5.started,square5.stopped,square4.started,square4.stopped,Break_Text.started,Break_Text.stopped,Key_Response_Break.keys,Key_Response_Break.rt,text_2.started,text_2.stopped,participant,session,EEGPort,LogFilesFolder,date,expName,psychopyVersion,frameRate,
10,4,o,#3ced1d,,,,0,0,0,6,,,,,124.41026517653154,None,3.261695700243741,165.41210441136354,168.6815822145254,168.64821782374565,169.14864751334244,169.14864751334244,None,4,4.8855406679485895,176.05495942890047,None,,,,,,,,,,,,,,,,,,,,,,,,,,,,AU06EL20,1,0xC010,G:\Experimente\CoScience\Tasks\Logfiles\,2022_Mar_01_1002,Gambling,2020.1.3,59.96553961966104,
10,5,x,#ed1c24,,,,0,1,1,2,,,,,,,2.9940864461396264,177.05582230862092,180.0583975290956,180.02503488857838,180.52548149738504,180.52548149738504,None,4,0.893604713575769,183.42795858644058,None,,,,,,,,,,,,,,,,,,,,,,,,,,,,AU06EL20,1,0xC010,G:\Experimente\CoScience\Tasks\Logfiles\,2022_Mar_01_1002,Gambling,2020.1.3,59.96553961966104,
0,5,o,#3ced1d,,,,0,2,2,5,,,,,,,2.557258913646152,184.42881796563415,186.99769052780903,186.96432992926566,187.46475816030943,187.46475816030943,None,2,1.057235646092522,190.5340642043193,None,,,,,,,,,,,,,,,,,,,,,,,,,,,,AU06EL20,1,0xC010,G:\Experimente\CoScience\Tasks\Logfiles\,2022_Mar_01_1002,Gambling,2020.1.3,59.96553961966104,
50,3,o,#3ced1d,,,,0,3,3,8,,,,,,,3.3100001593722093,191.53492766745876,194.8544384922534,194.83775877640255,195.33815958665764,195.33815958665764,None,2,0.7257433950908307,198.073872480496,None,,,,,,,,,,,,,,,,,,,,,,,,,,,,AU06EL20,1,0xC010,G:\Experimente\CoScience\Tasks\Logfiles\,2022_Mar_01_1002,Gambling,2020.1.3,59.96553961966104,
10,4,o,#3ced1d,,,,0,4,4,7,,,,,,,4.114465111906798,199.07473215139908,203.1949349718907,203.1615793324254,203.66200493807446,203.66200493807446,None,2,0.8088030067192449,206.4810924909034,None,,,,,,,,,,,,,,,,,,,,,,,,,,,,AU06EL20,1,0xC010,G:\Experimente\CoScience\Tasks\Logfiles\,2022_Mar_01_1002,Gambling,2020.1.3,59.96553961966104,
10,4,x,#ed1c24,,,,0,5,5,3,,,,,,,2.9243618569816534,207.48195974628106,210.4178108525648,210.3844444198112,210.8848665249334,210.8848665249334,None,2,0.6108421215994895,213.50379398702898,None,,,,,,,,,,,,,,,,,,,,,,,,,,,,AU06EL20,1,0xC010,G:\Experimente\CoScience\Tasks\Logfiles\,2022_Mar_01_1002,Gambling,2020.1.3,59.96553961966104,
0,5,x,#ed1c24,,,,0,6,6,0,,,,,,,3.2524185861040413,214.50465715845894,217.75744532761382,217.74076502834214,218.24120113557,218.24120113557,None,2,1.3543900683071115,221.61075373331005,None,,,,,,,,,,,,,,,,,,,,,,,,,,,,AU06EL20,1,0xC010,G:\Experimente\CoScience\Tasks\Logfiles\,2022_Mar_01_1002,Gambling,2020.1.3,59.96553961966104,
50,4,x,#ed1c24,,,,0,7,7,4,,,,,,,4.278968348182985,222.6116352825029,226.89862884387003,226.86526824532666,227.36569705979127,227.36569705979127,None,2,0.9578029063704889,230.3349131402756,None,,,,,,,,,,,,,,,,,,,,,,,,,,,,AU06EL20,1,0xC010,G:\Experimente\CoScience\Tasks\Logfiles\,2022_Mar_01_1002,Gambling,2020.1.3,59.96553961966104,
0,7,x,#ed1c24,,,,0,8,8,1,,,,,,,4.347985067457765,231.33577747854724,235.68951294844555,235.67283381601737,236.1732629221915,236.1732629221915,None,4,0.9561066096939612,239.14247958609667,None,,,,,,,,,,,,,,,,,,,,,,,,,,,,AU06EL20,1,0xC010,G:\Experimente\CoScience\Tasks\Logfiles\,2022_Mar_01_1002,Gambling,2020.1.3,59.96553961966104,
50,8,o,#3ced1d,,,,0,9,9,9,,,,,,,3.7078133960580653,240.14334392437013,243.8631997260254,243.82983883577072,244.33026648339364,244.33026648339364,None,4,0.46599647147013457,246.7990581250706,None,,,,,,,,,,,,,,,,,,,,,,,,,,,,AU06EL20,1,0xC010,G:\Experimente\CoScience\Tasks\Logfiles\,2022_Mar_01_1002,Gambling,2020.1.3,59.96553961966104,
10,4,x,#ed1c24,19,14,110,,,,,0,0,0,55,,,3.999928628116429,,,,,,,,,,,361.64770470494113,365.6511273444776,365.6177679127759,366.1181990609257,366.1181990609257,None,4,1.852519620450039,366.1181990609257,None,365.6177679127759,366.1181990609257,366.1181990609257,None,990,369.9882049768148,None,368.0031577663831,370.0048709822713,369.9882049768148,None,None,None,None,,,,AU06EL20,1,0xC010,G:\Experimente\CoScience\Tasks\Logfiles\,2022_Mar_01_1002,Gambling,2020.1.3,59.96553961966104,
10,4,x,#ed1c24,19,14,110,,,,,0,1,1,54,,,3.641827483759559,,,,,,,,,,,371.0224162032355,374.6755446818843,374.64218349992007,375.1426126060942,375.1426126060942,None,2,1.017948656613953,375.1426126060942,None,374.64218349992007,375.1426126060942,375.1426126060942,None,980,378.16187600202466,None,376.17683550093716,378.1785647609013,378.16187600202466,None,None,None,None,,,,AU06EL20,1,0xC010,G:\Experimente\CoScience\Tasks\Logfiles\,2022_Mar_01_1002,Gambling,2020.1.3,59.96553961966104,
50,5,o,#3ced1d,59,55,151,,,,,0,2,2,186,,,3.158415967340977,,,,,,,,,,,379.1960936460782,382.3654817774277,382.33212555454156,382.8325517436115,382.8325517436115,None,4,1.0079426940519625,382.8325517436115,None,382.33212555454156,382.8325517436115,382.8325517436115,None,1030,385.86849981447267,None,383.88346835640914,385.88517223756025,385.86849981447267,None,None,None,None,,,,AU06EL20,1,0xC010,G:\Experimente\CoScience\Tasks\Logfiles\,2022_Mar_01_1002,Gambling,2020.1.3,59.96553961966104,
10,5,o,#3ced1d,19,15,111,,,,,0,3,3,136,,,3.1239476321912036,,,,,,,,,,,386.9026987890502,390.0387484918556,390.0053806005508,390.50580737304153,390.50580737304153,None,4,0.7955619744843716,390.50580737304153,None,390.0053806005508,390.50580737304153,390.50580737304153,None,1040,393.30817991304684,None,391.32316858301056,393.3248873413959,393.30817991304684,None,None,None,None,,,,AU06EL20,1,0xC010,G:\Experimente\CoScience\Tasks\Logfiles\,2022_Mar_01_1002,Gambling,2020.1.3,59.96553961966104,
10,8,x,#ed1c24,19,18,210,,,,,0,4,4,237,,,4.081602053329103,,,,,,,,,,,394.3257580973004,398.41260702858926,398.3959194365543,398.8963359991776,398.8963359991776,None,4,1.4279057868370728,398.8963359991776,None,398.3959194365543,398.8963359991776,398.8963359991776,None,1030,402.3493020534079,None,400.3642802217928,402.36598351952125,402.3493020534079,None,None,None,None,,,,AU06EL20,1,0xC010,G:\Experimente\CoScience\Tasks\Logfiles\,2022_Mar_01_1002,Gambling,2020.1.3,59.96553961966104,
50,4,o,#3ced1d,59,54,151,,,,,0,5,5,72,,,4.158940629465383,,,,,,,,,,,403.38353282443495,407.553780918397,407.5371286233367,408.03753351753767,408.03753351753767,None,2,1.2456167577201995,408.03753351753767,None,407.5371286233367,408.03753351753767,408.03753351753767,None,1080,411.3070040279381,None,409.32197869579613,411.3236849106306,411.3070040279381,None,None,None,None,,,,AU06EL20,1,0xC010,G:\Experimente\CoScience\Tasks\Logfiles\,2022_Mar_01_1002,Gambling,2020.1.3,59.96553961966104,
10,5,x,#ed1c24,19,15,110,,,,,0,6,6,154,,,3.8485860654550397,,,,,,,,,,,412.34122838133226,416.194554289661,416.1778550292056,416.6782888027501,416.6782888027501,None,4,1.6767369027802488,416.6782888027501,None,416.1778550292056,416.6782888027501,416.6782888027501,None,1070,420.3814651802659,None,418.3964357641762,420.3981460629584,420.3814651802659,None,None,None,None,,,,AU06EL20,1,0xC010,G:\Experimente\CoScience\Tasks\Logfiles\,2022_Mar_01_1002,Gambling,2020.1.3,59.96553961966104,
10,5,x,#ed1c24,19,15,110,,,,,0,7,7,169,,,2.953724842935922,,,,,,,,,,,421.41568428287064,424.38490386388,424.35154034823245,424.8519630367755,424.8519630367755,None,4,1.015971442706359,424.8519630367755,None,424.35154034823245,424.8519630367755,424.8519630367755,None,1060,427.8712299332328,None,425.8861943912234,427.8879143164522,427.8712299332328,None,None,None,None,,,,AU06EL20,1,0xC010,G:\Experimente\CoScience\Tasks\Logfiles\,2022_Mar_01_1002,Gambling,2020.1.3,59.96553961966104,
10,5,x,#ed1c24,19,15,110,,,,,0,8,8,158,,,3.5832922572917325,,,,,,,,,,,428.8887643609087,432.47518389431207,432.4585009696457,432.9589414525308,432.9589414525308,None,4,0.7668602846624708,432.9589414525308,None,432.4585009696457,432.9589414525308,432.9589414525308,None,1050,435.7279781893867,None,433.74294352250945,435.7446611140531,435.7279781893867,None,None,None,None,,,,AU06EL20,1,0xC010,G:\Experimente\CoScience\Tasks\Logfiles\,2022_Mar_01_1002,Gambling,2020.1.3,59.96553961966104,
50,3,o,#3ced1d,59,53,251,,,,,0,9,9,216,,,2.8080955721841923,,,,,,,,,,,436.7455219517997,439.56460483726005,439.5312524066121,440.03167363660214,440.03167363660214,None,2,1.3300573269516462,440.03167363660214,None,439.5312524066121,440.03167363660214,440.03167363660214,None,1100,443.3845523527034,None,441.39952176977204,443.4012329436864,443.3845523527034,None,None,None,None,,,,AU06EL20,1,0xC010,G:\Experimente\CoScience\Tasks\Logfiles\,2022_Mar_01_1002,Gambling,2020.1.3,59.96553961966104,
10,5,o,#3ced1d,19,15,111,,,,,0,10,10,145,,,3.972202231452153,,,,,,,,,,,444.4188178372806,448.4055318816263,448.3721692411091,448.8725992224154,448.8725992224154,None,2,1.0580223893666698,448.8725992224154,None,448.3721692411091,448.8725992224154,448.8725992224154,None,1110,451.9419011824775,None,449.95686797415146,451.9585838154326,451.9419011824775,None,None,None,None,,,,AU06EL20,1,0xC010,G:\Experimente\CoScience\Tasks\Logfiles\,2022_Mar_01_1002,Gambling,2020.1.3,59.96553961966104,
50,5,x,#ed1c24,59,55,150,,,,,0,11,11,188,,,2.8993878956711594,,,,,,,,,,,452.95946273923073,455.861933994076,455.84525748704255,456.34568221755944,456.34568221755944,None,2,0.7048472953756573,456.34568221755944,None,455.84525748704255,456.34568221755944,456.34568221755944,None,1060,459.0813650652144,None,457.0963403164933,459.09804623961827,459.0813650652144,None,None,None,None,,,,AU06EL20,1,0xC010,G:\Experimente\CoScience\Tasks\Logfiles\,2022_Mar_01_1002,Gambling,2020.1.3,59.96553961966104,
0,4,o,#3ced1d,9,4,101,,,,,0,12,12,6,,,4.478609315954101,,,,,,,,,,,460.11559321084496,464.6027769091288,464.5860934010416,465.0865236740592,465.0865236740592,None,2,1.162857899638766,465.0865236740592,None,464.5860934010416,465.0865236740592,465.0865236740592,None,1060,468.2725915212577,None,466.2875551041161,468.2892756127676,468.2725915212577,None,None,None,None,,,,AU06EL20,1,0xC010,G:\Experimente\CoScience\Tasks\Logfiles\,2022_Mar_01_1002,Gambling,2020.1.3,59.96553961966104,
0,5,x,#ed1c24,9,5,100,,,,,0,13,13,126,,,4.41225906598619,,,,,,,,,,,469.27345440097815,473.69391690217344,473.67723368579755,474.17766337539433,474.17766337539433,None,2,0.8136372334629414,474.17766337539433,None,473.67723368579755,474.17766337539433,474.17766337539433,None,1060,477.0134329777575,None,475.0283971440367,477.03011444387084,477.0134329777575,None,None,None,None,,,,AU06EL20,1,0xC010,G:\Experimente\CoScience\Tasks\Logfiles\,2022_Mar_01_1002,Gambling,2020.1.3,59.96553961966104,
10,8,x,#ed1c24,19,18,210,,,,,0,14,14,238,,,4.0665661531810375,,,,,,,,,,,478.01429614918743,482.0844554464693,482.0677736886446,482.5682051285039,482.5682051285039,None,4,0.7889836105368886,482.5682051285039,None,482.0677736886446,482.5682051285039,482.5682051285039,None,1050,485.3706141323237,None,483.3855736312362,485.3872923896215,485.3706141323237,None,None,None,None,,,,AU06EL20,1,0xC010,G:\Experimente\CoScience\Tasks\Logfiles\,2022_Mar_01_1002,Gambling,2020.1.3,59.96553961966104,
10,5,x,#ed1c24,19,15,110,,,,,0,15,15,168,,,3.0353094744713314,,,,,,,,,,,486.40482769242954,489.44077080421084,489.42409342204337,489.9245222365098,489.9245222365098,None,2,1.0455645998790715,489.9245222365098,None,489.42409342204337,489.9245222365098,489.9245222365098,None,1040,492.9771441890098,None,490.992106896736,492.99382973907086,492.9771441890098,None,None,None,None,,,,AU06EL20,1,0xC010,G:\Experimente\CoScience\Tasks\Logfiles\,2022_Mar_01_1002,Gambling,2020.1.3,59.96553961966104,
0,5,o,#3ced1d,9,5,101,,,,,0,16,16,118,,,2.8938465416233035,,,,,,,,,,,493.9946850343167,496.8971770006083,496.88049611791575,497.38092609922387,497.38092609922387,None,2,0.8120727899422491,497.38092609922387,None,496.88049611791575,497.38092609922387,497.38092609922387,None,1040,500.2166930761923,None,498.23166511865566,500.2333760008587,500.2166930761923,None,None,None,None,,,,AU06EL20,1,0xC010,G:\Experimente\CoScience\Tasks\Logfiles\,2022_Mar_01_1002,Gambling,2020.1.3,59.96553961966104,
50,5,o,#3ced1d,59,55,151,,,,,0,17,17,174,,,4.404435622027678,,,,,,,,,,,501.2175553724901,505.62133903296854,505.6046753611954,506.1050881315823,506.1050881315823,None,2,1.0858168594677409,506.1050881315823,None,505.6046753611954,506.1050881315823,506.1050881315823,None,1090,509.2077466062401,None,507.2227116476515,509.2244254469588,509.2077466062401,None,None,None,None,,,,AU06EL20,1,0xC010,G:\Experimente\CoScience\Tasks\Logfiles\,2022_Mar_01_1002,Gambling,2020.1.3,59.96553961966104,
0,3,o,#3ced1d,9,3,201,,,,,0,18,18,211,,,3.208256750557503,,,,,,,,,,,510.24198262805476,513.461402905903,513.4447220232105,513.9451520045168,513.9451520045168,None,2,3.2436077473648766,513.9451520045168,None,513.4447220232105,513.9451520045168,513.9451520045168,None,1090,519.1996638911387,None,517.2146265988649,519.2163494411998,519.1996638911387,None,None,None,None,,,,AU06EL20,1,0xC010,G:\Experimente\CoScience\Tasks\Logfiles\,2022_Mar_01_1002,Gambling,2020.1.3,59.96553961966104,
50,5,x,#ed1c24,59,55,150,,,,,0,19,19,197,,,4.3541661209755675,,,,,,,,,,,520.2005285211198,524.5542631158878,524.5375816497744,525.0380122145034,525.0380122145034,None,4,2.104613226854781,525.0380122145034,None,524.5375816497744,525.0380122145034,525.0380122145034,None,1040,529.1748997099221,None,527.1898691269926,529.1915817594581,529.1748997099221,None,None,None,None,,,,AU06EL20,1,0xC010,G:\Experimente\CoScience\Tasks\Logfiles\,2022_Mar_01_1002,Gambling,2020.1.3,59.96553961966104,
50,4,o,#3ced1d,59,54,151,,,,,0,20,20,73,,,3.1228541745203304,,,,,,,,,,,530.2091121031863,533.3451513044129,533.3117872053426,533.8122148529656,533.8122148529656,None,2,2.080300030105718,533.8122148529656,None,533.3117872053426,533.8122148529656,533.8122148529656,None,1090,537.9157370824742,None,535.9307280861212,537.932418256878,537.9157370824742,None,None,None,None,,,,AU06EL20,1,0xC010,G:\Experimente\CoScience\Tasks\Logfiles\,2022_Mar_01_1002,Gambling,2020.1.3,59.96553961966104,
0,4,x,#ed1c24,9,4,100,,,,,0,21,21,30,,,2.6593018053410917,,,,,,,,,,,538.9499628944213,541.6189195859115,541.5855566536829,542.0859948028847,542.0859948028847,None,4,1.0603875782653631,542.0859948028847,None,541.5855566536829,542.0859948028847,542.0859948028847,None,1090,545.1719843549818,None,543.1869345191553,545.1886535692538,545.1719843549818,None,None,None,None,,,,AU06EL20,1,0xC010,G:\Experimente\CoScience\Tasks\Logfiles\,2022_Mar_01_1002,Gambling,2020.1.3,59.96553961966104,
10,5,o,#3ced1d,19,15,111,,,,,0,22,22,152,,,4.229087346931115,,,,,,,,,,,546.1728329408852,550.4098004816715,550.393119598979,550.8935495802871,550.8935495802871,None,2,0.9537551311877905,550.8935495802871,None,550.393119598979,550.8935495802871,550.8935495802871,None,1100,553.8794509191212,None,551.894408376058,553.8961318018137,553.8794509191212,None,None,None,None,,,,AU06EL20,1,0xC010,G:\Experimente\CoScience\Tasks\Logfiles\,2022_Mar_01_1002,Gambling,2020.1.3,59.96553961966104,
50,4,o,#3ced1d,59,54,151,,,,,0,23,23,83,,,4.372841576063828,,,,,,,,,,,554.913686357515,559.3007719243797,559.2674101589928,559.767838098327,559.767838098327,None,2,1.08135106311056,559.767838098327,None,559.2674101589928,559.767838098327,559.767838098327,None,1150,562.8538206493704,None,560.8687871493348,562.8705018237742,562.8538206493704,None,None,None,None,,,,AU06EL20,1,0xC010,G:\Experimente\CoScience\Tasks\Logfiles\,2022_Mar_01_1002,Gambling,2020.1.3,59.96553961966104,
50,5,o,#3ced1d,59,55,151,,,,,0,24,24,171,,,2.821310304203183,,,,,,,,,,,563.871364120072,566.7071305136196,566.6904537148748,567.1908790288144,567.1908790288144,None,4,1.3442102462740877,567.1908790288144,None,566.6904537148748,567.1908790288144,567.1908790288144,None,1200,570.543758620046,None,568.5587216194835,570.560449712606,570.543758620046,None,None,None,None,,,,AU06EL20,1,0xC010,G:\Experimente\CoScience\Tasks\Logfiles\,2022_Mar_01_1002,Gambling,2020.1.3,59.96553961966104,
0,5,o,#3ced1d,9,5,101,,,,,0,25,25,106,,,3.656832414728857,,,,,,,,,,,571.5613061746953,575.2311216619564,575.1977645639399,575.6981863773526,575.6981863773526,None,4,0.959796747778455,575.6981863773526,None,575.1977645639399,575.6981863773526,575.6981863773526,None,1200,578.6674056666507,None,576.6823654572727,578.6840839239503,578.6674056666507,None,None,None,None,,,,AU06EL20,1,0xC010,G:\Experimente\CoScience\Tasks\Logfiles\,2022_Mar_01_1002,Gambling,2020.1.3,59.96553961966104,
10,5,x,#ed1c24,19,15,110,,,,,0,26,26,162,,,2.7891907002346983,,,,,,,,,,,579.6682644624234,582.4706708408503,582.4373073252009,582.937735847956,582.937735847956,None,4,0.5751606741559954,582.937735847956,None,582.4373073252009,582.937735847956,582.937735847956,None,1190,585.5399739677523,None,583.5549422179793,585.5566516416293,585.5399739677523,None,None,None,None,,,,AU06EL20,1,0xC010,G:\Experimente\CoScience\Tasks\Logfiles\,2022_Mar_01_1002,Gambling,2020.1.3,59.96553961966104,
10,5,o,#3ced1d,19,15,111,,,,,0,27,27,138,,,2.887693462500338,,,,,,,,,,,586.5741857775956,589.47668532836,589.4600070710621,589.9604434700013,589.9604434700013,None,2,1.1153563419029524,589.9604434700013,None,589.4600070710621,589.9604434700013,589.9604434700013,None,1200,593.0964602095173,None,591.1114322519807,593.1131445927367,593.0964602095173,None,None,None,None,,,,AU06EL20,1,0xC010,G:\Experimente\CoScience\Tasks\Logfiles\,2022_Mar_01_1002,Gambling,2020.1.3,59.96553961966104,
10,5,o,#3ced1d,19,15,111,,,,,0,28,28,141,,,2.8520252834200526,,,,,,,,,,,594.1307055660691,596.9831312557326,596.9664503730382,597.4668812294785,597.4668812294785,None,2,0.9728268733051664,597.4668812294785,None,596.9664503730382,597.4668812294785,597.4668812294785,None,1210,600.4527811097596,None,598.4677391501191,600.4694649095582,600.4527811097596,None,None,None,None,,,,AU06EL20,1,0xC010,G:\Experimente\CoScience\Tasks\Logfiles\,2022_Mar_01_1002,Gambling,2020.1.3,59.96553961966104,
10,4,o,#3ced1d,19,14,111,,,,,0,29,29,36,,,3.9796900053476794,,,,,,,,,,,601.470321663357,605.4570739217797,605.4403959561914,605.9408250623674,605.9408250623674,None,2,1.9767532969126478,605.9408250623674,None,605.4403959561914,605.9408250623674,605.9408250623674,None,1220,609.9275542756586,None,607.9425429456223,609.9442287407201,609.9275542756586,None,None,None,None,,,,AU06EL20,1,0xC010,G:\Experimente\CoScience\Tasks\Logfiles\,2022_Mar_01_1002,Gambling,2020.1.3,59.96553961966104,
0,4,o,#3ced1d,9,4,101,,,,,0,30,30,12,,,3.5575149514451034,,,,,,,,,,,610.945195469385,614.51485769194,614.4814965099758,614.9819244493083,614.9819244493083,None,2,1.1245516409289849,614.9819244493083,None,614.4814965099758,614.9819244493083,614.9819244493083,None,1220,618.1179680261921,None,616.1329114810251,618.1346302394122,618.1179680261921,None,None,None,None,,,,AU06EL20,1,0xC010,G:\Experimente\CoScience\Tasks\Logfiles\,2022_Mar_01_1002,Gambling,2020.1.3,59.96553961966104,
50,5,x,#ed1c24,59,55,150,,,,,0,31,31,203,,,3.7472864327226314,,,,,,,,,,,619.1188189457807,622.8720306786108,622.8553527130243,623.3557818192003,623.3557818192003,None,2,1.091584268169754,623.3557818192003,None,622.8553527130243,623.3557818192003,623.3557818192003,None,1170,626.4751252604965,None,624.4900970112503,626.4918183950322,626.4751252604965,None,None,None,None,,,,AU06EL20,1,0xC010,G:\Experimente\CoScience\Tasks\Logfiles\,2022_Mar_01_1002,Gambling,2020.1.3,59.96553961966104,
50,4,x,#ed1c24,59,54,150,,,,,0,32,32,97,,,3.8753561827944774,,,,,,,,,,,627.5093501973133,631.396022118659,631.3793374437282,631.8797683001667,631.8797683001667,None,2,1.2505052426222392,631.8797683001667,None,631.3793374437282,631.8797683001667,631.8797683001667,None,1120,635.1325588030068,None,633.1475220941538,635.1492420193827,635.1325588030068,None,None,None,None,,,,AU06EL20,1,0xC010,G:\Experimente\CoScience\Tasks\Logfiles\,2022_Mar_01_1002,Gambling,2020.1.3,59.96553961966104,
50,5,x,#ed1c24,59,55,150,,,,,0,33,33,200,,,2.516768186818147,,,,,,,,,,,636.1501072327865,638.668944439647,638.652248971428,639.1526792444456,639.1526792444456,None,2,1.1064833830005227,639.1526792444456,None,638.652248971428,639.1526792444456,639.1526792444456,None,1070,642.272025019427,None,640.2869865603134,642.2887018181736,642.272025019427,None,None,None,None,,,,AU06EL20,1,0xC010,G:\Experimente\CoScience\Tasks\Logfiles\,2022_Mar_01_1002,Gambling,2020.1.3,59.96553961966104,
0,4,o,#3ced1d,9,4,101,,,,,0,34,34,11,,,3.7020202109187483,,,,,,,,,,,643.2895649896036,646.9927451593558,646.9760642766632,647.4764945496809,647.4764945496809,None,2,1.9595487938349834,647.4764945496809,None,646.9760642766632,647.4764945496809,647.4764945496809,None,1070,651.4632558511294,None,649.4782208925408,651.479934691848,651.4632558511294,None,None,None,None,,,,AU06EL20,1,0xC010,G:\Experimente\CoScience\Tasks\Logfiles\,2022_Mar_01_1002,Gambling,2020.1.3,59.96553961966104,
0,4,x,#ed1c24,9,4,100,,,,,0,35,35,29,,,4.320724985428421,,,,,,,,,,,652.4641128966377,656.7844874762832,656.767810385827,657.2682362831874,657.2682362831874,None,2,1.140693734290835,657.2682362831874,None,656.767810385827,657.2682362831874,657.2682362831874,None,1070,660.4376261647994,None,658.452587705684,660.4543079226241,660.4376261647994,None,None,None,None,,,,AU06EL20,1,0xC010,G:\Experimente\CoScience\Tasks\Logfiles\,2022_Mar_01_1002,Gambling,2020.1.3,59.96553961966104,
50,5,x,#ed1c24,59,55,150,,,,,0,36,36,194,,,3.214436864864128,,,,,,,,,,,661.4384776678089,664.6579151565784,664.6412339821745,665.1416665888773,665.1416665888773,None,4,1.4341189292135823,665.1416665888773,None,664.6412339821745,665.1416665888773,665.1416665888773,None,1020,668.5779494267299,None,666.5929159266943,668.5946306011338,668.5779494267299,None,None,None,None,,,,AU06EL20,1,0xC010,G:\Experimente\CoScience\Tasks\Logfiles\,2022_Mar_01_1002,Gambling,2020.1.3,59.96553961966104,
0,4,x,#ed1c24,9,4,100,,,,,0,37,37,22,,,4.408173670928102,,,,,,,,,,,669.6121740718354,674.0326336559265,674.0159650250753,674.5163833379611,674.5163833379611,None,2,2.3803059226556798,674.5163833379611,None,674.0159650250753,674.5163833379611,674.5163833379611,None,1020,678.9034872825887,None,676.918447948341,678.9201664150169,678.9034872825887,None,None,None,None,,,,AU06EL20,1,0xC010,G:\Experimente\CoScience\Tasks\Logfiles\,2022_Mar_01_1002,Gambling,2020.1.3,59.96553961966104,
0,5,o,#3ced1d,9,5,101,,,,,0,38,38,105,,,3.447219119882525,,,,,,,,,,,679.904351329149,683.3573240927217,683.3406277493705,683.8410556887047,683.8410556887047,None,2,1.4855565369980468,683.8410556887047,None,683.3406277493705,683.8410556887047,683.8410556887047,None,1020,687.3607449819956,None,685.3757176078798,687.377427906662,687.3607449819956,None,None,None,None,,,,AU06EL20,1,0xC010,G:\Experimente\CoScience\Tasks\Logfiles\,2022_Mar_01_1002,Gambling,2020.1.3,59.96553961966104,
50,4,x,#ed1c24,59,54,150,,,,,0,39,39,98,,,2.641321474992655,,,,,,,,,,,688.3616061114517,691.0138827953797,690.9805210299946,691.4809513030123,691.4809513030123,None,2,0.7785427075868938,691.4809513030123,None,690.9805210299946,691.4809513030123,691.4809513030123,None,970,694.2833629322267,None,692.2983230145601,694.3000397309734,694.2833629322267,None,None,None,None,,,,AU06EL20,1,0xC010,G:\Experimente\CoScience\Tasks\Logfiles\,2022_Mar_01_1002,Gambling,2020.1.3,59.96553961966104,
10,3,o,#3ced1d,19,13,211,,,,,0,40,40,213,,,4.469726019751954,,,,,,,,,,,695.3175779508856,699.7881008945005,699.7714039677303,700.2718365744313,700.2718365744313,None,2,1.505535790547583,700.2718365744313,None,699.7714039677303,700.2718365744313,700.2718365744313,None,980,703.808205583573,None,701.8231758757738,703.8248858828447,703.808205583573,None,None,None,None,,,,AU06EL20,1,0xC010,G:\Experimente\CoScience\Tasks\Logfiles\,2022_Mar_01_1002,Gambling,2020.1.3,59.96553961966104,
0,5,x,#ed1c24,9,5,100,,,,,0,41,41,131,,,4.461620980971676,,,,,,,,,,,704.8424343126244,709.3129368365044,709.2795803219087,709.7800006767684,709.7800006767684,None,2,0.850248654047391,709.7800006767684,None,709.2795803219087,709.7800006767684,709.7800006767684,None,980,712.6491320445166,None,710.6641020450079,712.665819344842,712.6491320445166,None,None,None,None,,,,AU06EL20,1,0xC010,G:\Experimente\CoScience\Tasks\Logfiles\,2022_Mar_01_1002,Gambling,2020.1.3,59.96553961966104,
0,8,o,#3ced1d,9,8,201,,,,,0,42,42,235,,,4.276971265959302,,,,,,,,,,,713.6499957993674,717.9370054048122,717.9203280226466,718.4207530448748,718.4207530448748,None,4,2.4043562882270635,718.4207530448748,None,717.9203280226466,718.4207530448748,718.4207530448748,None,980,722.8578978873156,None,720.8728579696472,722.874577894876,722.8578978873156,None,None,None,None,,,,AU06EL20,1,0xC010,G:\Experimente\CoScience\Tasks\Logfiles\,2022_Mar_01_1002,Gambling,2020.1.3,59.96553961966104,
0,5,o,#3ced1d,9,5,101,,,,,0,43,43,114,,,3.089768900733149,,,,,,,,,,,723.8587610587456,726.9614215753772,726.9280612685434,727.4284985426148,727.4284985426148,None,4,1.3365190066906507,727.4284985426148,None,726.9280612685434,727.4284985426148,727.4284985426148,None,980,730.7813687991093,None,728.7963385078892,730.7980525989078,730.7813687991093,None,None,None,None,,,,AU06EL20,1,0xC010,G:\Experimente\CoScience\Tasks\Logfiles\,2022_Mar_01_1002,Gambling,2020.1.3,59.96553961966104,
0,4,x,#ed1c24,9,4,100,,,,,0,44,44,24,,,4.370282308950266,,,,,,,,,,,731.7822360544869,736.1526532822099,736.1359607310969,736.636399755429,736.636399755429,None,2,1.493491938288571,736.636399755429,None,736.1359607310969,736.636399755429,736.636399755429,None,980,740.1394087494482,None,738.1543723323066,740.1560878818782,740.1394087494482,None,None,None,None,,,,AU06EL20,1,0xC010,G:\Experimente\CoScience\Tasks\Logfiles\,2022_Mar_01_1002,Gambling,2020.1.3,59.96553961966104,
0,5,x,#ed1c24,9,5,100,,,,,0,45,45,119,,,4.182518649805802,,,,,,,,,,,741.1402558768004,745.3271889374028,745.3105106801049,745.8109427033869,745.8109427033869,None,4,1.337843372451971,745.8109427033869,None,745.3105106801049,745.8109427033869,745.8109427033869,None,980,749.1638228780394,None,747.1787858774769,749.1805037607319,749.1638228780394,None,None,None,None,,,,AU06EL20,1,0xC010,G:\Experimente\CoScience\Tasks\Logfiles\,2022_Mar_01_1002,Gambling,2020.1.3,59.96553961966104,
0,4,x,#ed1c24,9,4,100,,,,,0,46,46,27,,,2.5004822391434915,,,,,,,,,,,750.1646845909163,752.666850541531,752.6501544898911,753.1505859297504,753.1505859297504,None,4,0.9860868667256,753.1505859297504,None,752.6501544898911,753.1505859297504,753.1505859297504,None,980,756.1531617336477,None,754.1681241496626,756.1698434914706,756.1531617336477,None,None,None,None,,,,AU06EL20,1,0xC010,G:\Experimente\CoScience\Tasks\Logfiles\,2022_Mar_01_1002,Gambling,2020.1.3,59.96553961966104,
0,7,o,#3ced1d,9,7,201,,,,,0,47,47,226,,,3.381329129645994,,,,,,,,,,,757.1540319061296,760.5402677202474,760.5235815867654,761.024008942677,761.024008942677,None,4,2.3915662404579052,761.024008942677,None,760.5235815867654,761.024008942677,761.024008942677,None,980,765.4277896860494,None,763.4427518103548,765.4444615257162,765.4277896860494,None,None,None,None,,,,AU06EL20,1,0xC010,G:\Experimente\CoScience\Tasks\Logfiles\,2022_Mar_01_1002,Gambling,2020.1.3,59.96553961966104,
10,5,o,#3ced1d,19,15,111,,,,,0,48,48,150,,,2.5915933629806647,,,,,,,,,,,766.4286511072169,769.0308839762238,768.9975207522857,769.497953650698,769.497953650698,None,4,1.4455239354319929,769.497953650698,None,768.9975207522857,769.497953650698,769.497953650698,None,990,772.9509299147976,None,770.9658800789712,772.9675997124905,772.9509299147976,None,None,None,None,,,,AU06EL20,1,0xC010,G:\Experimente\CoScience\Tasks\Logfiles\,2022_Mar_01_1002,Gambling,2020.1.3,59.96553961966104,
10,5,o,#3ced1d,19,15,111,,,,,0,49,49,143,,,4.371212989251411,,,,,,,,,,,773.9851364738497,778.3555627445985,778.3388783613791,778.8393060090038,778.8393060090038,None,4,1.199054799571968,778.8393060090038,None,778.3388783613791,778.8393060090038,778.8393060090038,None,1000,782.0420582394217,None,780.0570206554385,782.0587382469821,782.0420582394217,None,None,None,None,,,,AU06EL20,1,0xC010,G:\Experimente\CoScience\Tasks\Logfiles\,2022_Mar_01_1002,Gambling,2020.1.3,59.96553961966104,
10,4,o,#3ced1d,19,14,111,,,,,0,50,50,48,,,3.8982970398051724,,,,,,,,,,,783.0595996681495,786.962949846793,786.9462695475213,787.4467001122503,787.4467001122503,None,2,4.155509419915688,787.4467001122503,None,786.9462695475213,787.4467001122503,787.4467001122503,None,1010,793.6186672563108,None,791.6336290889067,793.6353472638712,793.6186672563108,None,None,None,None,,,,AU06EL20,1,0xC010,G:\Experimente\CoScience\Tasks\Logfiles\,2022_Mar_01_1002,Gambling,2020.1.3,59.96553961966104,
50,5,o,#3ced1d,59,55,151,,,,,0,51,51,176,,,3.449212868053314,,,,,,,,,,,794.6362086850386,798.0891896165049,798.0724906477608,798.572924129594,798.572924129594,None,4,1.6301758197660092,798.572924129594,None,798.0724906477608,798.572924129594,798.572924129594,None,1060,802.2093950623912,None,800.2243414343284,802.2260581507417,802.2093950623912,None,None,None,None,,,,AU06EL20,1,0xC010,G:\Experimente\CoScience\Tasks\Logfiles\,2022_Mar_01_1002,Gambling,2020.1.3,59.96553961966104,
0,4,x,#ed1c24,9,4,100,,,,,0,52,52,18,,,3.14614654127903,,,,,,,,,,,803.2269256978288,806.3796335299066,806.3462630132053,806.8466924110926,806.8466924110926,None,2,1.1993062540404935,806.8466924110926,None,806.3462630132053,806.8466924110926,806.8466924110926,None,1060,810.0661246490727,None,808.0810946495621,810.0828148665005,810.0661246490727,None,None,None,None,,,,AU06EL20,1,0xC010,G:\Experimente\CoScience\Tasks\Logfiles\,2022_Mar_01_1002,Gambling,2020.1.3,59.96553961966104,
10,4,o,#3ced1d,19,14,111,,,,,0,53,53,41,,,3.3167588399902903,,,,,,,,,,,811.0669857785288,814.3865068131909,814.3698180543142,814.8702509527266,814.8702509527266,None,2,2.1576330725056323,814.8702509527266,None,814.3698180543142,814.8702509527266,814.8702509527266,None,1070,819.0571805128038,None,817.0721583894774,819.0738599369433,819.0571805128038,None,None,None,None,,,,AU06EL20,1,0xC010,G:\Experimente\CoScience\Tasks\Logfiles\,2022_Mar_01_1002,Gambling,2020.1.3,59.96553961966104,
50,4,x,#ed1c24,59,54,150,,,,,0,54,54,96,,,3.0530030070786336,,,,,,,,,,,820.0913958231722,823.1440224430407,823.1273412686369,823.6277694996807,823.6277694996807,None,2,2.678992408524209,823.6277694996807,None,823.1273412686369,823.6277694996807,823.6277694996807,None,1020,828.3318116740211,None,826.3467805076689,828.3484928484249,828.3318116740211,None,None,None,None,,,,AU06EL20,1,0xC010,G:\Experimente\CoScience\Tasks\Logfiles\,2022_Mar_01_1002,Gambling,2020.1.3,59.96553961966104,
50,5,o,#3ced1d,59,55,151,,,,,0,55,55,183,,,4.138263113673123,,,,,,,,,,,829.3660721995202,833.5196000298711,833.5029179803369,834.0033482533545,834.0033482533545,None,4,1.864294807319311,834.0033482533545,None,833.5029179803369,834.0033482533545,834.0033482533545,None,1070,837.8900228000948,None,835.9049893000574,837.9067074750237,837.8900228000948,None,None,None,None,,,,AU06EL20,1,0xC010,G:\Experimente\CoScience\Tasks\Logfiles\,2022_Mar_01_1002,Gambling,2020.1.3,59.96553961966104,
10,6,x,#ed1c24,19,16,210,,,,,0,56,56,223,,,4.231462970046355,,,,,,,,,,,838.9242378187519,843.1612109020389,843.1445317696089,843.644963792889,843.644963792889,None,4,2.9295384906199615,843.644963792889,None,843.1445317696089,843.644963792889,843.644963792889,None,1060,848.5992168739358,None,846.6141833739002,848.6158971732075,848.5992168739358,None,None,None,None,,,,AU06EL20,1,0xC010,G:\Experimente\CoScience\Tasks\Logfiles\,2022_Mar_01_1002,Gambling,2020.1.3,59.96553961966104,
10,4,o,#3ced1d,19,14,111,,,,,0,57,57,43,,,3.999564507268011,,,,,,,,,,,849.6334418107526,853.6368787441043,853.6201984448326,854.1206258007442,854.1206258007442,None,2,1.2227615301508195,854.1206258007442,None,853.6201984448326,854.1206258007442,854.1206258007442,None,1070,857.3734163035842,None,855.3883886377589,857.3900980614089,857.3734163035842,None,None,None,None,,,,AU06EL20,1,0xC010,G:\Experimente\CoScience\Tasks\Logfiles\,2022_Mar_01_1002,Gambling,2020.1.3,59.96553961966104,
50,4,o,#3ced1d,59,54,151,,,,,0,58,58,70,,,3.3238389887616355,,,,,,,,,,,858.4076351144777,861.7438387820966,861.7104761415794,862.2109046643345,862.2109046643345,None,2,0.8363824861662579,862.2109046643345,None,861.7104761415794,862.2109046643345,862.2109046643345,None,1120,865.0633609836004,None,863.0783190239599,865.0800395326096,865.0633609836004,None,None,None,None,,,,AU06EL20,1,0xC010,G:\Experimente\CoScience\Tasks\Logfiles\,2022_Mar_01_1002,Gambling,2020.1.3,59.96553961966104,
10,5,o,#3ced1d,19,15,111,,,,,0,59,59,146,,,2.8291452876077843,,,,,,,,,,,866.080896578118,868.9166629716656,868.8999873397624,869.4004129454133,869.4004129454133,None,4,1.5377706781928282,869.4004129454133,None,868.8999873397624,869.4004129454133,869.4004129454133,None,1130,872.9534634206666,None,870.9684275869477,872.9701448867818,872.9534634206666,None,873.9710048493962,None,space,122.45912231305374,,,AU06EL20,1,0xC010,G:\Experimente\CoScience\Tasks\Logfiles\,2022_Mar_01_1002,Gambling,2020.1.3,59.96553961966104,
10,8,o,#3ced1d,19,18,211,,,,,0,60,60,236,,,4.427338449125827,,,,,,,,,,,997.460387169871,1001.8975325957326,1001.8641696635059,1002.3646025619182,1002.3646025619182,None,4,0.9288742657663533,1002.3646025619182,None,1001.8641696635059,1002.3646025619182,1002.3646025619182,None,1140,1005.3004565853062,None,1003.3154178344812,1005.317134842604,1005.3004565853062,None,None,None,None,,,,AU06EL20,1,0xC010,G:\Experimente\CoScience\Tasks\Logfiles\,2022_Mar_01_1002,Gambling,2020.1.3,59.96553961966104,
10,5,o,#3ced1d,19,15,111,,,,,0,61,61,144,,,3.115393740961112,,,,,,,,,,,1006.3179983057453,1009.4373423304642,1009.4039872744197,1009.9044093795437,1009.9044093795437,None,4,1.314971225672707,1009.9044093795437,None,1009.4039872744197,1009.9044093795437,1009.9044093795437,None,1150,1013.2239266219676,None,1011.2388922467999,1013.2406130471609,1013.2239266219676,None,None,None,None,,,,AU06EL20,1,0xC010,G:\Experimente\CoScience\Tasks\Logfiles\,2022_Mar_01_1002,Gambling,2020.1.3,59.96553961966104,
10,3,x,#ed1c24,19,13,210,,,,,0,62,62,215,,,3.5769903140617307,,,,,,,,,,,1014.241477093723,1017.8278808747582,1017.7945290275293,1018.2949490906794,1018.2949490906794,None,2,1.1083118245442165,1018.2949490906794,None,1017.7945290275293,1018.2949490906794,1018.2949490906794,None,1140,1021.4309786654594,None,1019.445946623975,1021.447665965783,1021.4309786654594,None,None,None,None,,,,AU06EL20,1,0xC010,G:\Experimente\CoScience\Tasks\Logfiles\,2022_Mar_01_1002,Gambling,2020.1.3,59.96553961966104,
10,4,x,#ed1c24,19,14,110,,,,,0,63,63,58,,,2.92642734112619,,,,,,,,,,,1022.4652050608274,1025.4010512080313,1025.3676923597504,1025.868119132243,1025.868119132243,None,2,2.9150305595940154,1025.868119132243,None,1025.3676923597504,1025.868119132243,1025.868119132243,None,1130,1030.7890107396142,None,1028.8039842406306,1030.8056913305973,1030.7890107396142,None,None,None,None,,,,AU06EL20,1,0xC010,G:\Experimente\CoScience\Tasks\Logfiles\,2022_Mar_01_1002,Gambling,2020.1.3,59.96553961966104,
10,4,o,#3ced1d,19,14,111,,,,,0,64,64,34,,,3.5938892421287276,,,,,,,,,,,1031.8065524600534,1035.4096479170694,1035.3929673260882,1035.8934046001577,1035.8934046001577,None,2,1.0786381552679813,1035.8934046001577,None,1035.3929673260882,1035.8934046001577,1035.8934046001577,None,1140,1038.9961864683646,None,1037.011027532806,1039.0127433740872,1038.9961864683646,None,None,None,None,,,,AU06EL20,1,0xC010,G:\Experimente\CoScience\Tasks\Logfiles\,2022_Mar_01_1002,Gambling,2020.1.3,59.96553961966104,
50,5,x,#ed1c24,59,55,150,,,,,0,65,65,190,,,2.73054016438092,,,,,,,,,,,1040.0302772183422,1042.7659615245484,1042.7492818086976,1043.24971470711,1043.24971470711,None,4,1.2362510997481877,1043.24971470711,None,1042.7492818086976,1043.24971470711,1043.24971470711,None,1090,1046.5191872594842,None,1044.534157551685,1046.5358672670463,1046.5191872594842,None,None,None,None,,,,AU06EL20,1,0xC010,G:\Experimente\CoScience\Tasks\Logfiles\,2022_Mar_01_1002,Gambling,2020.1.3,59.96553961966104,
50,4,x,#ed1c24,59,54,150,,,,,0,66,66,92,,,3.7532988130455243,,,,,,,,,,,1047.5534104460367,1051.3066297633413,1051.2899506309113,1051.7903814873498,1051.7903814873498,None,2,1.0374462960935489,1051.7903814873498,None,1051.2899506309113,1051.7903814873498,1051.7903814873498,None,1040,1054.8430063569558,None,1052.8579652724457,1054.8596831557006,1054.8430063569558,None,None,None,None,,,,AU06EL20,1,0xC010,G:\Experimente\CoScience\Tasks\Logfiles\,2022_Mar_01_1002,Gambling,2020.1.3,59.96553961966104,
0,4,o,#3ced1d,9,4,101,,,,,0,67,67,0,,,2.7365621308016914,,,,,,,,,,,1055.8605472022628,1058.5962250908378,1058.5795622941987,1059.0799747728743,1059.0799747728743,None,2,1.7687972425192129,1059.0799747728743,None,1058.5795622941987,1059.0799747728743,1059.0799747728743,None,1040,1062.8665611063534,None,1060.8815278980273,1062.8832402387816,1062.8665611063534,None,None,None,None,,,,AU06EL20,1,0xC010,G:\Experimente\CoScience\Tasks\Logfiles\,2022_Mar_01_1002,Gambling,2020.1.3,59.96553961966104,
50,4,x,#ed1c24,59,54,150,,,,,0,68,68,91,,,4.218034721393181,,,,,,,,,,,1063.8674234026512,1068.0877135612718,1068.071048722657,1068.571462951597,1068.571462951597,None,2,2.0981439626430074,1068.571462951597,None,1068.071048722657,1068.571462951597,1068.571462951597,None,990,1072.691666063798,None,1070.7066255627087,1072.7083498635966,1072.691666063798,None,None,None,None,,,,AU06EL20,1,0xC010,G:\Experimente\CoScience\Tasks\Logfiles\,2022_Mar_01_1002,Gambling,2020.1.3,59.96553961966104,
50,5,x,#ed1c24,59,55,150,,,,,0,69,69,191,,,2.5712256331711174,,,,,,,,,,,1073.7258889586392,1076.3114502796925,1076.2780759707548,1076.7785141199565,1076.7785141199565,None,4,0.8680263682981604,1076.7785141199565,None,1076.2780759707548,1076.7785141199565,1076.7785141199565,None,940,1079.664319077634,None,1077.6792797433882,1079.6809993769057,1079.664319077634,None,None,None,None,,,,AU06EL20,1,0xC010,G:\Experimente\CoScience\Tasks\Logfiles\,2022_Mar_01_1002,Gambling,2020.1.3,59.96553961966104,
50,4,x,#ed1c24,59,54,150,,,,,0,70,70,94,,,3.461562470364258,,,,,,,,,,,1080.6818622566261,1084.151507151575,1084.1348251020408,1084.6352533330846,1084.6352533330846,None,4,0.671164064997356,1084.6352533330846,None,1084.1348251020408,1084.6352533330846,1084.6352533330846,None,890,1087.3208952829245,None,1085.3358565320978,1087.3375773324587,1087.3208952829245,None,None,None,None,,,,AU06EL20,1,0xC010,G:\Experimente\CoScience\Tasks\Logfiles\,2022_Mar_01_1002,Gambling,2020.1.3,59.96553961966104,
50,4,x,#ed1c24,59,54,150,,,,,0,71,71,93,,,4.322243809788299,,,,,,,,,,,1088.3384422541512,1092.6754953828058,1092.6421336174208,1093.1425732251737,1093.1425732251737,None,2,1.076733285570299,1093.1425732251737,None,1092.6421336174208,1093.1425732251737,1093.1425732251737,None,840,1096.2285481917443,None,1094.2435094409193,1096.2452048624637,1096.2285481917443,None,None,None,None,,,,AU06EL20,1,0xC010,G:\Experimente\CoScience\Tasks\Logfiles\,2022_Mar_01_1002,Gambling,2020.1.3,59.96553961966104,
10,4,x,#ed1c24,19,14,110,,,,,0,72,72,59,,,3.8095525606533345,,,,,,,,,,,1097.246086119947,1101.0660307182843,1101.032680037899,1101.5330998093377,1101.5330998093377,None,2,1.5820873404627491,1101.5330998093377,None,1101.032680037899,1101.5330998093377,1101.5330998093377,None,830,1105.119511466557,None,1103.1344788416518,1105.1361929326704,1105.119511466557,None,None,None,None,,,,AU06EL20,1,0xC010,G:\Experimente\CoScience\Tasks\Logfiles\,2022_Mar_01_1002,Gambling,2020.1.3,59.96553961966104,
0,5,o,#3ced1d,9,5,101,,,,,0,73,73,103,,,3.9503412174728396,,,,,,,,,,,1106.1370540621265,1110.0904483474005,1110.0737680481288,1110.5741991962786,1110.5575165633236,None,4,1.1195429712934128,1110.5575165633236,None,1110.0737680481288,1110.5741991962786,1110.5575165633236,None,830,1113.7102252705317,None,1111.7251941041795,1113.7269064449356,1113.7102252705317,None,None,None,None,,,,AU06EL20,1,0xC010,G:\Experimente\CoScience\Tasks\Logfiles\,2022_Mar_01_1002,Gambling,2020.1.3,59.96553961966104,
10,5,o,#3ced1d,19,15,111,,,,,0,74,74,149,,,4.347325011611449,,,,,,,,,,,1114.7110861082783,1119.0648239118618,1119.031462146475,1119.5318825013364,1119.5318825013364,None,4,1.1950974546507496,1119.5318825013364,None,1119.031462146475,1119.5318825013364,1119.5318825013364,None,840,1122.734644358201,None,1120.74960269027,1122.7513296165525,1122.734644358201,None,None,None,None,,,,AU06EL20,1,0xC010,G:\Experimente\CoScience\Tasks\Logfiles\,2022_Mar_01_1002,Gambling,2020.1.3,59.96553961966104,
0,5,o,#3ced1d,9,5,101,,,,,0,75,75,110,,,2.7906666154441977,,,,,,,,,,,1123.7688853390955,1126.571268672391,1126.5545915819348,1127.0550268140305,1127.0550268140305,None,4,2.9617844632630295,1127.0550268140305,None,1126.5545915819348,1127.0550268140305,1127.0550268140305,None,840,1132.0259561104012,None,1130.0409153176024,1132.0426334925687,1132.0259561104012,None,None,None,None,,,,AU06EL20,1,0xC010,G:\Experimente\CoScience\Tasks\Logfiles\,2022_Mar_01_1002,Gambling,2020.1.3,59.96553961966104,
10,4,x,#ed1c24,19,14,110,,,,,0,76,76,63,,,3.9382887367443775,,,,,,,,,,,1133.0268169481478,1136.9802112334219,1136.9468497597463,1137.4472794493431,1137.4472794493431,None,2,1.9184391970247816,1137.4472794493431,None,1136.9468497597463,1137.4472794493431,1137.4472794493431,None,830,1141.3839876011352,None,1139.3989590601777,1141.4006696506713,1141.3839876011352,None,None,None,None,,,,AU06EL20,1,0xC010,G:\Experimente\CoScience\Tasks\Logfiles\,2022_Mar_01_1002,Gambling,2020.1.3,59.96553961966104,
50,6,x,#ed1c24,59,56,250,,,,,0,77,77,225,,,3.7858780166356283,,,,,,,,,,,1142.4182157467676,1146.2047968294555,1146.1881153633421,1146.688545928071,1146.688545928071,None,4,1.4550512010318926,1146.688545928071,None,1146.1881153633421,1146.688545928071,1146.688545928071,None,780,1150.1582001577572,None,1148.1731546975898,1150.1748760813698,1150.1582001577572,None,None,None,None,,,,AU06EL20,1,0xC010,G:\Experimente\CoScience\Tasks\Logfiles\,2022_Mar_01_1002,Gambling,2020.1.3,59.96553961966104,
0,5,x,#ed1c24,9,5,100,,,,,0,78,78,128,,,3.530563387722733,,,,,,,,,,,1151.1757372108277,1154.7121018443104,1154.6954212533274,1155.1958521097677,1155.1958521097677,None,4,1.187647751377881,1155.1958521097677,None,1154.6954212533274,1155.1958521097677,1155.1958521097677,None,780,1158.3986008396587,None,1156.4135722987012,1158.4152831809042,1158.3986008396587,None,None,None,None,,,,AU06EL20,1,0xC010,G:\Experimente\CoScience\Tasks\Logfiles\,2022_Mar_01_1002,Gambling,2020.1.3,59.96553961966104,
50,2,o,#3ced1d,59,52,251,,,,,0,79,79,207,,,3.4890186956508673,,,,,,,,,,,1159.399465761353,1162.9024683377393,1162.8691083226167,1163.3695368453718,1163.3695368453718,None,2,1.4008656801397592,1163.3695368453718,None,1162.8691083226167,1163.3695368453718,1163.3695368453718,None,830,1166.789146676716,None,1164.8041088010232,1166.8058231837513,1166.789146676716,None,None,None,None,,,,AU06EL20,1,0xC010,G:\Experimente\CoScience\Tasks\Logfiles\,2022_Mar_01_1002,Gambling,2020.1.3,59.96553961966104,
0,4,o,#3ced1d,9,4,101,,,,,0,80,80,14,,,2.760450834839502,,,,,,,,,,,1167.823364612479,1170.5924060167035,1170.5757263008527,1171.0761565738721,1171.0761565738721,None,4,2.6481183504583896,1171.0761565738721,None,1170.5757263008527,1171.0761565738721,1171.0761565738721,None,830,1175.730151141055,None,1173.7451155990439,1175.7468331905893,1175.730151141055,None,None,None,None,,,,AU06EL20,1,0xC010,G:\Experimente\CoScience\Tasks\Logfiles\,2022_Mar_01_1002,Gambling,2020.1.3,59.96553961966104,
50,5,o,#3ced1d,59,55,151,,,,,0,81,81,173,,,3.26106692840161,,,,,,,,,,,1176.731014312485,1180.000488031701,1179.98381444177,1180.4842391722887,1180.4842391722887,None,4,2.4449195112338202,1180.4842391722887,None,1179.98381444177,1180.4842391722887,1180.4842391722887,None,880,1184.9380681062376,None,1182.9530214792285,1184.9547405293251,1184.9380681062376,None,None,None,None,,,,AU06EL20,1,0xC010,G:\Experimente\CoScience\Tasks\Logfiles\,2022_Mar_01_1002,Gambling,2020.1.3,59.96553961966104,
50,5,x,#ed1c24,59,55,150,,,,,0,82,82,187,,,2.833098597697459,,,,,,,,,,,1185.9556092432558,1188.7913727196992,1188.774687753059,1189.2751180260766,1189.2751180260766,None,4,0.6949568501804606,1189.2751180260766,None,1188.774687753059,1189.2751180260766,1189.2751180260766,None,830,1191.9941202827486,None,1190.0090920335024,1192.0108008737316,1191.9941202827486,None,None,None,None,,,,AU06EL20,1,0xC010,G:\Experimente\CoScience\Tasks\Logfiles\,2022_Mar_01_1002,Gambling,2020.1.3,59.96553961966104,
50,5,o,#3ced1d,59,55,151,,,,,0,83,83,178,,,3.079340538292609,,,,,,,,,,,1193.0283423024594,1196.1143242700819,1196.0976439708102,1196.598072201854,1196.598072201854,None,4,0.400939482900867,1196.598072201854,None,1196.0976439708102,1196.598072201854,1196.598072201854,None,880,1199.0168179866378,None,1197.0317865285742,1199.0334962439356,1199.0168179866378,None,None,None,None,,,,AU06EL20,1,0xC010,G:\Experimente\CoScience\Tasks\Logfiles\,2022_Mar_01_1002,Gambling,2020.1.3,59.96553961966104,
50,6,o,#3ced1d,59,56,251,,,,,0,84,84,224,,,4.018537214974713,,,,,,,,,,,1200.0510268793732,1204.071156655551,1204.0544751894358,1204.554905170744,1204.554905170744,None,4,2.3249448083697644,1204.554905170744,None,1204.0544751894358,1204.554905170744,1204.554905170744,None,930,1208.8919644253183,None,1206.906925382782,1208.9086441411691,1208.8919644253183,None,None,None,None,,,,AU06EL20,1,0xC010,G:\Experimente\CoScience\Tasks\Logfiles\,2022_Mar_01_1002,Gambling,2020.1.3,59.96553961966104,
10,4,o,#3ced1d,19,14,111,,,,,0,85,85,50,,,4.120579255552041,,,,,,,,,,,1209.9261890704238,1214.0463898489397,1214.0297089662472,1214.5301374890023,1214.5301374890023,None,4,2.1905832343472866,1214.5301374890023,None,1214.0297089662472,1214.5301374890023,1214.5301374890023,None,940,1218.7337490986138,None,1216.7487103477888,1218.7504293978855,1218.7337490986138,None,None,None,None,,,,AU06EL20,1,0xC010,G:\Experimente\CoScience\Tasks\Logfiles\,2022_Mar_01_1002,Gambling,2020.1.3,59.96553961966104,
0,5,x,#ed1c24,9,5,100,,,,,0,86,86,127,,,3.9748225013733514,,,,,,,,,,,1219.7512946112893,1223.738048328265,1223.7046833540644,1224.2051133353707,1224.2051133353707,None,4,3.5114738499032683,1224.2051133353707,None,1223.7046833540644,1224.2051133353707,1224.2051133353707,None,940,1229.7432031448716,None,1227.7581676028622,1229.7598837358546,1229.7432031448716,None,None,None,None,,,,AU06EL20,1,0xC010,G:\Experimente\CoScience\Tasks\Logfiles\,2022_Mar_01_1002,Gambling,2020.1.3,59.96553961966104,
0,5,o,#3ced1d,9,5,101,,,,,0,87,87,113,,,4.319782307107069,,,,,,,,,,,1230.7440683582754,1235.0644379788428,1235.047756221018,1235.5481891194304,1235.5481891194304,None,4,1.1002819090463163,1235.5481891194304,None,1235.047756221018,1235.5481891194304,1235.5481891194304,None,940,1238.6675331441493,None,1236.6824976021398,1238.6842137351305,1238.6675331441493,None,None,None,None,,,,AU06EL20,1,0xC010,G:\Experimente\CoScience\Tasks\Logfiles\,2022_Mar_01_1002,Gambling,2020.1.3,59.96553961966104,
50,4,o,#3ced1d,59,54,151,,,,,0,88,88,76,,,4.15763465999898,,,,,,,,,,,1239.6683931067637,1243.838640617305,1243.805279727052,1244.3057105834905,1244.3057105834905,None,2,2.0286273036381317,1244.3057105834905,None,1243.805279727052,1244.3057105834905,1244.3057105834905,None,990,1248.3425081153855,None,1246.3574714065344,1248.3591913317632,1248.3425081153855,None,None,None,None,,,,AU06EL20,1,0xC010,G:\Experimente\CoScience\Tasks\Logfiles\,2022_Mar_01_1002,Gambling,2020.1.3,59.96553961966104,
50,5,o,#3ced1d,59,55,151,,,,,0,89,89,172,,,2.8404332963656698,,,,,,,,,,,1249.3767333439118,1252.2291823704163,1252.2125245328552,1252.7129288436354,1252.7129288436354,None,4,0.8733197474011831,1252.7129288436354,None,1252.2125245328552,1252.7129288436354,1252.7129288436354,None,1040,1255.598738176972,None,1253.6137032183833,1255.6154225601913,1255.598738176972,None,None,None,None,,,,AU06EL20,1,0xC010,G:\Experimente\CoScience\Tasks\Logfiles\,2022_Mar_01_1002,Gambling,2020.1.3,59.96553961966104,
50,2,x,#ed1c24,59,52,250,,,,,0,90,90,209,,,3.7960035348898056,,,,,,,,,,,1256.6162901072785,1260.4195479887148,1260.402871773389,1260.903293878513,1260.903293878513,None,2,1.2478317157019774,1260.903293878513,None,1260.402871773389,1260.903293878513,1260.903293878513,None,990,1264.1727687645707,None,1262.1877416821662,1264.1894499389746,1264.1727687645707,None,None,None,None,,,,AU06EL20,1,0xC010,G:\Experimente\CoScience\Tasks\Logfiles\,2022_Mar_01_1002,Gambling,2020.1.3,59.96553961966104,
10,4,o,#3ced1d,19,14,111,,,,,0,91,91,47,,,4.450110239006438,,,,,,,,,,,1265.2069916594119,1269.6608147591523,1269.6274529937673,1270.1278850170474,1270.1278850170474,None,2,4.284071788792062,1270.1278850170474,None,1269.6274529937673,1270.1278850170474,1270.1278850170474,None,1000,1276.4332983475178,None,1274.4482668894561,1276.4499783550782,1276.4332983475178,None,None,None,None,,,,AU06EL20,1,0xC010,G:\Experimente\CoScience\Tasks\Logfiles\,2022_Mar_01_1002,Gambling,2020.1.3,59.96553961966104,
0,5,x,#ed1c24,9,5,100,,,,,0,92,92,130,,,2.9069109959267374,,,,,,,,,,,1277.4675224092025,1280.3866865068703,1280.3533299922747,1280.8537532642404,1280.8537532642404,None,4,1.0991340281489101,1280.8537532642404,None,1280.3533299922747,1280.8537532642404,1280.8537532642404,None,1000,1283.9731180004055,None,1281.9880961687904,1283.9897857561245,1283.9731180004055,None,None,None,None,,,,AU06EL20,1,0xC010,G:\Experimente\CoScience\Tasks\Logfiles\,2022_Mar_01_1002,Gambling,2020.1.3,59.96553961966104,
10,4,o,#3ced1d,19,14,111,,,,,0,93,93,49,,,3.320844177723937,,,,,,,,,,,1284.973966586309,1288.3101644197177,1288.2768014874891,1288.7772358444545,1288.7772358444545,None,2,3.0465211186747183,1288.7772358444545,None,1288.2768014874891,1288.7772358444545,1288.7772358444545,None,1010,1293.848252478956,None,1291.8632172286561,1293.8649345284903,1293.848252478956,None,None,None,None,,,,AU06EL20,1,0xC010,G:\Experimente\CoScience\Tasks\Logfiles\,2022_Mar_01_1002,Gambling,2020.1.3,59.96553961966104,
50,4,o,#3ced1d,59,54,151,,,,,0,94,94,78,,,3.8743655852722894,,,,,,,,,,,1294.882480916298,1298.7691470034333,1298.7357855297578,1299.2362178447493,1299.2362178447493,None,4,0.6334103060162306,1299.2362178447493,None,1298.7357855297578,1299.2362178447493,1299.2362178447493,None,1060,1301.871808103484,None,1299.8867719780537,1301.8884898613087,1301.871808103484,None,None,None,None,,,,AU06EL20,1,0xC010,G:\Experimente\CoScience\Tasks\Logfiles\,2022_Mar_01_1002,Gambling,2020.1.3,59.96553961966104,
50,4,x,#ed1c24,59,54,150,,,,,0,95,95,89,,,3.1879193255106153,,,,,,,,,,,1302.9060945912206,1306.1087817701919,1306.075419421386,1306.5758482358506,1306.5758482358506,None,4,0.5637081191198376,1306.5758482358506,None,1306.075419421386,1306.5758482358506,1306.5758482358506,None,1010,1309.1614197667714,None,1307.1763696392354,1309.1780860639374,1309.1614197667714,None,None,None,None,,,,AU06EL20,1,0xC010,G:\Experimente\CoScience\Tasks\Logfiles\,2022_Mar_01_1002,Gambling,2020.1.3,59.96553961966104,
50,5,o,#3ced1d,59,55,151,,,,,0,96,96,180,,,3.1360382409446403,,,,,,,,,,,1310.1956187413507,1313.3316559006034,1313.3149697671215,1313.8153982898766,1313.8153982898766,None,4,1.03605804572544,1313.8153982898766,None,1313.3149697671215,1313.8153982898766,1313.8153982898766,None,1060,1316.8847022919108,None,1314.8996717089794,1316.9013828828938,1316.8847022919108,None,None,None,None,,,,AU06EL20,1,0xC010,G:\Experimente\CoScience\Tasks\Logfiles\,2022_Mar_01_1002,Gambling,2020.1.3,59.96553961966104,
10,5,o,#3ced1d,19,15,111,,,,,0,97,97,142,,,3.0900064295422784,,,,,,,,,,,1317.9189178939905,1321.0215883287783,1320.9882253965516,1321.4886594618056,1321.4886594618056,None,2,0.7407034774223575,1321.4886594618056,None,1320.9882253965516,1321.4886594618056,1321.4886594618056,None,1070,1324.2410220253114,None,1322.2559920258009,1324.2577052416873,1324.2410220253114,None,None,None,None,,,,AU06EL20,1,0xC010,G:\Experimente\CoScience\Tasks\Logfiles\,2022_Mar_01_1002,Gambling,2020.1.3,59.96553961966104,
50,5,x,#ed1c24,59,55,150,,,,,0,98,98,202,,,3.5899382400796465,,,,,,,,,,,1325.2585660794339,1328.8616527851354,1328.8449716107316,1329.3454103433542,1329.3454103433542,None,4,1.4158415148413042,1329.3454103433542,None,1328.8449716107316,1329.3454103433542,1329.3454103433542,None,1020,1332.781685596734,None,1330.796655305514,1332.7983691048212,1332.781685596734,None,None,None,None,,,,AU06EL20,1,0xC010,G:\Experimente\CoScience\Tasks\Logfiles\,2022_Mar_01_1002,Gambling,2020.1.3,59.96553961966104,
0,5,o,#3ced1d,9,5,101,,,,,0,99,99,111,,,3.9311990149297467,,,,,,,,,,,1333.8159076164447,1337.752620143894,1337.735943053438,1338.2363669088245,1338.2363669088245,None,4,2.9737238831585273,1338.2363669088245,None,1337.735943053438,1338.2363669088245,1338.2363669088245,None,1020,1343.2406696390026,None,1341.255625345677,1343.2573467294587,1343.2406696390026,None,None,None,None,,,,AU06EL20,1,0xC010,G:\Experimente\CoScience\Tasks\Logfiles\,2022_Mar_01_1002,Gambling,2020.1.3,59.96553961966104,
50,4,x,#ed1c24,59,54,150,,,,,0,100,100,101,,,3.8765043023468713,,,,,,,,,,,1344.2415246425371,1348.1281962721732,1348.1115150977694,1348.6119654988124,1348.6119654988124,None,2,3.4700346202043875,1348.6119654988124,None,1348.1115150977694,1348.6119654988124,1348.6119654988124,None,970,1354.0999960327372,None,1352.1149537813853,1354.1166719563498,1354.0999960327372,None,None,None,None,,,,AU06EL20,1,0xC010,G:\Experimente\CoScience\Tasks\Logfiles\,2022_Mar_01_1002,Gambling,2020.1.3,59.96553961966104,
10,4,x,#ed1c24,19,14,110,,,,,0,101,101,65,,,2.675222171507194,,,,,,,,,,,1355.1342078425787,1357.8198538763663,1357.786493277823,1358.2869363861028,1358.2869363861028,None,4,3.212918633767913,1358.2869363861028,None,1357.786493277823,1358.2869363861028,1358.2869363861028,None,960,1363.5080698798374,None,1361.5230331709863,1363.5247513459526,1363.5080698798374,None,None,None,None,,,,AU06EL20,1,0xC010,G:\Experimente\CoScience\Tasks\Logfiles\,2022_Mar_01_1002,Gambling,2020.1.3,59.96553961966104,
0,5,x,#ed1c24,9,5,100,,,,,0,102,102,122,,,4.150275831679067,,,,,,,,,,,1364.5256127671182,1368.679180270101,1368.6625034713543,1369.1629279101617,1369.1629279101617,None,4,7.38272945366225,1369.1629279101617,None,1368.6625034713543,1369.1629279101617,1369.1629279101617,None,960,1378.554322916545,None,1376.5692885413773,1378.5710035075263,1378.554322916545,None,None,None,None,,,,AU06EL20,1,0xC010,G:\Experimente\CoScience\Tasks\Logfiles\,2022_Mar_01_1002,Gambling,2020.1.3,59.96553961966104,
0,4,o,#3ced1d,9,4,101,,,,,0,103,103,13,,,2.992512266731726,,,,,,,,,,,1379.5551834625803,1382.5577618918705,1382.5243998347742,1383.0248292326614,1383.0248292326614,None,4,0.9757387277222733,1383.0248292326614,None,1382.5243998347742,1383.0248292326614,1383.0248292326614,None,960,1386.027416413268,None,1384.0423654105998,1386.044087669512,1386.027416413268,None,None,None,None,,,,AU06EL20,1,0xC010,G:\Experimente\CoScience\Tasks\Logfiles\,2022_Mar_01_1002,Gambling,2020.1.3,59.96553961966104,
10,4,o,#3ced1d,19,14,111,,,,,0,104,104,46,,,3.114412680273821,,,,,,,,,,,1387.0282708333816,1390.1476241928358,1390.130931933434,1390.63136103961,1390.63136103961,None,2,1.8240953473341506,1390.63136103961,None,1390.130931933434,1390.63136103961,1390.63136103961,None,970,1394.4679888543233,None,1392.4829524371835,1394.484670612148,1394.4679888543233,None,None,None,None,,,,AU06EL20,1,0xC010,G:\Experimente\CoScience\Tasks\Logfiles\,2022_Mar_01_1002,Gambling,2020.1.3,59.96553961966104,
10,4,x,#ed1c24,19,14,110,,,,,0,105,105,62,,,3.6641436603075173,,,,,,,,,,,1395.50221379114,1399.1720485312962,1399.1553501459712,1399.6557821692531,1399.6557821692531,None,2,1.069572375714415,1399.6557821692531,None,1399.1553501459712,1399.6557821692531,1399.6557821692531,None,960,1402.7584461864099,None,1400.7734071438736,1402.7751253188399,1402.7584461864099,None,None,None,None,,,,AU06EL20,1,0xC010,G:\Experimente\CoScience\Tasks\Logfiles\,2022_Mar_01_1002,Gambling,2020.1.3,59.96553961966104,
0,4,x,#ed1c24,9,4,100,,,,,0,106,106,28,,,3.616516843311471,,,,,,,,,,,1403.7926696646718,1407.4124355028034,1407.395759579189,1407.896190143918,1407.896190143918,None,4,2.2470668507157825,1407.896190143918,None,1407.395759579189,1407.896190143918,1407.896190143918,None,960,1412.1498444016088,None,1410.1648065259142,1412.1665229506161,1412.1498444016088,None,None,None,None,,,,AU06EL20,1,0xC010,G:\Experimente\CoScience\Tasks\Logfiles\,2022_Mar_01_1002,Gambling,2020.1.3,59.96553961966104,
0,5,x,#ed1c24,9,5,100,,,,,0,107,107,124,,,3.8555087430204926,,,,,,,,,,,1413.1507029056702,1417.0206895686642,1416.9873266364375,1417.487756034323,1417.487756034323,None,4,1.0333635156475793,1417.487756034323,None,1416.9873266364375,1417.487756034323,1417.487756034323,None,960,1420.523696812421,None,1418.538658061594,1420.5403771116926,1420.523696812421,None,None,None,None,,,,AU06EL20,1,0xC010,G:\Experimente\CoScience\Tasks\Logfiles\,2022_Mar_01_1002,Gambling,2020.1.3,59.96553961966104,
0,4,o,#3ced1d,9,4,101,,,,,0,108,108,9,,,3.8677331708239073,,,,,,,,,,,1421.5245617341134,1425.3945448965824,1425.3778698481,1425.878298954276,1425.878298954276,None,4,0.4917270896385162,1425.878298954276,None,1425.3778698481,1425.878298954276,1425.878298954276,None,960,1428.3971247844256,None,1426.4120965351794,1428.413807709092,1428.3971247844256,None,None,None,None,,,,AU06EL20,1,0xC010,G:\Experimente\CoScience\Tasks\Logfiles\,2022_Mar_01_1002,Gambling,2020.1.3,59.96553961966104,
10,4,x,#ed1c24,19,14,110,,,,,0,109,109,52,,,3.9608698609977697,,,,,,,,,,,1429.397986205593,1433.368058748165,1433.351381074288,1433.8518270996738,1433.8351307563225,None,4,0.6508090882998658,1433.8351307563225,None,1433.351381074288,1433.8518270996738,1433.8351307563225,None,950,1436.5040891980752,None,1434.519049572118,1436.5207665802427,1436.5040891980752,None,None,None,None,,,,AU06EL20,1,0xC010,G:\Experimente\CoScience\Tasks\Logfiles\,2022_Mar_01_1002,Gambling,2020.1.3,59.96553961966104,
0,5,x,#ed1c24,9,5,100,,,,,0,110,110,121,,,2.5581766337319847,,,,,,,,,,,1437.5383094675235,1440.1071802794359,1440.0738173472073,1440.5742467450946,1440.5742467450946,None,2,1.347587087258944,1440.5742467450946,None,1440.0738173472073,1440.5742467450946,1440.5742467450946,None,950,1443.9271283783,None,1441.9420890440524,1443.9438063438865,1443.9271283783,None,None,None,None,,,,AU06EL20,1,0xC010,G:\Experimente\CoScience\Tasks\Logfiles\,2022_Mar_01_1002,Gambling,2020.1.3,59.96553961966104,
50,4,x,#ed1c24,59,54,150,,,,,0,111,111,85,,,4.456070922698128,,,,,,,,,,,1444.92799154973,1449.3984902813718,1449.3651311413814,1449.8655587890044,1449.8655587890044,None,2,2.9021582494569884,1449.8655587890044,None,1449.3651311413814,1449.8655587890044,1449.8655587890044,None,900,1454.7697692219735,None,1452.7847421395672,1454.7864518549286,1454.7697692219735,None,None,None,None,,,,AU06EL20,1,0xC010,G:\Experimente\CoScience\Tasks\Logfiles\,2022_Mar_01_1002,Gambling,2020.1.3,59.96553961966104,
0,4,x,#ed1c24,9,4,100,,,,,0,112,112,33,,,4.273418090704723,,,,,,,,,,,1455.787311817543,1460.074326382066,1460.0576484164776,1460.5580783977857,1460.5580783977857,None,2,2.413462907255962,1460.5580783977857,None,1460.0576484164776,1460.5580783977857,1460.5580783977857,None,900,1464.978537398456,None,1462.9934995227613,1464.9952211982527,1464.978537398456,None,None,None,None,,,,AU06EL20,1,0xC010,G:\Experimente\CoScience\Tasks\Logfiles\,2022_Mar_01_1002,Gambling,2020.1.3,59.96553961966104,
50,4,o,#3ced1d,59,54,151,,,,,0,113,113,80,,,2.8458471566069745,,,,,,,,,,,1465.979402028437,1468.8318580559935,1468.798455451135,1469.2989046853381,1469.2989046853381,None,2,2.1395286424722144,1469.2989046853381,None,1468.798455451135,1469.2989046853381,1469.2989046853381,None,950,1473.4691612389051,None,1471.484132989659,1473.4858593325189,1473.4691612389051,None,None,None,None,,,,AU06EL20,1,0xC010,G:\Experimente\CoScience\Tasks\Logfiles\,2022_Mar_01_1002,Gambling,2020.1.3,59.96553961966104,
0,4,x,#ed1c24,9,4,100,,,,,0,114,114,25,,,2.7801650895784773,,,,,,,,,,,1474.5034051369057,1477.289116338823,1477.2557481558051,1477.7561784288227,1477.7561784288227,None,2,1.8611501679079083,1477.7561784288227,None,1477.2557481558051,1477.7561784288227,1477.7561784288227,None,950,1481.6428488916172,None,1479.6578159750006,1481.65953064944,1481.6428488916172,None,None,None,None,,,,AU06EL20,1,0xC010,G:\Experimente\CoScience\Tasks\Logfiles\,2022_Mar_01_1002,Gambling,2020.1.3,59.96553961966104,
10,4,x,#ed1c24,19,14,110,,,,,0,115,115,64,,,2.7054499026888315,,,,,,,,,,,1482.643707687388,1485.3627090689297,1485.3293449698594,1485.829775242877,1485.829775242877,None,2,1.0014973501019995,1485.829775242877,None,1485.3293449698594,1485.829775242877,1485.829775242877,None,940,1488.8490345548616,None,1486.863996679167,1488.8657166043959,1488.8490345548616,None,None,None,None,,,,AU06EL20,1,0xC010,G:\Experimente\CoScience\Tasks\Logfiles\,2022_Mar_01_1002,Gambling,2020.1.3,59.96553961966104,
10,5,x,#ed1c24,19,15,110,,,,,0,116,116,161,,,3.942175255044325,,,,,,,,,,,1489.8832594916767,1493.8366546520829,1493.8199702688635,1494.3204084180652,1494.3204084180652,None,4,1.2167155379029282,1494.3204084180652,None,1493.8199702688635,1494.3204084180652,1494.3204084180652,None,930,1497.5398307378873,None,1495.5547943207457,1497.5565142459745,1497.5398307378873,None,None,None,None,,,,AU06EL20,1,0xC010,G:\Experimente\CoScience\Tasks\Logfiles\,2022_Mar_01_1002,Gambling,2020.1.3,59.96553961966104,
50,4,x,#ed1c24,59,54,150,,,,,0,117,117,90,,,2.7689345724640138,,,,,,,,,,,1498.5741204344376,1501.343096495506,1501.3264170713664,1501.8268453024102,1501.8268453024102,None,2,1.6011722095554433,1501.8268453024102,None,1501.3264170713664,1501.8268453024102,1501.8268453024102,None,880,1505.4299404677167,None,1503.444904633996,1505.446621058698,1505.4299404677167,None,None,None,None,,,,AU06EL20,1,0xC010,G:\Experimente\CoScience\Tasks\Logfiles\,2022_Mar_01_1002,Gambling,2020.1.3,59.96553961966104,
0,4,o,#3ced1d,9,4,101,,,,,0,118,118,7,,,3.044811145934031,,,,,,,,,,,1506.4474874389452,1509.500102098682,1509.4667511265852,1509.9671685643407,1509.9671685643407,None,4,1.2297640411943576,1509.9671685643407,None,1509.4667511265852,1509.9671685643407,1509.9671685643407,None,880,1513.219932229811,None,1511.2349284842476,1513.2366443255305,1513.219932229811,None,None,None,None,,,,AU06EL20,1,0xC010,G:\Experimente\CoScience\Tasks\Logfiles\,2022_Mar_01_1002,Gambling,2020.1.3,59.96553961966104,
10,4,o,#3ced1d,19,14,111,,,,,0,119,119,40,,,3.2652719656383398,,,,,,,,,,,1514.220824572294,1517.4902971246665,1517.4736153668437,1517.9740450564404,1517.9740450564404,None,2,3.341748501190523,1517.9740450564404,None,1517.4736153668437,1517.9740450564404,1517.9740450564404,None,890,1523.3286428226365,None,1521.3436049469437,1523.3453242887517,1523.3286428226365,None,1524.3628628003735,None,space,81.69139302275107,,,AU06EL20,1,0xC010,G:\Experimente\CoScience\Tasks\Logfiles\,2022_Mar_01_1002,Gambling,2020.1.3,59.96553961966104,
0,5,o,#3ced1d,9,5,101,,,,,0,120,120,117,,,4.111847257371,,,,,,,,,,,1607.0838988627947,1611.2041040169697,1611.1874231342772,1611.6878534072948,1611.6711731080231,None,4,0.9344587719697302,1611.6711731080231,None,1611.1874231342772,1611.6878534072948,1611.6711731080231,None,890,1614.623706263841,None,1612.6386710135412,1614.6403891885075,1614.623706263841,None,None,None,None,,,,AU06EL20,1,0xC010,G:\Experimente\CoScience\Tasks\Logfiles\,2022_Mar_01_1002,Gambling,2020.1.3,59.96553961966104,
50,5,o,#3ced1d,59,55,151,,,,,0,121,121,181,,,2.6933517220785137,,,,,,,,,,,1615.6245688518502,1618.3268858501724,1618.3102067177424,1618.8106361156297,1618.7939555246467,None,4,1.0665674656411284,1618.7939555246467,None,1618.3102067177424,1618.8106361156297,1618.7939555246467,None,940,1621.863255442735,None,1619.878223109541,1621.8799369088483,1621.863255442735,None,None,None,None,,,,AU06EL20,1,0xC010,G:\Experimente\CoScience\Tasks\Logfiles\,2022_Mar_01_1002,Gambling,2020.1.3,59.96553961966104,
50,5,x,#ed1c24,59,55,150,,,,,0,122,122,201,,,4.044163291572725,,,,,,,,,,,1622.8807980383044,1626.9342782031563,1626.9175970287524,1627.4180240929545,1627.4180240929545,None,4,0.8713845398087869,1627.4180240929545,None,1626.9175970287524,1627.4180240929545,1627.4180240929545,None,890,1630.3205186846426,None,1628.335516397632,1630.3371975253613,1630.3205186846426,None,None,None,None,,,,AU06EL20,1,0xC010,G:\Experimente\CoScience\Tasks\Logfiles\,2022_Mar_01_1002,Gambling,2020.1.3,59.96553961966104,
50,8,o,#3ced1d,59,58,251,,,,,0,123,123,239,,,3.262250105576494,,,,,,,,,,,1631.354741871195,1634.6242187992266,1634.5908561587094,1635.0912843897531,1635.0912843897531,None,4,0.8850400926949078,1635.0912843897531,None,1634.5908561587094,1635.0912843897531,1635.0912843897531,None,940,1638.0104586972902,None,1636.0254266558077,1638.0271401634036,1638.0104586972902,None,None,None,None,,,,AU06EL20,1,0xC010,G:\Experimente\CoScience\Tasks\Logfiles\,2022_Mar_01_1002,Gambling,2020.1.3,59.96553961966104,
10,4,o,#3ced1d,19,14,111,,,,,0,124,124,45,,,3.896173745289425,,,,,,,,,,,1639.0446716739752,1642.9480288536706,1642.9313476792668,1643.4317776605749,1643.4317776605749,None,2,1.729413988570741,1643.4317776605749,None,1642.9313476792668,1643.4317776605749,1643.4317776605749,None,950,1647.1683251382128,None,1645.1832820117288,1647.1849803503792,1647.1683251382128,None,None,None,None,,,,AU06EL20,1,0xC010,G:\Experimente\CoScience\Tasks\Logfiles\,2022_Mar_01_1002,Gambling,2020.1.3,59.96553961966104,
10,5,x,#ed1c24,19,15,110,,,,,0,125,125,166,,,3.7503413240942365,,,,,,,,,,,1648.185867442071,1651.9390823837184,1651.92240441813,1652.4228308989113,1652.4228308989113,None,4,3.2082358047828166,1652.4228308989113,None,1651.92240441813,1652.4228308989113,1652.4228308989113,None,940,1657.6606639448128,None,1655.6756348204344,1657.6773474529,1657.6606639448128,None,None,None,None,,,,AU06EL20,1,0xC010,G:\Experimente\CoScience\Tasks\Logfiles\,2022_Mar_01_1002,Gambling,2020.1.3,59.96553961966104,
50,2,o,#3ced1d,59,52,251,,,,,0,126,126,208,,,2.596536643112403,,,,,,,,,,,1658.6948795468907,1661.2971194169513,1661.263756776436,1661.7641885080047,1661.7641885080047,None,2,2.882752207082376,1661.7641885080047,None,1661.263756776436,1661.7641885080047,1661.7641885080047,None,990,1666.6684024415008,None,1664.6833718585694,1666.6850804070873,1666.6684024415008,None,None,None,None,,,,AU06EL20,1,0xC010,G:\Experimente\CoScience\Tasks\Logfiles\,2022_Mar_01_1002,Gambling,2020.1.3,59.96553961966104,
10,5,o,#3ced1d,19,15,111,,,,,0,127,127,140,,,3.4702650272276996,,,,,,,,,,,1667.7026160016048,1671.1722728566856,1671.155575638204,1671.6560315817478,1671.6560315817478,None,4,7.075727759407528,1671.6560315817478,None,1671.155575638204,1671.6560315817478,1671.6560315817478,None,1000,1680.747154363873,None,1678.762116196467,1680.7638282455118,1680.747154363873,None,None,None,None,,,,AU06EL20,1,0xC010,G:\Experimente\CoScience\Tasks\Logfiles\,2022_Mar_01_1002,Gambling,2020.1.3,59.96553961966104,
0,8,x,#ed1c24,9,8,200,,,,,0,128,128,234,,,4.269694097732238,,,,,,,,,,,1681.7646978345747,1686.0350323915354,1686.0183477166065,1686.518786449229,1686.518786449229,None,4,0.46486901030766603,1686.518786449229,None,1686.0183477166065,1686.518786449229,1686.518786449229,None,1000,1689.0042481803102,None,1687.0192161388259,1689.0209208951073,1689.0042481803102,None,None,None,None,,,,AU06EL20,1,0xC010,G:\Experimente\CoScience\Tasks\Logfiles\,2022_Mar_01_1002,Gambling,2020.1.3,59.96553961966104,
0,5,o,#3ced1d,9,5,101,,,,,0,129,129,102,,,2.5337594149241744,,,,,,,,,,,1690.005107559502,1692.5406160226084,1692.523935139916,1693.024363662671,1693.024363662671,None,4,0.9021865453778446,1693.024363662671,None,1692.523935139916,1693.024363662671,1693.024363662671,None,1000,1695.9602206031632,None,1693.9751935207587,1695.976903819541,1695.9602206031632,None,None,None,None,,,,AU06EL20,1,0xC010,G:\Experimente\CoScience\Tasks\Logfiles\,2022_Mar_01_1002,Gambling,2020.1.3,59.96553961966104,
50,5,o,#3ced1d,59,55,151,,,,,0,130,130,170,,,3.048236936796653,,,,,,,,,,,1696.961080857489,1700.0137001845942,1699.9970239692702,1700.4974510334723,1700.4974510334723,None,4,0.8140173322717601,1700.4974510334723,None,1699.9970239692702,1700.4974510334723,1700.4974510334723,None,1050,1703.3165359609065,None,1701.3315077116586,1703.3332177187294,1703.3165359609065,None,None,None,None,,,,AU06EL20,1,0xC010,G:\Experimente\CoScience\Tasks\Logfiles\,2022_Mar_01_1002,Gambling,2020.1.3,59.96553961966104,
50,2,x,#ed1c24,59,52,250,,,,,0,131,131,210,,,2.673759145094266,,,,,,,,,,,1704.3507608977216,1707.03639672164,1707.0030355396757,1707.5034663961142,1707.5034663961142,None,2,1.2079052967637836,1707.5034663961142,None,1707.0030355396757,1707.5034663961142,1707.5034663961142,None,1000,1710.7395617224447,None,1708.7545474753042,1710.7562274361917,1710.7395617224447,None,None,None,None,,,,AU06EL20,1,0xC010,G:\Experimente\CoScience\Tasks\Logfiles\,2022_Mar_01_1002,Gambling,2020.1.3,59.96553961966104,
10,4,o,#3ced1d,19,14,111,,,,,0,132,132,38,,,3.4372578634479645,,,,,,,,,,,1711.7738021199184,1715.2100832075084,1715.1934020331046,1715.6938355149396,1715.6938355149396,None,2,1.1124310688028345,1715.6938355149396,None,1715.1934020331046,1715.6938355149396,1715.6938355149396,None,1010,1718.8298580886658,None,1716.8448692203383,1718.8465392630696,1718.8298580886658,None,None,None,None,,,,AU06EL20,1,0xC010,G:\Experimente\CoScience\Tasks\Logfiles\,2022_Mar_01_1002,Gambling,2020.1.3,59.96553961966104,
10,4,o,#3ced1d,19,14,111,,,,,0,133,133,44,,,3.6112782026444963,,,,,,,,,,,1719.8640742741663,1723.4838552812435,1723.4671805244725,1723.9676023378852,1723.9676023378852,None,2,2.4465434637022554,1723.9676023378852,None,1723.4671805244725,1723.9676023378852,1723.9676023378852,None,1020,1728.4214353557818,None,1726.4363913541674,1728.4381083622902,1728.4214353557818,None,None,None,None,,,,AU06EL20,1,0xC010,G:\Experimente\CoScience\Tasks\Logfiles\,2022_Mar_01_1002,Gambling,2020.1.3,59.96553961966104,
10,5,o,#3ced1d,19,15,111,,,,,0,134,134,137,,,3.3074550995803063,,,,,,,,,,,1729.438991370036,1732.7584855673304,1732.741811102269,1733.24224370897,1733.24224370897,None,4,0.9038014548186766,1733.24224370897,None,1732.741811102269,1733.24224370897,1733.24224370897,None,1030,1736.1614072232187,None,1734.1763789739725,1736.1780959820953,1736.1614072232187,None,None,None,None,,,,AU06EL20,1,0xC010,G:\Experimente\CoScience\Tasks\Logfiles\,2022_Mar_01_1002,Gambling,2020.1.3,59.96553961966104,
50,3,x,#ed1c24,59,53,250,,,,,0,135,135,217,,,2.897575280039024,,,,,,,,,,,1737.1789410674737,1740.0814423685024,1740.0647597355473,1740.5651914671162,1740.5651914671162,None,2,1.064761194098537,1740.5651914671162,None,1740.0647597355473,1740.5651914671162,1740.5651914671162,None,980,1743.6511734347387,None,1741.6661486860194,1743.6678534423008,1743.6511734347387,None,None,None,None,,,,AU06EL20,1,0xC010,G:\Experimente\CoScience\Tasks\Logfiles\,2022_Mar_01_1002,Gambling,2020.1.3,59.96553961966104,
10,6,o,#3ced1d,19,16,211,,,,,0,136,136,222,,,3.732991076509833,,,,,,,,,,,1744.6853966212911,1748.4219473077446,1748.3885756242016,1748.889024858403,1748.889024858403,None,4,1.2268198069104983,1748.889024858403,None,1748.3885756242016,1748.889024858403,1748.889024858403,None,990,1752.1417978586105,None,1750.1567710679174,1752.1584790330144,1752.1417978586105,None,None,None,None,,,,AU06EL20,1,0xC010,G:\Experimente\CoScience\Tasks\Logfiles\,2022_Mar_01_1002,Gambling,2020.1.3,59.96553961966104,
0,4,x,#ed1c24,9,4,100,,,,,0,137,137,19,,,3.599662273569855,,,,,,,,,,,1753.1927713549594,1756.7957930092161,1756.7791141684957,1757.279541524409,1757.279541524409,None,2,1.2511633415560937,1757.279541524409,None,1756.7791141684957,1757.279541524409,1757.279541524409,None,990,1760.5490169938876,None,1758.5640074141138,1760.5656996268444,1760.5490169938876,None,None,None,None,,,,AU06EL20,1,0xC010,G:\Experimente\CoScience\Tasks\Logfiles\,2022_Mar_01_1002,Gambling,2020.1.3,59.96553961966104,
10,4,x,#ed1c24,19,14,110,,,,,0,138,138,57,,,3.9433625002373516,,,,,,,,,,,1761.549878415055,1765.503274742303,1765.469914435469,1765.9703409162503,1765.9703409162503,None,4,2.1892690784516162,1765.9703409162503,None,1765.469914435469,1765.9703409162503,1765.9703409162503,None,980,1770.1739536927053,None,1768.1889134833273,1770.1906363256603,1770.1739536927053,None,None,None,None,,,,AU06EL20,1,0xC010,G:\Experimente\CoScience\Tasks\Logfiles\,2022_Mar_01_1002,Gambling,2020.1.3,59.96553961966104,
0,4,o,#3ced1d,9,4,101,,,,,0,139,139,8,,,3.8518933570222185,,,,,,,,,,,1771.2081555843888,1775.061479742455,1775.0448009017346,1775.5452300079105,1775.5452300079105,None,4,0.5582712184404954,1775.5452300079105,None,1775.0448009017346,1775.5452300079105,1775.5452300079105,None,980,1778.1307854947518,None,1776.1457444102434,1778.1474821298125,1778.1307854947518,None,None,None,None,,,,AU06EL20,1,0xC010,G:\Experimente\CoScience\Tasks\Logfiles\,2022_Mar_01_1002,Gambling,2020.1.3,59.96553961966104,
50,4,x,#ed1c24,59,54,150,,,,,0,140,140,88,,,3.8258511625861953,,,,,,,,,,,1779.1316448739453,1782.9682706466865,1782.9349088813015,1783.435329819582,1783.435329819582,None,2,0.6580890160494164,1783.435329819582,None,1782.9349088813015,1783.435329819582,1783.435329819582,None,930,1786.120976145081,None,1784.1359403113602,1786.1376581946151,1786.120976145081,None,None,None,None,,,,AU06EL20,1,0xC010,G:\Experimente\CoScience\Tasks\Logfiles\,2022_Mar_01_1002,Gambling,2020.1.3,59.96553961966104,
10,5,x,#ed1c24,19,15,110,,,,,0,141,141,160,,,2.957349796099911,,,,,,,,,,,1787.1552072078157,1790.1244212463262,1790.0910647317305,1790.5914847948807,1790.5914847948807,None,4,0.5938324811504572,1790.5914847948807,None,1790.0910647317305,1790.5914847948807,1790.5914847948807,None,920,1793.1937205809936,None,1791.2086894146414,1793.2103997134236,1793.1937205809936,None,None,None,None,,,,AU06EL20,1,0xC010,G:\Experimente\CoScience\Tasks\Logfiles\,2022_Mar_01_1002,Gambling,2020.1.3,59.96553961966104,
10,4,x,#ed1c24,19,14,110,,,,,0,142,142,56,,,4.241434188730266,,,,,,,,,,,1794.2112725113002,1798.4649127668854,1798.4482304256398,1798.9486601152366,1798.9486601152366,None,2,0.8205586489839334,1798.9486601152366,None,1798.4482304256398,1798.9486601152366,1798.9486601152366,None,910,1801.7844317595736,None,1799.7993906750653,1801.8011103085828,1801.7844317595736,None,None,None,None,,,,AU06EL20,1,0xC010,G:\Experimente\CoScience\Tasks\Logfiles\,2022_Mar_01_1002,Gambling,2020.1.3,59.96553961966104,
0,4,o,#3ced1d,9,4,101,,,,,0,143,143,5,,,3.9506659355349085,,,,,,,,,,,1802.8019705629085,1806.7553645564712,1806.7220027910862,1807.2224313138413,1807.2224313138413,None,4,0.3236627406313346,1807.2224313138413,None,1806.7220027910862,1807.2224313138413,1807.2224313138413,None,910,1809.5744535678532,None,1807.5894235683427,1809.591140284756,1809.5744535678532,None,None,None,None,,,,AU06EL20,1,0xC010,G:\Experimente\CoScience\Tasks\Logfiles\,2022_Mar_01_1002,Gambling,2020.1.3,59.96553961966104,
0,4,o,#3ced1d,9,4,101,,,,,0,144,144,10,,,2.9094703769201677,,,,,,,,,,,1810.5753117802033,1813.4944860877422,1813.4611231555136,1813.9615516782687,1813.9615516782687,None,4,0.6964661604142748,1813.9615516782687,None,1813.4611231555136,1813.9615516782687,1813.9615516782687,None,910,1816.6638762610637,None,1814.6788395522126,1816.6805533515198,1816.6638762610637,None,None,None,None,,,,AU06EL20,1,0xC010,G:\Experimente\CoScience\Tasks\Logfiles\,2022_Mar_01_1002,Gambling,2020.1.3,59.96553961966104,
50,4,x,#ed1c24,59,54,150,,,,,0,145,145,100,,,3.5337106221324515,,,,,,,,,,,1817.6647356402573,1821.2010950229524,1821.184425516969,1821.6848549148544,1821.6848549148544,None,4,1.1240630258089368,1821.6848549148544,None,1821.184425516969,1821.6848549148544,1821.6848549148544,None,860,1824.8375609966697,None,1822.8525234126864,1824.854242462783,1824.8375609966697,None,None,None,None,,,,AU06EL20,1,0xC010,G:\Experimente\CoScience\Tasks\Logfiles\,2022_Mar_01_1002,Gambling,2020.1.3,59.96553961966104,
50,5,o,#3ced1d,59,55,151,,,,,0,146,146,175,,,4.421647525907505,,,,,,,,,,,1825.8717830163805,1830.3089243582945,1830.2755535498836,1830.775994907901,1830.775994907901,None,4,1.7267830513865192,1830.775994907901,None,1830.2755535498836,1830.775994907901,1830.775994907901,None,910,1834.529214516915,None,1832.5441868510898,1834.5458965664493,1834.529214516915,None,None,None,None,,,,AU06EL20,1,0xC010,G:\Experimente\CoScience\Tasks\Logfiles\,2022_Mar_01_1002,Gambling,2020.1.3,59.96553961966104,
10,4,o,#3ced1d,19,14,111,,,,,0,147,147,39,,,3.510282712820565,,,,,,,,,,,1835.5634566646513,1839.0831255382054,1839.066444072092,1839.5668725948472,1839.5668725948472,None,2,1.73479167201549,1839.5668725948472,None,1839.066444072092,1839.5668725948472,1839.5668725948472,None,920,1843.303416280247,None,1841.318376946001,1843.3200971629394,1843.303416280247,None,None,None,None,,,,AU06EL20,1,0xC010,G:\Experimente\CoScience\Tasks\Logfiles\,2022_Mar_01_1002,Gambling,2020.1.3,59.96553961966104,
10,4,x,#ed1c24,19,14,110,,,,,0,148,148,53,,,3.6447364619000338,,,,,,,,,,,1844.3209600426599,1847.9741048570959,1847.9574108474299,1848.457842287291,1848.457842287291,None,2,0.3927246229359298,1848.457842287291,None,1847.9574108474299,1848.457842287291,1848.457842287291,None,910,1850.8765851549688,None,1848.891546404142,1850.8932689547655,1850.8765851549688,None,None,None,None,,,,AU06EL20,1,0xC010,G:\Experimente\CoScience\Tasks\Logfiles\,2022_Mar_01_1002,Gambling,2020.1.3,59.96553961966104,
0,5,o,#3ced1d,9,5,101,,,,,0,149,149,116,,,3.4819050587845175,,,,,,,,,,,1851.9108086332308,1855.3971347025836,1855.3804724893635,1855.880882926067,1855.880882926067,None,2,0.7845732391779165,1855.880882926067,None,1855.3804724893635,1855.880882926067,1855.880882926067,None,910,1858.699970478894,None,1856.714941646227,1858.7166522367188,1858.699970478894,None,None,None,None,,,,AU06EL20,1,0xC010,G:\Experimente\CoScience\Tasks\Logfiles\,2022_Mar_01_1002,Gambling,2020.1.3,59.96553961966104,
50,4,o,#3ced1d,59,54,151,,,,,0,150,150,77,,,2.8417790312289295,,,,,,,,,,,1859.7008354005884,1862.5532797597243,1862.5365997521621,1863.0370297334703,1863.0370297334703,None,2,0.6223460176843219,1863.0370297334703,None,1862.5365997521621,1863.0370297334703,1863.0370297334703,None,960,1865.6726243678622,None,1863.6875879507224,1865.689307000819,1865.6726243678622,None,None,None,None,,,,AU06EL20,1,0xC010,G:\Experimente\CoScience\Tasks\Logfiles\,2022_Mar_01_1002,Gambling,2020.1.3,59.96553961966104,
10,4,o,#3ced1d,19,14,111,,,,,0,151,151,35,,,3.6208940851070555,,,,,,,,,,,1866.7068516383624,1870.343303609976,1870.3099418445909,1870.8103697839233,1870.8103697839233,None,2,0.4729251797525649,1870.8103697839233,None,1870.3099418445909,1870.8103697839233,1870.8103697839233,None,970,1873.2958370575034,None,1871.310800932073,1873.312518815328,1873.2958370575034,None,None,None,None,,,,AU06EL20,1,0xC010,G:\Experimente\CoScience\Tasks\Logfiles\,2022_Mar_01_1002,Gambling,2020.1.3,59.96553961966104,
0,5,x,#ed1c24,9,5,100,,,,,0,152,152,133,,,3.491924342352811,,,,,,,,,,,1874.3133930717577,1877.8163860216991,1877.799704555584,1878.3001354120224,1878.3001354120224,None,2,0.45604039140562236,1878.3001354120224,None,1877.799704555584,1878.3001354120224,1878.3001354120224,None,970,1880.7856041441555,None,1878.8005750197772,1880.8022856102689,1880.7856041441555,None,None,None,None,,,,AU06EL20,1,0xC010,G:\Experimente\CoScience\Tasks\Logfiles\,2022_Mar_01_1002,Gambling,2020.1.3,59.96553961966104,
0,4,x,#ed1c24,9,4,100,,,,,0,153,153,21,,,4.259342036045721,,,,,,,,,,,1881.786463523349,1886.0567972051795,1886.0234354397944,1886.5238639625495,1886.5238639625495,None,4,5.6141396173225075,1886.5238639625495,None,1886.0234354397944,1886.5238639625495,1886.5238639625495,None,970,1894.1470807361366,None,1892.16204081847,1894.1637592851457,1894.1470807361366,None,None,None,None,,,,AU06EL20,1,0xC010,G:\Experimente\CoScience\Tasks\Logfiles\,2022_Mar_01_1002,Gambling,2020.1.3,59.96553961966104,
0,6,o,#3ced1d,9,6,201,,,,,0,154,154,218,,,3.6971186798369526,,,,,,,,,,,1895.1479395319093,1898.8511176596876,1898.8344356101534,1899.3348641329085,1899.3348641329085,None,4,0.860038459115458,1899.3348641329085,None,1898.8344356101534,1899.3348641329085,1899.3348641329085,None,970,1902.220645753745,None,1900.2356458004178,1902.2373651422258,1902.220645753745,None,None,None,None,,,,AU06EL20,1,0xC010,G:\Experimente\CoScience\Tasks\Logfiles\,2022_Mar_01_1002,Gambling,2020.1.3,59.96553961966104,
10,3,o,#3ced1d,19,13,211,,,,,0,155,155,212,,,4.189343666402529,,,,,,,,,,,1903.2215413050417,1907.4251473721542,1907.3917850233483,1907.8922144212338,1907.8922144212338,None,2,1.2575684294552048,1907.8922144212338,None,1907.3917850233483,1907.8922144212338,1907.8922144212338,None,980,1911.1616881404498,None,1909.176650264757,1911.1783713568275,1911.1616881404498,None,None,None,None,,,,AU06EL20,1,0xC010,G:\Experimente\CoScience\Tasks\Logfiles\,2022_Mar_01_1002,Gambling,2020.1.3,59.96553961966104,
50,5,x,#ed1c24,59,55,150,,,,,0,156,156,199,,,3.4272622704255635,,,,,,,,,,,1912.1959151192386,1915.6321929980131,1915.5988329828906,1916.0992661730143,1916.0992661730143,None,4,1.2734156034803163,1916.0992661730143,None,1915.5988329828906,1916.0992661730143,1916.0992661730143,None,930,1919.4020981570884,None,1917.417057656001,1919.4187828320191,1919.4020981570884,None,None,None,None,,,,AU06EL20,1,0xC010,G:\Experimente\CoScience\Tasks\Logfiles\,2022_Mar_01_1002,Gambling,2020.1.3,59.96553961966104,
50,4,x,#ed1c24,59,54,150,,,,,0,157,157,87,,,3.262866052874228,,,,,,,,,,,1920.436317259695,1923.7057936043057,1923.6891165138495,1924.1895470785767,1924.1895470785767,None,2,3.300997124901187,1924.1895470785767,None,1923.6891165138495,1924.1895470785767,1924.1895470785767,None,880,1929.4940969459076,None,1927.509061987319,1929.5107871633372,1929.4940969459076,None,None,None,None,,,,AU06EL20,1,0xC010,G:\Experimente\CoScience\Tasks\Logfiles\,2022_Mar_01_1002,Gambling,2020.1.3,59.96553961966104,
0,7,x,#ed1c24,9,7,200,,,,,0,158,158,228,,,4.099814106346754,,,,,,,,,,,1930.5283901429848,1934.6318444039425,1934.6151632295387,1935.1155935025563,1935.1155935025563,None,4,0.9178382733553008,1935.1155935025563,None,1934.6151632295387,1935.1155935025563,1935.1155935025563,None,880,1938.0347663515404,None,1936.0497290592684,1938.0514469425234,1938.0347663515404,None,None,None,None,,,,AU06EL20,1,0xC010,G:\Experimente\CoScience\Tasks\Logfiles\,2022_Mar_01_1002,Gambling,2020.1.3,59.96553961966104,
0,6,x,#ed1c24,9,6,200,,,,,0,159,159,221,,,3.3953261359724634,,,,,,,,,,,1939.0356263141548,1942.438545052939,1942.421868837615,1942.9223011526065,1942.9223011526065,None,4,1.7170337940806348,1942.9223011526065,None,1942.421868837615,1942.9223011526065,1942.9223011526065,None,880,1946.6421671641292,None,1944.6571202454106,1946.658838420375,1946.6421671641292,None,None,None,None,,,,AU06EL20,1,0xC010,G:\Experimente\CoScience\Tasks\Logfiles\,2022_Mar_01_1002,Gambling,2020.1.3,59.96553961966104,
0,5,o,#3ced1d,9,5,101,,,,,0,160,160,115,,,2.931935551683227,,,,,,,,,,,1947.6430195422708,1950.578875899344,1950.5621912244133,1951.0626220808517,1951.0626220808517,None,2,1.5606025689194212,1951.0626220808517,None,1950.5621912244133,1951.0626220808517,1951.0626220808517,None,880,1954.6490433645195,None,1952.6640031551415,1954.6657125787915,1954.6490433645195,None,None,None,None,,,,AU06EL20,1,0xC010,G:\Experimente\CoScience\Tasks\Logfiles\,2022_Mar_01_1002,Gambling,2020.1.3,59.96553961966104,
50,4,o,#3ced1d,59,54,151,,,,,0,161,161,68,,,4.123320297707181,,,,,,,,,,,1955.6498937006854,1959.7867887805805,1959.7534165136149,1960.2538637058442,1960.2538637058442,None,4,4.500209156443816,1960.2538637058442,None,1959.7534165136149,1960.2538637058442,1960.2538637058442,None,930,1966.7594339182324,None,1964.7743977928003,1966.7761174263196,1966.7594339182324,None,None,None,None,,,,AU06EL20,1,0xC010,G:\Experimente\CoScience\Tasks\Logfiles\,2022_Mar_01_1002,Gambling,2020.1.3,59.96553961966104,
10,4,x,#ed1c24,19,14,110,,,,,0,162,162,67,,,3.3834832587480133,,,,,,,,,,,1967.7936562296527,1971.179902253638,1971.1632137864726,1971.6636458097528,1971.6636458097528,None,2,1.3473137545006466,1971.6636458097528,None,1971.1632137864726,1971.6636458097528,1971.6636458097528,None,920,1975.0332045334144,None,1973.048173950483,1975.049886291239,1975.0332045334144,None,None,None,None,,,,AU06EL20,1,0xC010,G:\Experimente\CoScience\Tasks\Logfiles\,2022_Mar_01_1002,Gambling,2020.1.3,59.96553961966104,
0,5,x,#ed1c24,9,5,100,,,,,0,163,163,129,,,3.5977690560171314,,,,,,,,,,,1976.0674300536502,1979.6705214267204,1979.6538405440278,1980.1542678999413,1980.1542678999413,None,4,1.4195829939762916,1980.1542678999413,None,1979.6538405440278,1980.1542678999413,1980.1542678999413,None,920,1983.5905624062143,None,1981.6055151957844,1983.607234829302,1983.5905624062143,None,None,None,None,,,,AU06EL20,1,0xC010,G:\Experimente\CoScience\Tasks\Logfiles\,2022_Mar_01_1002,Gambling,2020.1.3,59.96553961966104,
10,4,x,#ed1c24,19,14,110,,,,,0,164,164,60,,,2.5983700233268756,,,,,,,,,,,1984.591424702514,1987.1936543627053,1987.1769705629085,1987.6774017110565,1987.6774017110565,None,2,0.9133742272588279,1987.6774017110565,None,1987.1769705629085,1987.6774017110565,1987.6774017110565,None,910,1990.5965696009625,None,1988.611534058953,1990.6132507753664,1990.5965696009625,None,None,None,None,,,,AU06EL20,1,0xC010,G:\Experimente\CoScience\Tasks\Logfiles\,2022_Mar_01_1002,Gambling,2020.1.3,59.96553961966104,
50,5,o,#3ced1d,59,55,151,,,,,0,165,165,179,,,3.10072808346259,,,,,,,,,,,1991.614113655085,1994.7167741717167,1994.7000944558658,1995.2005285211198,1995.2005285211198,None,4,5.249055149623018,1995.2005285211198,None,1994.7000944558658,1995.2005285211198,1995.2005285211198,None,960,2002.4734365482946,None,2000.4883969223374,2002.490117430987,2002.4734365482946,None,None,None,None,,,,AU06EL20,1,0xC010,G:\Experimente\CoScience\Tasks\Logfiles\,2022_Mar_01_1002,Gambling,2020.1.3,59.96553961966104,
0,5,x,#ed1c24,9,5,100,,,,,0,166,166,135,,,3.7313085257032625,,,,,,,,,,,2003.5076611933982,2007.2441722072217,2007.2274872405815,2007.7279513520189,2007.7279513520189,None,4,0.9215508731485897,2007.7279513520189,None,2007.2274872405815,2007.7279513520189,2007.7279513520189,None,960,2010.6804833409951,None,2008.6954577171437,2010.6971671407937,2010.6804833409951,None,None,None,None,,,,AU06EL20,1,0xC010,G:\Experimente\CoScience\Tasks\Logfiles\,2022_Mar_01_1002,Gambling,2020.1.3,59.96553961966104,
50,5,x,#ed1c24,59,55,150,,,,,0,167,167,189,,,2.9613823888223028,,,,,,,,,,,2011.6813476792668,2014.650558800673,2014.6171952850236,2015.11763605962,2015.11763605962,None,4,1.064768778573125,2015.11763605962,None,2014.6171952850236,2015.11763605962,2015.11763605962,None,910,2018.186928684945,None,2016.2018931429357,2018.2036104427698,2018.186928684945,None,None,None,None,,,,AU06EL20,1,0xC010,G:\Experimente\CoScience\Tasks\Logfiles\,2022_Mar_01_1002,Gambling,2020.1.3,59.96553961966104,
0,4,o,#3ced1d,9,4,101,,,,,0,168,168,2,,,3.8764741838272947,,,,,,,,,,,2019.2211279512358,2023.1078211674485,2023.0744570683783,2023.574888216528,2023.574888216528,None,2,1.5074006959039252,2023.574888216528,None,2023.0744570683783,2023.574888216528,2023.574888216528,None,910,2027.1112747283005,None,2025.126231310107,2027.1279395669153,2027.1112747283005,None,None,None,None,,,,AU06EL20,1,0xC010,G:\Experimente\CoScience\Tasks\Logfiles\,2022_Mar_01_1002,Gambling,2020.1.3,59.96553961966104,
50,4,o,#3ced1d,59,54,151,,,,,0,169,169,79,,,2.647425983363921,,,,,,,,,,,2028.1121201053884,2030.7643991230016,2030.7477159066239,2031.2481135080634,2031.2481135080634,None,2,6.133008620628971,2031.2481135080634,None,2030.7477159066239,2031.2481135080634,2031.2481135080634,None,960,2039.388467983019,None,2037.4034330244303,2039.4051511993966,2039.388467983019,None,None,None,None,,,,AU06EL20,1,0xC010,G:\Experimente\CoScience\Tasks\Logfiles\,2022_Mar_01_1002,Gambling,2020.1.3,59.96553961966104,
10,3,x,#ed1c24,19,13,210,,,,,0,170,170,214,,,4.0816873794619095,,,,,,,,,,,2040.42268387681,2044.5095342666518,2044.4928522171158,2044.9932792813179,2044.9932792813179,None,4,0.8107431733897101,2044.9932792813179,None,2044.4928522171158,2044.9932792813179,2044.9932792813179,None,950,2047.8290497588132,None,2045.8440212178557,2047.8457341420326,2047.8290497588132,None,None,None,None,,,,AU06EL20,1,0xC010,G:\Experimente\CoScience\Tasks\Logfiles\,2022_Mar_01_1002,Gambling,2020.1.3,59.96553961966104,
0,4,o,#3ced1d,9,4,101,,,,,0,171,171,1,,,3.4761373510764773,,,,,,,,,,,2048.8632779044437,2052.3495984312976,2052.3162349156482,2052.8166634384033,2052.8166634384033,None,2,1.7592428478419606,2052.8166634384033,None,2052.3162349156482,2052.8166634384033,2052.8166634384033,None,950,2056.603250938724,None,2054.6182215226345,2056.619932696549,2056.603250938724,None,None,None,None,,,,AU06EL20,1,0xC010,G:\Experimente\CoScience\Tasks\Logfiles\,2022_Mar_01_1002,Gambling,2020.1.3,59.96553961966104,
50,5,x,#ed1c24,59,55,150,,,,,0,172,172,192,,,2.5725393837479604,,,,,,,,,,,2057.604118194102,2060.189663762785,2060.1563019974,2060.656730228444,2060.656730228444,None,4,1.4420846683933632,2060.656730228444,None,2060.1563019974,2060.656730228444,2060.656730228444,None,900,2064.126376873657,None,2062.1413389979625,2064.143059214901,2064.126376873657,None,None,None,None,,,,AU06EL20,1,0xC010,G:\Experimente\CoScience\Tasks\Logfiles\,2022_Mar_01_1002,Gambling,2020.1.3,59.96553961966104,
10,4,x,#ed1c24,19,14,110,,,,,0,173,173,51,,,2.922151805806286,,,,,,,,,,,2065.1605913088933,2068.0964540835976,2068.0630923182107,2068.5635199658354,2068.5635199658354,None,2,1.915183999328292,2068.5635199658354,None,2068.0630923182107,2068.5635199658354,2068.5635199658354,None,890,2072.4835635707223,None,2070.4985271535825,2072.500235410389,2072.4835635707223,None,None,None,None,,,,AU06EL20,1,0xC010,G:\Experimente\CoScience\Tasks\Logfiles\,2022_Mar_01_1002,Gambling,2020.1.3,59.96553961966104,
0,5,o,#3ced1d,9,5,101,,,,,0,174,174,104,,,3.207220177985809,,,,,,,,,,,2073.501095081294,2076.720524985589,2076.7038522707917,2077.2042740842044,2077.2042740842044,None,4,0.9823296352224133,2077.2042740842044,None,2076.7038522707917,2077.2042740842044,2077.2042740842044,None,890,2080.206832093758,None,2078.2218233891163,2080.2235010163186,2080.206832093758,None,None,None,None,,,,AU06EL20,1,0xC010,G:\Experimente\CoScience\Tasks\Logfiles\,2022_Mar_01_1002,Gambling,2020.1.3,59.96553961966104,
10,5,x,#ed1c24,19,15,110,,,,,0,175,175,165,,,2.822244191666076,,,,,,,,,,,2081.2077121843977,2084.0434803282096,2084.010117395981,2084.510547085578,2084.510547085578,None,4,1.1139616739055782,2084.510547085578,None,2084.010117395981,2084.510547085578,2084.510547085578,None,880,2087.646576076937,None,2085.6615347007155,2087.6632525839723,2087.646576076937,None,None,None,None,,,,AU06EL20,1,0xC010,G:\Experimente\CoScience\Tasks\Logfiles\,2022_Mar_01_1002,Gambling,2020.1.3,59.96553961966104,
0,2,x,#ed1c24,9,2,200,,,,,0,176,176,204,,,2.569234403625475,,,,,,,,,,,2088.680795471253,2091.2496385706654,2091.2329600216563,2091.7334188823042,2091.7334188823042,None,2,2.8409745931803627,2091.7334188823042,None,2091.2329600216563,2091.7334188823042,2091.7334188823042,None,880,2096.587586083775,None,2094.6025517086073,2096.604265799624,2096.587586083775,None,None,None,None,,,,AU06EL20,1,0xC010,G:\Experimente\CoScience\Tasks\Logfiles\,2022_Mar_01_1002,Gambling,2020.1.3,59.96553961966104,
0,4,x,#ed1c24,9,4,100,,,,,0,177,177,32,,,3.5086851750169736,,,,,,,,,,,2097.5884475049406,2101.1081332977046,2101.07477124061,2101.575200346786,2101.575200346786,None,2,1.5530837302540021,2101.575200346786,None,2101.07477124061,2101.575200346786,2101.575200346786,None,880,2105.14493053789,None,2103.15990024667,2105.1616149211095,2105.14493053789,None,None,None,None,,,,AU06EL20,1,0xC010,G:\Experimente\CoScience\Tasks\Logfiles\,2022_Mar_01_1002,Gambling,2020.1.3,59.96553961966104,
0,5,o,#3ced1d,9,5,101,,,,,0,178,178,108,,,4.024445576090023,,,,,,,,,,,2106.1457945844522,2110.1825909495055,2110.149230350962,2110.649660040559,2110.649660040559,None,4,0.8805340402832371,2110.649660040559,None,2110.149230350962,2110.649660040559,2110.649660040559,None,880,2113.552152590273,None,2111.567129300105,2113.5688331812544,2113.552152590273,None,None,None,None,,,,AU06EL20,1,0xC010,G:\Experimente\CoScience\Tasks\Logfiles\,2022_Mar_01_1002,Gambling,2020.1.3,59.96553961966104,
10,5,x,#ed1c24,19,15,110,,,,,0,179,179,167,,,2.5144640219177132,,,,,,,,,,,2114.55301430315,2117.0718512182993,2117.0551595423167,2117.555589523625,2117.555589523625,None,4,1.9535010513245652,2117.555589523625,None,2117.0551595423167,2117.555589523625,2117.555589523625,None,870,2121.5423461577047,None,2119.5573079903006,2121.5590282072408,2121.5423461577047,None,2122.5765708028102,None,space,58.0702701472801,,,AU06EL20,1,0xC010,G:\Experimente\CoScience\Tasks\Logfiles\,2022_Mar_01_1002,Gambling,2020.1.3,59.96553961966104,
50,4,x,#ed1c24,59,54,150,,,,,0,180,180,95,,,2.540011940968645,,,,,,,,,,,2181.6773171150053,2184.2295128784353,2184.1961493627878,2184.6965784689637,2184.6965784689637,None,2,1.113636416674126,2184.6965784689637,None,2184.1961493627878,2184.6965784689637,2184.6965784689637,None,820,2187.8159222019713,None,2185.830883159435,2187.8326042515055,2187.8159222019713,None,None,None,None,,,,AU06EL20,1,0xC010,G:\Experimente\CoScience\Tasks\Logfiles\,2022_Mar_01_1002,Gambling,2020.1.3,59.96553961966104,
50,4,o,#3ced1d,59,54,151,,,,,0,181,181,81,,,3.4985743867008274,,,,,,,,,,,2188.8502229835212,2192.353151465437,2192.336470874454,2192.8368991054977,2192.8368991054977,None,2,0.9692507940362702,2192.8368991054977,None,2192.336470874454,2192.8368991054977,2192.8368991054977,None,870,2195.839483369,None,2193.8544440347523,2195.8561587091917,2195.839483369,None,None,None,None,,,,AU06EL20,1,0xC010,G:\Experimente\CoScience\Tasks\Logfiles\,2022_Mar_01_1002,Gambling,2020.1.3,59.96553961966104,
50,5,o,#3ced1d,59,55,151,,,,,0,182,182,185,,,2.8686627730234733,,,,,,,,,,,2196.8737010130517,2199.742833255932,2199.7261935044226,2200.2265800208625,2200.2265800208625,None,4,0.8874347443579609,2200.2265800208625,None,2199.7261935044226,2200.2265800208625,2200.2265800208625,None,920,2203.1290708203123,None,2201.14403381975,2203.145751994716,2203.1290708203123,None,None,None,None,,,,AU06EL20,1,0xC010,G:\Experimente\CoScience\Tasks\Logfiles\,2022_Mar_01_1002,Gambling,2020.1.3,59.96553961966104,
0,5,x,#ed1c24,9,5,100,,,,,0,183,183,125,,,3.9370350567054437,,,,,,,,,,,2204.1466110821984,2208.0832915214924,2208.0666173481404,2208.5670820430005,2208.5670820430005,None,4,0.9088258768242667,2208.5670820430005,None,2208.0666173481404,2208.5670820430005,2208.5670820430005,None,920,2211.502928773625,None,2209.517897023852,2211.519607614344,2211.502928773625,None,None,None,None,,,,AU06EL20,1,0xC010,G:\Experimente\CoScience\Tasks\Logfiles\,2022_Mar_01_1002,Gambling,2020.1.3,59.96553961966104,
50,4,o,#3ced1d,59,54,151,,,,,0,184,184,75,,,4.045526210646327,,,,,,,,,,,2212.5037901947926,2216.557267150829,2216.5405877266876,2217.041025000759,2217.041025000759,None,2,1.2217714646430977,2217.041025000759,None,2216.5405877266876,2217.041025000759,2217.041025000759,None,970,2220.2938128782025,None,2218.3087697517185,2220.310487926685,2220.2938128782025,None,None,None,None,,,,AU06EL20,1,0xC010,G:\Experimente\CoScience\Tasks\Logfiles\,2022_Mar_01_1002,Gambling,2020.1.3,59.96553961966104,
10,5,o,#3ced1d,19,15,111,,,,,0,185,185,151,,,3.7351818636509364,,,,,,,,,,,2221.328033147649,2225.064572749103,2225.031213900822,2225.53164388213,2225.53164388213,None,4,1.3960425383938855,2225.53164388213,None,2225.031213900822,2225.53164388213,2225.53164388213,None,980,2228.934561162361,None,2226.9495422478503,2228.9512440870276,2228.934561162361,None,None,None,None,,,,AU06EL20,1,0xC010,G:\Experimente\CoScience\Tasks\Logfiles\,2022_Mar_01_1002,Gambling,2020.1.3,59.96553961966104,
0,4,o,#3ced1d,9,4,101,,,,,0,186,186,16,,,3.8007341089307864,,,,,,,,,,,2229.952106966746,2233.755372140944,2233.738688049436,2234.2391232815335,2234.2391232815335,None,2,1.0854933525006345,2234.2391232815335,None,2233.738688049436,2234.2391232815335,2234.2391232815335,None,980,2237.3417817561894,None,2235.3567345457595,2237.3584617637516,2237.3417817561894,None,None,None,None,,,,AU06EL20,1,0xC010,G:\Experimente\CoScience\Tasks\Logfiles\,2022_Mar_01_1002,Gambling,2020.1.3,59.96553961966104,
50,7,x,#ed1c24,59,57,250,,,,,0,187,187,232,,,2.5014442208619503,,,,,,,,,,,2238.3426458027516,2240.844789583367,2240.8281092840953,2241.328538390271,2241.328538390271,None,4,0.6979538840678288,2241.328538390271,None,2240.8281092840953,2241.328538390271,2241.328538390271,None,930,2244.0475386049693,None,2242.0625077303284,2244.0642232799,2244.0475386049693,None,None,None,None,,,,AU06EL20,1,0xC010,G:\Experimente\CoScience\Tasks\Logfiles\,2022_Mar_01_1002,Gambling,2020.1.3,59.96553961966104,
10,5,x,#ed1c24,19,15,110,,,,,0,188,188,155,,,3.099901369688845,,,,,,,,,,,2245.0817638334956,2248.184426392101,2248.1677437591443,2248.668171990188,2248.668171990188,None,4,2.0092093011317047,2248.668171990188,None,2248.1677437591443,2248.668171990188,2248.668171990188,None,920,2252.688291848208,None,2250.703256014487,2252.704972439189,2252.688291848208,None,None,None,None,,,,AU06EL20,1,0xC010,G:\Experimente\CoScience\Tasks\Logfiles\,2022_Mar_01_1002,Gambling,2020.1.3,59.96553961966104,
0,5,o,#3ced1d,9,5,101,,,,,0,189,189,107,,,3.1259484950982483,,,,,,,,,,,2253.7058367774625,2256.8418593511888,2256.8251822607326,2257.325613117171,2257.325613117171,None,2,1.0886651209912088,2257.325613117171,None,2256.8251822607326,2257.325613117171,2257.325613117171,None,920,2260.444952182812,None,2258.459924808696,2260.4616429836624,2260.444952182812,None,None,None,None,,,,AU06EL20,1,0xC010,G:\Experimente\CoScience\Tasks\Logfiles\,2022_Mar_01_1002,Gambling,2020.1.3,59.96553961966104,
0,4,x,#ed1c24,9,4,100,,,,,0,190,190,23,,,3.2383283100244027,,,,,,,,,,,2261.4458270226623,2264.6986067322123,2264.665244675116,2265.165674656422,2265.165674656422,None,2,1.1595146053623466,2265.165674656422,None,2264.665244675116,2265.165674656422,2265.165674656422,None,920,2268.351743670464,None,2266.366703461086,2268.368423969736,2268.351743670464,None,None,None,None,,,,AU06EL20,1,0xC010,G:\Experimente\CoScience\Tasks\Logfiles\,2022_Mar_01_1002,Gambling,2020.1.3,59.96553961966104,
50,4,o,#3ced1d,59,54,151,,,,,0,191,191,82,,,3.496162272773352,,,,,,,,,,,2269.352610925842,2272.8556123353883,2272.8389299941427,2273.3393596837395,2273.3393596837395,None,2,1.4047042988804606,2273.3393596837395,None,2272.8389299941427,2273.3393596837395,2273.3393596837395,None,970,2276.7589610554787,None,2274.7739482668894,2276.775642521592,2276.7589610554787,None,None,None,None,,,,AU06EL20,1,0xC010,G:\Experimente\CoScience\Tasks\Logfiles\,2022_Mar_01_1002,Gambling,2020.1.3,59.96553961966104,
10,4,o,#3ced1d,19,14,111,,,,,0,192,192,37,,,3.906168091206757,,,,,,,,,,,2277.7931871591354,2281.713215886788,2281.696536170937,2282.1969681942173,2282.1969681942173,None,2,1.1809944178276055,2282.1969681942173,None,2281.696536170937,2282.1969681942173,2282.1969681942173,None,980,2285.383044792734,None,2283.3979949569075,2285.399714590427,2285.383044792734,None,None,None,None,,,,AU06EL20,1,0xC010,G:\Experimente\CoScience\Tasks\Logfiles\,2022_Mar_01_1002,Gambling,2020.1.3,59.96553961966104,
0,4,x,#ed1c24,9,4,100,,,,,0,193,193,17,,,3.0179616308455914,,,,,,,,,,,2286.4005882634356,2289.419833865024,2289.403155316015,2289.9035870475855,2289.9035870475855,None,2,1.0742718321980647,2289.9035870475855,None,2289.403155316015,2289.9035870475855,2289.9035870475855,None,980,2293.006246689085,None,2291.021217856418,2293.0229444909874,2293.006246689085,None,None,None,None,,,,AU06EL20,1,0xC010,G:\Experimente\CoScience\Tasks\Logfiles\,2022_Mar_01_1002,Gambling,2020.1.3,59.96553961966104,
