"Onset","Duration","Participant","date_time","Running","Trial","Event","OfferSelf","OfferOther","Presented_Offer","Response","RT","MoneyWon","Response_accept","color_subject"
176.683506337118,10.7484533508214,"AU06EL20","2022_Mar_01_1210","Proposer",1,"offer_proposer",NA,NA,NA,"5_self_5_other",10.7484533508214,NA,4,"red"
187.659602410229,16.0281366465424,"AU06EL20","2022_Mar_01_1210","Proposer",2,"offer_proposer",NA,NA,NA,"5_self_5_other",16.0281366465424,NA,4,"red"
203.906890377519,4.98077598499003,"AU06EL20","2022_Mar_01_1210","Proposer",3,"offer_proposer",NA,NA,NA,"7_self_3_other",4.98077598499003,NA,4,"red"
328.280410821761,0.648497474775603,"AU06EL20","2022_Mar_01_1210","Practice",0,"Fixation",3,7,"7_3_V2.png","Accept",2.15377403402817,NA,4,"red"
329.031042958457,2.15377403402817,"AU06EL20","2022_Mar_01_1210","Practice",0,"Offer",3,7,"7_3_V2.png","Accept",2.15377403402817,NA,4,"red"
331.184816992485,0,"AU06EL20","2022_Mar_01_1210","Practice",0,"Response",3,7,"7_3_V2.png","Accept",2.15377403402817,NA,4,"red"
331.216233632123,1,"AU06EL20","2022_Mar_01_1210","Practice",0,"Feedback",3,7,"7_3_V2.png","Accept",2.15377403402817,NA,4,"red"
332.217092427894,0.585445661854353,"AU06EL20","2022_Mar_01_1210","Practice",1,"Fixation",5,5,"5_5_V2.png","Accept",1.02416967517274,NA,4,"red"
332.817618206936,1.02416967517274,"AU06EL20","2022_Mar_01_1210","Practice",1,"Offer",5,5,"5_5_V2.png","Accept",1.02416967517274,NA,4,"red"
333.841787882109,0,"AU06EL20","2022_Mar_01_1210","Practice",1,"Response",5,5,"5_5_V2.png","Accept",1.02416967517274,NA,4,"red"
333.868510607761,1,"AU06EL20","2022_Mar_01_1210","Practice",1,"Feedback",5,5,"5_5_V2.png","Accept",1.02416967517274,NA,4,"red"
334.869369403532,0.562587067422574,"AU06EL20","2022_Mar_01_1210","Practice",2,"Fixation",1,9,"9_1_V2.png","Reject",0.912236556228891,NA,4,"red"
335.436529624953,0.912236556228891,"AU06EL20","2022_Mar_01_1210","Practice",2,"Offer",1,9,"9_1_V2.png","Reject",0.912236556228891,NA,4,"red"
336.348766181182,0,"AU06EL20","2022_Mar_01_1210","Practice",2,"Response",1,9,"9_1_V2.png","Reject",0.912236556228891,NA,4,"red"
336.370657888903,1,"AU06EL20","2022_Mar_01_1210","Practice",2,"Feedback",1,9,"9_1_V2.png","Reject",0.912236556228891,NA,4,"red"
337.371514642702,0.678182137047627,"AU06EL20","2022_Mar_01_1210","Practice",3,"Fixation",3,7,"7_3_V2.png","Accept",0.774300944907736,NA,4,"red"
338.05544045955,0.774300944907736,"AU06EL20","2022_Mar_01_1210","Practice",3,"Offer",3,7,"7_3_V2.png","Accept",0.774300944907736,NA,4,"red"
338.829741404458,0,"AU06EL20","2022_Mar_01_1210","Practice",3,"Response",3,7,"7_3_V2.png","Accept",0.774300944907736,NA,4,"red"
338.856144707086,1,"AU06EL20","2022_Mar_01_1210","Practice",3,"Feedback",3,7,"7_3_V2.png","Accept",0.774300944907736,NA,4,"red"
339.856986875358,0.632437704788581,"AU06EL20","2022_Mar_01_1210","Practice",4,"Fixation",5,5,"5_5_V2.png","Accept",0.518842749363102,NA,4,"red"
340.49086391821,0.518842749363102,"AU06EL20","2022_Mar_01_1210","Practice",4,"Offer",5,5,"5_5_V2.png","Accept",0.518842749363102,NA,4,"red"
341.009706667573,0,"AU06EL20","2022_Mar_01_1210","Practice",4,"Response",5,5,"5_5_V2.png","Accept",0.518842749363102,NA,4,"red"
341.0246556649,1,"AU06EL20","2022_Mar_01_1210","Practice",4,"Feedback",5,5,"5_5_V2.png","Accept",0.518842749363102,NA,4,"red"
342.025515335805,0.686061044138252,"AU06EL20","2022_Mar_01_1210","Practice",5,"Fixation",1,9,"9_1_V2.png","Reject",2.55152628778524,NA,4,"red"
342.726121160213,2.55152628778524,"AU06EL20","2022_Mar_01_1210","Practice",5,"Offer",1,9,"9_1_V2.png","Reject",2.55152628778524,NA,4,"red"
345.277647447998,0,"AU06EL20","2022_Mar_01_1210","Practice",5,"Response",1,9,"9_1_V2.png","Reject",2.55152628778524,NA,4,"red"
345.294990513572,1,"AU06EL20","2022_Mar_01_1210","Practice",5,"Feedback",1,9,"9_1_V2.png","Reject",2.55152628778524,NA,4,"red"
350.816398856961,0.567714853010779,"AU06EL20","2022_Mar_01_1210","MainTask",0,"Fixation",3,7,"7_3_V2.png","Reject",0.823032937620155,0,4,"red"
351.383554411012,0.823032937620155,"AU06EL20","2022_Mar_01_1210","MainTask",0,"Offer",3,7,"7_3_V2.png","Reject",0.823032937620155,0,4,"red"
352.206587348632,0,"AU06EL20","2022_Mar_01_1210","MainTask",0,"Response",3,7,"7_3_V2.png","Reject",0.823032937620155,0,4,"red"
352.250963519848,1,"AU06EL20","2022_Mar_01_1210","MainTask",0,"Feedback",3,7,"7_3_V2.png","Reject",0.823032937620155,0,4,"red"
353.251823190752,0.64336465322976,"AU06EL20","2022_Mar_01_1210","MainTask",1,"Fixation",3,7,"7_3_V2.png","Accept",0.51714499413356,3,4,"red"
353.902384908532,0.51714499413356,"AU06EL20","2022_Mar_01_1210","MainTask",1,"Offer",3,7,"7_3_V2.png","Accept",0.51714499413356,3,4,"red"
354.419529902666,0,"AU06EL20","2022_Mar_01_1210","MainTask",1,"Response",3,7,"7_3_V2.png","Accept",0.51714499413356,3,4,"red"
354.452861621863,1,"AU06EL20","2022_Mar_01_1210","MainTask",1,"Feedback",3,7,"7_3_V2.png","Accept",0.51714499413356,3,4,"red"
355.453716625398,0.508415959709215,"AU06EL20","2022_Mar_01_1210","MainTask",2,"Fixation",1,9,"9_1_V2.png","Reject",0.646674383380741,3,4,"red"
355.970828072819,0.646674383380741,"AU06EL20","2022_Mar_01_1210","MainTask",2,"Offer",1,9,"9_1_V2.png","Reject",0.646674383380741,3,4,"red"
356.6175024562,0,"AU06EL20","2022_Mar_01_1210","MainTask",2,"Response",1,9,"9_1_V2.png","Reject",0.646674383380741,3,4,"red"
356.654742804669,1,"AU06EL20","2022_Mar_01_1210","MainTask",2,"Feedback",1,9,"9_1_V2.png","Reject",0.646674383380741,3,4,"red"
357.655608601493,0.669453817369396,"AU06EL20","2022_Mar_01_1210","MainTask",3,"Fixation",3,7,"7_3_V2.png","Accept",0.517949823453819,6,4,"red"
358.339528292421,0.517949823453819,"AU06EL20","2022_Mar_01_1210","MainTask",3,"Offer",3,7,"7_3_V2.png","Accept",0.517949823453819,6,4,"red"
358.857478115875,0,"AU06EL20","2022_Mar_01_1210","MainTask",3,"Response",3,7,"7_3_V2.png","Accept",0.517949823453819,6,4,"red"
358.889999463252,1,"AU06EL20","2022_Mar_01_1210","MainTask",3,"Feedback",3,7,"7_3_V2.png","Accept",0.517949823453819,6,4,"red"
359.89086059271,0.520675842374739,"AU06EL20","2022_Mar_01_1210","MainTask",4,"Fixation",5,5,"5_5_V2.png","Accept",0.270798960111279,11,4,"red"
360.424652922822,0.270798960111279,"AU06EL20","2022_Mar_01_1210","MainTask",4,"Offer",5,5,"5_5_V2.png","Accept",0.270798960111279,11,4,"red"
360.695451882933,0,"AU06EL20","2022_Mar_01_1210","MainTask",4,"Response",5,5,"5_5_V2.png","Accept",0.270798960111279,11,4,"red"
360.72490764445,1,"AU06EL20","2022_Mar_01_1210","MainTask",4,"Feedback",5,5,"5_5_V2.png","Accept",0.270798960111279,11,4,"red"
361.725770232457,0.577954779036849,"AU06EL20","2022_Mar_01_1210","MainTask",5,"Fixation",3,7,"7_3_V2.png","Accept",0.285818551390548,14,4,"red"
362.309609002885,0.285818551390548,"AU06EL20","2022_Mar_01_1210","MainTask",5,"Offer",3,7,"7_3_V2.png","Accept",0.285818551390548,14,4,"red"
362.595427554276,0,"AU06EL20","2022_Mar_01_1210","MainTask",5,"Response",3,7,"7_3_V2.png","Accept",0.285818551390548,14,4,"red"
362.626540231548,1,"AU06EL20","2022_Mar_01_1210","MainTask",5,"Feedback",3,7,"7_3_V2.png","Accept",0.285818551390548,14,4,"red"
363.627425572977,0.559860529140717,"AU06EL20","2022_Mar_01_1210","MainTask",6,"Fixation",1,9,"9_1_V2.png","Accept",0.30686546544166,15,4,"red"
364.194557790186,0.30686546544166,"AU06EL20","2022_Mar_01_1210","MainTask",6,"Offer",1,9,"9_1_V2.png","Accept",0.30686546544166,15,4,"red"
364.501423255628,0,"AU06EL20","2022_Mar_01_1210","MainTask",6,"Response",1,9,"9_1_V2.png","Accept",0.30686546544166,15,4,"red"
364.544858952129,1,"AU06EL20","2022_Mar_01_1210","MainTask",6,"Feedback",1,9,"9_1_V2.png","Accept",0.30686546544166,15,4,"red"
365.545719206453,0.651976844888697,"AU06EL20","2022_Mar_01_1210","MainTask",7,"Fixation",5,5,"5_5_V2.png","Accept",0.337420392199419,20,4,"red"
366.212958598109,0.337420392199419,"AU06EL20","2022_Mar_01_1210","MainTask",7,"Offer",5,5,"5_5_V2.png","Accept",0.337420392199419,20,4,"red"
366.550378990308,0,"AU06EL20","2022_Mar_01_1210","MainTask",7,"Response",5,5,"5_5_V2.png","Accept",0.337420392199419,20,4,"red"
366.579936850507,1,"AU06EL20","2022_Mar_01_1210","MainTask",7,"Feedback",5,5,"5_5_V2.png","Accept",0.337420392199419,20,4,"red"
367.580799438514,0.596929611539362,"AU06EL20","2022_Mar_01_1210","MainTask",8,"Fixation",1,9,"9_1_V2.png","Reject",0.552028613303264,20,4,"red"
368.181315591111,0.552028613303264,"AU06EL20","2022_Mar_01_1210","MainTask",8,"Offer",1,9,"9_1_V2.png","Reject",0.552028613303264,20,4,"red"
368.733344204414,0,"AU06EL20","2022_Mar_01_1210","MainTask",8,"Response",1,9,"9_1_V2.png","Reject",0.552028613303264,20,4,"red"
368.765145610225,1,"AU06EL20","2022_Mar_01_1210","MainTask",8,"Feedback",1,9,"9_1_V2.png","Reject",0.552028613303264,20,4,"red"
369.766011115338,0.602594169898526,"AU06EL20","2022_Mar_01_1210","MainTask",9,"Fixation",5,5,"5_5_V2.png","Accept",0.604109734496888,25,4,"red"
370.38320523352,0.604109734496888,"AU06EL20","2022_Mar_01_1210","MainTask",9,"Offer",5,5,"5_5_V2.png","Accept",0.604109734496888,25,4,"red"
370.987314968017,0,"AU06EL20","2022_Mar_01_1210","MainTask",9,"Response",5,5,"5_5_V2.png","Accept",0.604109734496888,25,4,"red"
371.000399351702,1,"AU06EL20","2022_Mar_01_1210","MainTask",9,"Feedback",5,5,"5_5_V2.png","Accept",0.604109734496888,25,4,"red"
372.00126048116,0.590750063430382,"AU06EL20","2022_Mar_01_1210","MainTask",10,"Fixation",3,7,"7_3_V2.png","Accept",1.11849573052677,28,4,"red"
372.601778092307,1.11849573052677,"AU06EL20","2022_Mar_01_1210","MainTask",10,"Offer",3,7,"7_3_V2.png","Accept",1.11849573052677,28,4,"red"
373.720273822834,0,"AU06EL20","2022_Mar_01_1210","MainTask",10,"Response",3,7,"7_3_V2.png","Accept",1.11849573052677,28,4,"red"
373.75276279034,1,"AU06EL20","2022_Mar_01_1210","MainTask",10,"Feedback",3,7,"7_3_V2.png","Accept",1.11849573052677,28,4,"red"
374.753627420323,0.501129068172114,"AU06EL20","2022_Mar_01_1210","MainTask",11,"Fixation",1,9,"9_1_V2.png","Reject",0.67315732298448,28,4,"red"
375.254096782548,0.67315732298448,"AU06EL20","2022_Mar_01_1210","MainTask",11,"Offer",1,9,"9_1_V2.png","Reject",0.67315732298448,28,4,"red"
375.927254105532,0,"AU06EL20","2022_Mar_01_1210","MainTask",11,"Response",1,9,"9_1_V2.png","Reject",0.67315732298448,28,4,"red"
375.954653599591,1,"AU06EL20","2022_Mar_01_1210","MainTask",11,"Feedback",1,9,"9_1_V2.png","Reject",0.67315732298448,28,4,"red"
376.955518229573,0.691708834668269,"AU06EL20","2022_Mar_01_1210","MainTask",12,"Fixation",1,9,"9_1_V2.png","Reject",1.36906981682841,28,4,"red"
377.656136305824,1.36906981682841,"AU06EL20","2022_Mar_01_1210","MainTask",12,"Offer",1,9,"9_1_V2.png","Reject",1.36906981682841,28,4,"red"
379.025206122652,0,"AU06EL20","2022_Mar_01_1210","MainTask",12,"Response",1,9,"9_1_V2.png","Reject",1.36906981682841,28,4,"red"
379.040639651161,1,"AU06EL20","2022_Mar_01_1210","MainTask",12,"Feedback",1,9,"9_1_V2.png","Reject",1.36906981682841,28,4,"red"
380.041502822591,0.664923141691748,"AU06EL20","2022_Mar_01_1210","MainTask",13,"Fixation",5,5,"5_5_V2.png","Accept",0.362460239855864,33,4,"red"
380.708741339113,0.362460239855864,"AU06EL20","2022_Mar_01_1210","MainTask",13,"Offer",5,5,"5_5_V2.png","Accept",0.362460239855864,33,4,"red"
381.071201578969,0,"AU06EL20","2022_Mar_01_1210","MainTask",13,"Response",5,5,"5_5_V2.png","Accept",0.362460239855864,33,4,"red"
381.109084565713,1,"AU06EL20","2022_Mar_01_1210","MainTask",13,"Feedback",5,5,"5_5_V2.png","Accept",0.362460239855864,33,4,"red"
382.109945111748,0.694864988038982,"AU06EL20","2022_Mar_01_1210","MainTask",14,"Fixation",1,9,"9_1_V2.png","Reject",0.869601605110802,33,4,"red"
382.810547435631,0.869601605110802,"AU06EL20","2022_Mar_01_1210","MainTask",14,"Offer",1,9,"9_1_V2.png","Reject",0.869601605110802,33,4,"red"
383.680149040742,0,"AU06EL20","2022_Mar_01_1210","MainTask",14,"Response",1,9,"9_1_V2.png","Reject",0.869601605110802,33,4,"red"
383.711316851299,1,"AU06EL20","2022_Mar_01_1210","MainTask",14,"Feedback",1,9,"9_1_V2.png","Reject",0.869601605110802,33,4,"red"
384.712179731021,0.574244906338023,"AU06EL20","2022_Mar_01_1210","MainTask",15,"Fixation",3,7,"7_3_V2.png","Accept",0.633104593387543,36,4,"red"
385.296015292632,0.633104593387543,"AU06EL20","2022_Mar_01_1210","MainTask",15,"Offer",3,7,"7_3_V2.png","Accept",0.633104593387543,36,4,"red"
385.92911988602,0,"AU06EL20","2022_Mar_01_1210","MainTask",15,"Response",3,7,"7_3_V2.png","Accept",0.633104593387543,36,4,"red"
385.963250892051,1,"AU06EL20","2022_Mar_01_1210","MainTask",15,"Feedback",3,7,"7_3_V2.png","Accept",0.633104593387543,36,4,"red"
386.964113188351,0.684030462827641,"AU06EL20","2022_Mar_01_1210","MainTask",16,"Fixation",3,7,"7_3_V2.png","Accept",0.816054638544301,39,4,"red"
387.648035796381,0.816054638544301,"AU06EL20","2022_Mar_01_1210","MainTask",16,"Offer",3,7,"7_3_V2.png","Accept",0.816054638544301,39,4,"red"
388.464090434925,0,"AU06EL20","2022_Mar_01_1210","MainTask",16,"Response",3,7,"7_3_V2.png","Accept",0.816054638544301,39,4,"red"
388.482081681279,1,"AU06EL20","2022_Mar_01_1210","MainTask",16,"Feedback",3,7,"7_3_V2.png","Accept",0.816054638544301,39,4,"red"
389.482941060473,0.579701530387425,"AU06EL20","2022_Mar_01_1210","MainTask",17,"Fixation",3,7,"7_3_V2.png","Accept",0.50128731852601,42,4,"red"
390.066781289454,0.50128731852601,"AU06EL20","2022_Mar_01_1210","MainTask",17,"Offer",3,7,"7_3_V2.png","Accept",0.50128731852601,42,4,"red"
390.56806860798,0,"AU06EL20","2022_Mar_01_1210","MainTask",17,"Response",3,7,"7_3_V2.png","Accept",0.50128731852601,42,4,"red"
390.583886902663,1,"AU06EL20","2022_Mar_01_1210","MainTask",17,"Feedback",3,7,"7_3_V2.png","Accept",0.50128731852601,42,4,"red"
391.584746865279,0.61583003228489,"AU06EL20","2022_Mar_01_1210","MainTask",18,"Fixation",5,5,"5_5_V2.png","Accept",0.307092999646557,47,4,"red"
392.201947692804,0.307092999646557,"AU06EL20","2022_Mar_01_1210","MainTask",18,"Offer",5,5,"5_5_V2.png","Accept",0.307092999646557,47,4,"red"
392.509040692451,0,"AU06EL20","2022_Mar_01_1210","MainTask",18,"Response",5,5,"5_5_V2.png","Accept",0.307092999646557,47,4,"red"
392.535563012974,1,"AU06EL20","2022_Mar_01_1210","MainTask",18,"Feedback",5,5,"5_5_V2.png","Accept",0.307092999646557,47,4,"red"
393.536422392168,0.650883707334874,"AU06EL20","2022_Mar_01_1210","MainTask",19,"Fixation",1,9,"9_1_V2.png","Accept",0.958019063866232,48,4,"red"
394.187002487706,0.958019063866232,"AU06EL20","2022_Mar_01_1210","MainTask",19,"Offer",1,9,"9_1_V2.png","Accept",0.958019063866232,48,4,"red"
395.145021551572,0,"AU06EL20","2022_Mar_01_1210","MainTask",19,"Response",1,9,"9_1_V2.png","Accept",0.958019063866232,48,4,"red"
395.187838238347,1,"AU06EL20","2022_Mar_01_1210","MainTask",19,"Feedback",1,9,"9_1_V2.png","Accept",0.958019063866232,48,4,"red"
396.188704910306,0.646155220639184,"AU06EL20","2022_Mar_01_1210","MainTask",20,"Fixation",3,7,"7_3_V2.png","Accept",0.509713085200929,51,4,"red"
396.839265752951,0.509713085200929,"AU06EL20","2022_Mar_01_1210","MainTask",20,"Offer",3,7,"7_3_V2.png","Accept",0.509713085200929,51,4,"red"
397.348978838152,0,"AU06EL20","2022_Mar_01_1210","MainTask",20,"Response",3,7,"7_3_V2.png","Accept",0.509713085200929,51,4,"red"
397.389731089574,1,"AU06EL20","2022_Mar_01_1210","MainTask",20,"Feedback",3,7,"7_3_V2.png","Accept",0.509713085200929,51,4,"red"
398.390592802451,0.528235814368691,"AU06EL20","2022_Mar_01_1210","MainTask",21,"Fixation",3,7,"7_3_V2.png","Accept",0.236569064214564,54,4,"red"
398.924384549144,0.236569064214564,"AU06EL20","2022_Mar_01_1210","MainTask",21,"Offer",3,7,"7_3_V2.png","Accept",0.236569064214564,54,4,"red"
399.160953613359,0,"AU06EL20","2022_Mar_01_1210","MainTask",21,"Response",3,7,"7_3_V2.png","Accept",0.236569064214564,54,4,"red"
399.174600414928,1,"AU06EL20","2022_Mar_01_1210","MainTask",21,"Feedback",3,7,"7_3_V2.png","Accept",0.236569064214564,54,4,"red"
400.175451626226,0.571472770823795,"AU06EL20","2022_Mar_01_1210","MainTask",22,"Fixation",1,9,"9_1_V2.png","Accept",0.227628720182111,55,4,"red"
400.759307607575,0.227628720182111,"AU06EL20","2022_Mar_01_1210","MainTask",22,"Offer",1,9,"9_1_V2.png","Accept",0.227628720182111,55,4,"red"
400.986936327757,0,"AU06EL20","2022_Mar_01_1210","MainTask",22,"Response",1,9,"9_1_V2.png","Accept",0.227628720182111,55,4,"red"
401.026190645662,1,"AU06EL20","2022_Mar_01_1210","MainTask",22,"Feedback",1,9,"9_1_V2.png","Accept",0.227628720182111,55,4,"red"
402.027052066827,0.595315289999006,"AU06EL20","2022_Mar_01_1210","MainTask",23,"Fixation",5,5,"5_5_V2.png","Accept",0.341341273302532,60,4,"red"
402.627566760868,0.341341273302532,"AU06EL20","2022_Mar_01_1210","MainTask",23,"Offer",5,5,"5_5_V2.png","Accept",0.341341273302532,60,4,"red"
402.968908034171,0,"AU06EL20","2022_Mar_01_1210","MainTask",23,"Response",5,5,"5_5_V2.png","Accept",0.341341273302532,60,4,"red"
403.011225312537,1,"AU06EL20","2022_Mar_01_1210","MainTask",23,"Feedback",5,5,"5_5_V2.png","Accept",0.341341273302532,60,4,"red"
404.012091692784,0.647755072696814,"AU06EL20","2022_Mar_01_1210","MainTask",24,"Fixation",1,9,"9_1_V2.png","Accept",1.41720496981361,61,4,"red"
404.662648159774,1.41720496981361,"AU06EL20","2022_Mar_01_1210","MainTask",24,"Offer",1,9,"9_1_V2.png","Accept",1.41720496981361,61,4,"red"
406.079853129588,0,"AU06EL20","2022_Mar_01_1210","MainTask",24,"Response",1,9,"9_1_V2.png","Accept",1.41720496981361,61,4,"red"
406.097210197266,1,"AU06EL20","2022_Mar_01_1210","MainTask",24,"Feedback",1,9,"9_1_V2.png","Accept",1.41720496981361,61,4,"red"
407.09807045159,2.83429879791584,"AU06EL20","2022_Mar_01_1210","Break",NA,NA,NA,NA,NA,NA,NA,NA,4,"red"
410.934700599992,0.557754302593956,"AU06EL20","2022_Mar_01_1210","MainTask",25,"Fixation",5,5,"5_5_V2.png","Accept",0.600903835875215,66,4,"red"
411.501878615753,0.600903835875215,"AU06EL20","2022_Mar_01_1210","MainTask",25,"Offer",5,5,"5_5_V2.png","Accept",0.600903835875215,66,4,"red"
412.102782451628,0,"AU06EL20","2022_Mar_01_1210","MainTask",25,"Response",5,5,"5_5_V2.png","Accept",0.600903835875215,66,4,"red"
412.135730863207,1,"AU06EL20","2022_Mar_01_1210","MainTask",25,"Feedback",5,5,"5_5_V2.png","Accept",0.600903835875215,66,4,"red"
413.136594034637,0.57723543196867,"AU06EL20","2022_Mar_01_1210","MainTask",26,"Fixation",5,5,"5_5_V2.png","Accept",0.468327238530037,71,4,"red"
413.720432513353,0.468327238530037,"AU06EL20","2022_Mar_01_1210","MainTask",26,"Offer",5,5,"5_5_V2.png","Accept",0.468327238530037,71,4,"red"
414.188759751883,0,"AU06EL20","2022_Mar_01_1210","MainTask",26,"Response",5,5,"5_5_V2.png","Accept",0.468327238530037,71,4,"red"
414.204175777759,1,"AU06EL20","2022_Mar_01_1210","MainTask",26,"Feedback",5,5,"5_5_V2.png","Accept",0.468327238530037,71,4,"red"
415.205046533662,0.671557169105111,"AU06EL20","2022_Mar_01_1210","MainTask",27,"Fixation",5,5,"5_5_V2.png","Accept",1.15376119876601,76,4,"red"
415.888958348405,1.15376119876601,"AU06EL20","2022_Mar_01_1210","MainTask",27,"Offer",5,5,"5_5_V2.png","Accept",1.15376119876601,76,4,"red"
417.042719547171,0,"AU06EL20","2022_Mar_01_1210","MainTask",27,"Response",5,5,"5_5_V2.png","Accept",1.15376119876601,76,4,"red"
417.056625679394,1,"AU06EL20","2022_Mar_01_1210","MainTask",27,"Feedback",5,5,"5_5_V2.png","Accept",1.15376119876601,76,4,"red"
418.057487975693,0.673298444260862,"AU06EL20","2022_Mar_01_1210","MainTask",28,"Fixation",3,7,"7_3_V2.png","Accept",0.76028804663656,79,4,"red"
418.74140737491,0.76028804663656,"AU06EL20","2022_Mar_01_1210","MainTask",28,"Offer",3,7,"7_3_V2.png","Accept",0.76028804663656,79,4,"red"
419.501695421547,0,"AU06EL20","2022_Mar_01_1210","MainTask",28,"Response",3,7,"7_3_V2.png","Accept",0.76028804663656,79,4,"red"
419.542090911,1,"AU06EL20","2022_Mar_01_1210","MainTask",28,"Feedback",3,7,"7_3_V2.png","Accept",0.76028804663656,79,4,"red"
420.542956124405,0.662876736764159,"AU06EL20","2022_Mar_01_1210","MainTask",29,"Fixation",1,9,"9_1_V2.png","Accept",0.943458041525446,80,4,"red"
421.210196391192,0.943458041525446,"AU06EL20","2022_Mar_01_1210","MainTask",29,"Offer",1,9,"9_1_V2.png","Accept",0.943458041525446,80,4,"red"
422.153654432717,0,"AU06EL20","2022_Mar_01_1210","MainTask",29,"Response",1,9,"9_1_V2.png","Accept",0.943458041525446,80,4,"red"
422.194371970585,1,"AU06EL20","2022_Mar_01_1210","MainTask",29,"Feedback",1,9,"9_1_V2.png","Accept",0.943458041525446,80,4,"red"
423.195233391754,0.566825377131817,"AU06EL20","2022_Mar_01_1210","MainTask",30,"Fixation",5,5,"5_5_V2.png","Accept",0.461240714856103,85,4,"red"
423.762386903833,0.461240714856103,"AU06EL20","2022_Mar_01_1210","MainTask",30,"Offer",5,5,"5_5_V2.png","Accept",0.461240714856103,85,4,"red"
424.223627618689,0,"AU06EL20","2022_Mar_01_1210","MainTask",30,"Response",5,5,"5_5_V2.png","Accept",0.461240714856103,85,4,"red"
424.246131918499,1,"AU06EL20","2022_Mar_01_1210","MainTask",30,"Feedback",5,5,"5_5_V2.png","Accept",0.461240714856103,85,4,"red"
425.246994214798,0.572429969887821,"AU06EL20","2022_Mar_01_1210","MainTask",31,"Fixation",3,7,"7_3_V2.png","Accept",0.400788960272621,88,4,"red"
425.83083094325,0.400788960272621,"AU06EL20","2022_Mar_01_1210","MainTask",31,"Offer",3,7,"7_3_V2.png","Accept",0.400788960272621,88,4,"red"
426.231619903523,0,"AU06EL20","2022_Mar_01_1210","MainTask",31,"Response",3,7,"7_3_V2.png","Accept",0.400788960272621,88,4,"red"
426.264531851288,1,"AU06EL20","2022_Mar_01_1210","MainTask",31,"Feedback",3,7,"7_3_V2.png","Accept",0.400788960272621,88,4,"red"
427.265391813904,0.624619962154035,"AU06EL20","2022_Mar_01_1210","MainTask",32,"Fixation",5,5,"5_5_V2.png","Accept",0.343309735897492,93,4,"red"
427.899274107542,0.343309735897492,"AU06EL20","2022_Mar_01_1210","MainTask",32,"Offer",5,5,"5_5_V2.png","Accept",0.343309735897492,93,4,"red"
428.242583843439,0,"AU06EL20","2022_Mar_01_1210","MainTask",32,"Response",5,5,"5_5_V2.png","Accept",0.343309735897492,93,4,"red"
428.282934992894,1,"AU06EL20","2022_Mar_01_1210","MainTask",32,"Feedback",5,5,"5_5_V2.png","Accept",0.343309735897492,93,4,"red"
429.283814208404,0.633745469475258,"AU06EL20","2022_Mar_01_1210","MainTask",33,"Fixation",5,5,"5_5_V2.png","Accept",0.436874426788563,98,4,"red"
429.91767841599,0.436874426788563,"AU06EL20","2022_Mar_01_1210","MainTask",33,"Offer",5,5,"5_5_V2.png","Accept",0.436874426788563,98,4,"red"
430.354552842779,0,"AU06EL20","2022_Mar_01_1210","MainTask",33,"Response",5,5,"5_5_V2.png","Accept",0.436874426788563,98,4,"red"
430.368057289612,1,"AU06EL20","2022_Mar_01_1210","MainTask",33,"Feedback",5,5,"5_5_V2.png","Accept",0.436874426788563,98,4,"red"
431.368916377094,0.5907638611833,"AU06EL20","2022_Mar_01_1210","MainTask",34,"Fixation",1,9,"9_1_V2.png","Accept",0.412088658995344,99,4,"red"
431.969438072188,0.412088658995344,"AU06EL20","2022_Mar_01_1210","MainTask",34,"Offer",1,9,"9_1_V2.png","Accept",0.412088658995344,99,4,"red"
432.381526731183,0,"AU06EL20","2022_Mar_01_1210","MainTask",34,"Response",1,9,"9_1_V2.png","Accept",0.412088658995344,99,4,"red"
432.41981986292,1,"AU06EL20","2022_Mar_01_1210","MainTask",34,"Feedback",1,9,"9_1_V2.png","Accept",0.412088658995344,99,4,"red"
433.420681867508,0.660379677328701,"AU06EL20","2022_Mar_01_1210","MainTask",35,"Fixation",1,9,"9_1_V2.png","Accept",0.464578466628154,100,4,"red"
434.087922134295,0.464578466628154,"AU06EL20","2022_Mar_01_1210","MainTask",35,"Offer",1,9,"9_1_V2.png","Accept",0.464578466628154,100,4,"red"
434.552500600923,0,"AU06EL20","2022_Mar_01_1210","MainTask",35,"Response",1,9,"9_1_V2.png","Accept",0.464578466628154,100,4,"red"
434.571669190937,1,"AU06EL20","2022_Mar_01_1210","MainTask",35,"Feedback",1,9,"9_1_V2.png","Accept",0.464578466628154,100,4,"red"
435.572530612102,0.52542600063053,"AU06EL20","2022_Mar_01_1210","MainTask",36,"Fixation",5,5,"5_5_V2.png","Accept",0.468148711686808,105,4,"red"
436.106323817348,0.468148711686808,"AU06EL20","2022_Mar_01_1210","MainTask",36,"Offer",5,5,"5_5_V2.png","Accept",0.468148711686808,105,4,"red"
436.574472529035,0,"AU06EL20","2022_Mar_01_1210","MainTask",36,"Response",5,5,"5_5_V2.png","Accept",0.468148711686808,105,4,"red"
436.606747381022,1,"AU06EL20","2022_Mar_01_1210","MainTask",36,"Feedback",5,5,"5_5_V2.png","Accept",0.468148711686808,105,4,"red"
437.607609093899,0.675147989391835,"AU06EL20","2022_Mar_01_1210","MainTask",37,"Fixation",3,7,"7_3_V2.png","Accept",0.553897602607321,108,4,"red"
438.291532577063,0.553897602607321,"AU06EL20","2022_Mar_01_1210","MainTask",37,"Offer",3,7,"7_3_V2.png","Accept",0.553897602607321,108,4,"red"
438.84543017967,0,"AU06EL20","2022_Mar_01_1210","MainTask",37,"Response",3,7,"7_3_V2.png","Accept",0.553897602607321,108,4,"red"
438.875366680124,1,"AU06EL20","2022_Mar_01_1210","MainTask",37,"Feedback",3,7,"7_3_V2.png","Accept",0.553897602607321,108,4,"red"
439.876224892476,0.553195228998614,"AU06EL20","2022_Mar_01_1210","MainTask",38,"Fixation",5,5,"5_5_V2.png","Accept",0.71104556051796,113,4,"red"
440.443385113897,0.71104556051796,"AU06EL20","2022_Mar_01_1210","MainTask",38,"Offer",5,5,"5_5_V2.png","Accept",0.71104556051796,113,4,"red"
441.154430674415,0,"AU06EL20","2022_Mar_01_1210","MainTask",38,"Response",5,5,"5_5_V2.png","Accept",0.71104556051796,113,4,"red"
441.19402045941,1,"AU06EL20","2022_Mar_01_1210","MainTask",38,"Feedback",5,5,"5_5_V2.png","Accept",0.71104556051796,113,4,"red"
442.194887131365,0.51960139619173,"AU06EL20","2022_Mar_01_1210","MainTask",39,"Fixation",1,9,"9_1_V2.png","Reject",1.00169688009919,113,4,"red"
442.7286800449,1.00169688009919,"AU06EL20","2022_Mar_01_1210","MainTask",39,"Offer",1,9,"9_1_V2.png","Reject",1.00169688009919,113,4,"red"
443.730376924999,0,"AU06EL20","2022_Mar_01_1210","MainTask",39,"Response",1,9,"9_1_V2.png","Reject",1.00169688009919,113,4,"red"
443.762897980661,1,"AU06EL20","2022_Mar_01_1210","MainTask",39,"Feedback",1,9,"9_1_V2.png","Reject",1.00169688009919,113,4,"red"
444.763757651566,0.613327058774843,"AU06EL20","2022_Mar_01_1210","MainTask",40,"Fixation",1,9,"9_1_V2.png","Reject",0.362399564070074,113,4,"red"
445.380954978566,0.362399564070074,"AU06EL20","2022_Mar_01_1210","MainTask",40,"Offer",1,9,"9_1_V2.png","Reject",0.362399564070074,113,4,"red"
445.743354542636,0,"AU06EL20","2022_Mar_01_1210","MainTask",40,"Response",1,9,"9_1_V2.png","Reject",0.362399564070074,113,4,"red"
445.764624906944,1,"AU06EL20","2022_Mar_01_1210","MainTask",40,"Feedback",1,9,"9_1_V2.png","Reject",0.362399564070074,113,4,"red"
446.765475826531,0.560152325825755,"AU06EL20","2022_Mar_01_1210","MainTask",41,"Fixation",5,5,"5_5_V2.png","Accept",0.623695470552775,118,4,"red"
447.332631672296,0.623695470552775,"AU06EL20","2022_Mar_01_1210","MainTask",41,"Offer",5,5,"5_5_V2.png","Accept",0.623695470552775,118,4,"red"
447.956327142849,0,"AU06EL20","2022_Mar_01_1210","MainTask",41,"Response",5,5,"5_5_V2.png","Accept",0.623695470552775,118,4,"red"
447.999867563423,1,"AU06EL20","2022_Mar_01_1210","MainTask",41,"Feedback",5,5,"5_5_V2.png","Accept",0.623695470552775,118,4,"red"
449.0007292763,0.620023034124506,"AU06EL20","2022_Mar_01_1210","MainTask",42,"Fixation",5,5,"5_5_V2.png","Accept",0.252698030602915,123,4,"red"
449.634602526912,0.252698030602915,"AU06EL20","2022_Mar_01_1210","MainTask",42,"Offer",5,5,"5_5_V2.png","Accept",0.252698030602915,123,4,"red"
449.887300557515,0,"AU06EL20","2022_Mar_01_1210","MainTask",42,"Response",5,5,"5_5_V2.png","Accept",0.252698030602915,123,4,"red"
449.901503067627,1,"AU06EL20","2022_Mar_01_1210","MainTask",42,"Feedback",5,5,"5_5_V2.png","Accept",0.252698030602915,123,4,"red"
450.902361571691,0.548942795489587,"AU06EL20","2022_Mar_01_1210","MainTask",43,"Fixation",1,9,"9_1_V2.png","Reject",0.820429421222798,123,4,"red"
451.452839451864,0.820429421222798,"AU06EL20","2022_Mar_01_1210","MainTask",43,"Offer",1,9,"9_1_V2.png","Reject",0.820429421222798,123,4,"red"
452.273268873087,0,"AU06EL20","2022_Mar_01_1210","MainTask",43,"Response",1,9,"9_1_V2.png","Reject",0.820429421222798,123,4,"red"
452.30356417748,1,"AU06EL20","2022_Mar_01_1210","MainTask",43,"Feedback",1,9,"9_1_V2.png","Reject",0.820429421222798,123,4,"red"
453.30442734891,0.620066114208044,"AU06EL20","2022_Mar_01_1210","MainTask",44,"Fixation",1,9,"9_1_V2.png","Accept",0.331934484151134,124,4,"red"
453.938306725446,0.331934484151134,"AU06EL20","2022_Mar_01_1210","MainTask",44,"Offer",1,9,"9_1_V2.png","Accept",0.331934484151134,124,4,"red"
454.270241209597,0,"AU06EL20","2022_Mar_01_1210","MainTask",44,"Response",1,9,"9_1_V2.png","Accept",0.331934484151134,124,4,"red"
454.30528351929,1,"AU06EL20","2022_Mar_01_1210","MainTask",44,"Feedback",1,9,"9_1_V2.png","Accept",0.331934484151134,124,4,"red"
455.306134730588,0.619565298404158,"AU06EL20","2022_Mar_01_1210","MainTask",45,"Fixation",5,5,"5_5_V2.png","Accept",0.381216934612894,129,4,"red"
455.940025192122,0.381216934612894,"AU06EL20","2022_Mar_01_1210","MainTask",45,"Offer",5,5,"5_5_V2.png","Accept",0.381216934612894,129,4,"red"
456.321242126735,0,"AU06EL20","2022_Mar_01_1210","MainTask",45,"Response",5,5,"5_5_V2.png","Accept",0.381216934612894,129,4,"red"
456.357045509176,1,"AU06EL20","2022_Mar_01_1210","MainTask",45,"Feedback",5,5,"5_5_V2.png","Accept",0.381216934612894,129,4,"red"
457.357909264025,0.625584205905077,"AU06EL20","2022_Mar_01_1210","MainTask",46,"Fixation",3,7,"7_3_V2.png","Accept",0.695378371885454,132,4,"red"
457.991786890296,0.695378371885454,"AU06EL20","2022_Mar_01_1210","MainTask",46,"Offer",3,7,"7_3_V2.png","Accept",0.695378371885454,132,4,"red"
458.687165262181,0,"AU06EL20","2022_Mar_01_1210","MainTask",46,"Response",3,7,"7_3_V2.png","Accept",0.695378371885454,132,4,"red"
458.725753313247,1,"AU06EL20","2022_Mar_01_1210","MainTask",46,"Feedback",3,7,"7_3_V2.png","Accept",0.695378371885454,132,4,"red"
459.726615026124,0.684784560729185,"AU06EL20","2022_Mar_01_1210","MainTask",47,"Fixation",1,9,"9_1_V2.png","Accept",0.25963140625754,133,4,"red"
460.410531216527,0.25963140625754,"AU06EL20","2022_Mar_01_1210","MainTask",47,"Offer",1,9,"9_1_V2.png","Accept",0.25963140625754,133,4,"red"
460.670162622785,0,"AU06EL20","2022_Mar_01_1210","MainTask",47,"Response",1,9,"9_1_V2.png","Accept",0.25963140625754,133,4,"red"
460.694104763748,1,"AU06EL20","2022_Mar_01_1210","MainTask",47,"Feedback",1,9,"9_1_V2.png","Accept",0.25963140625754,133,4,"red"
461.694964434653,0.618293752738514,"AU06EL20","2022_Mar_01_1210","MainTask",48,"Fixation",5,5,"5_5_V2.png","Accept",0.243302034738008,138,4,"red"
462.32884643658,0.243302034738008,"AU06EL20","2022_Mar_01_1210","MainTask",48,"Offer",5,5,"5_5_V2.png","Accept",0.243302034738008,138,4,"red"
462.572148471318,0,"AU06EL20","2022_Mar_01_1210","MainTask",48,"Response",5,5,"5_5_V2.png","Accept",0.243302034738008,138,4,"red"
462.612421150647,1,"AU06EL20","2022_Mar_01_1210","MainTask",48,"Feedback",5,5,"5_5_V2.png","Accept",0.243302034738008,138,4,"red"
463.613282571812,0.619140895432693,"AU06EL20","2022_Mar_01_1210","MainTask",49,"Fixation",1,9,"9_1_V2.png","Accept",0.257942402342451,139,4,"red"
464.247159614661,0.257942402342451,"AU06EL20","2022_Mar_01_1210","MainTask",49,"Offer",1,9,"9_1_V2.png","Accept",0.257942402342451,139,4,"red"
464.505102017003,0,"AU06EL20","2022_Mar_01_1210","MainTask",49,"Response",1,9,"9_1_V2.png","Accept",0.257942402342451,139,4,"red"
464.547414336288,1,"AU06EL20","2022_Mar_01_1210","MainTask",49,"Feedback",1,9,"9_1_V2.png","Accept",0.257942402342451,139,4,"red"
465.548274882323,1.73538530292353,"AU06EL20","2022_Mar_01_1210","Break",NA,NA,NA,NA,NA,NA,NA,NA,4,"red"
468.300640946356,0.556261202966597,"AU06EL20","2022_Mar_01_1210","MainTask",50,"Fixation",3,7,"7_3_V2.png","Accept",0.835235480401025,142,4,"red"
468.867808168827,0.835235480401025,"AU06EL20","2022_Mar_01_1210","MainTask",50,"Offer",3,7,"7_3_V2.png","Accept",0.835235480401025,142,4,"red"
469.703043649228,0,"AU06EL20","2022_Mar_01_1210","MainTask",50,"Response",3,7,"7_3_V2.png","Accept",0.835235480401025,142,4,"red"
469.735584832921,1,"AU06EL20","2022_Mar_01_1210","MainTask",50,"Feedback",3,7,"7_3_V2.png","Accept",0.835235480401025,142,4,"red"
470.736442170139,0.651052929647797,"AU06EL20","2022_Mar_01_1210","MainTask",51,"Fixation",5,5,"5_5_V2.png","Accept",0.981322650502989,147,4,"red"
471.403680978372,0.981322650502989,"AU06EL20","2022_Mar_01_1210","MainTask",51,"Offer",5,5,"5_5_V2.png","Accept",0.981322650502989,147,4,"red"
472.385003628875,0,"AU06EL20","2022_Mar_01_1210","MainTask",51,"Response",5,5,"5_5_V2.png","Accept",0.981322650502989,147,4,"red"
472.42122211539,1,"AU06EL20","2022_Mar_01_1210","MainTask",51,"Feedback",5,5,"5_5_V2.png","Accept",0.981322650502989,147,4,"red"
473.422081786295,0.647645138029319,"AU06EL20","2022_Mar_01_1210","MainTask",52,"Fixation",3,7,"7_3_V2.png","Accept",0.30966326104317,150,4,"red"
474.08932176137,0.30966326104317,"AU06EL20","2022_Mar_01_1210","MainTask",52,"Offer",3,7,"7_3_V2.png","Accept",0.30966326104317,150,4,"red"
474.398985022413,0,"AU06EL20","2022_Mar_01_1210","MainTask",52,"Response",3,7,"7_3_V2.png","Accept",0.30966326104317,150,4,"red"
474.439623215025,1,"AU06EL20","2022_Mar_01_1210","MainTask",52,"Feedback",3,7,"7_3_V2.png","Accept",0.30966326104317,150,4,"red"
475.440481135665,0.665800966618187,"AU06EL20","2022_Mar_01_1210","MainTask",53,"Fixation",1,9,"9_1_V2.png","Accept",0.249552516059339,151,4,"red"
476.124403451984,0.249552516059339,"AU06EL20","2022_Mar_01_1210","MainTask",53,"Offer",1,9,"9_1_V2.png","Accept",0.249552516059339,151,4,"red"
476.373955968043,0,"AU06EL20","2022_Mar_01_1210","MainTask",53,"Response",1,9,"9_1_V2.png","Accept",0.249552516059339,151,4,"red"
476.407978457763,1,"AU06EL20","2022_Mar_01_1210","MainTask",53,"Feedback",1,9,"9_1_V2.png","Accept",0.249552516059339,151,4,"red"
477.408839587217,0.535143157316335,"AU06EL20","2022_Mar_01_1210","MainTask",54,"Fixation",1,9,"9_1_V2.png","Accept",0.265951022971421,152,4,"red"
477.975992515876,0.265951022971421,"AU06EL20","2022_Mar_01_1210","MainTask",54,"Offer",1,9,"9_1_V2.png","Accept",0.265951022971421,152,4,"red"
478.241943538847,0,"AU06EL20","2022_Mar_01_1210","MainTask",54,"Response",1,9,"9_1_V2.png","Accept",0.265951022971421,152,4,"red"
478.276248112634,1,"AU06EL20","2022_Mar_01_1210","MainTask",54,"Feedback",1,9,"9_1_V2.png","Accept",0.265951022971421,152,4,"red"
479.277110700641,0.629090354481267,"AU06EL20","2022_Mar_01_1210","MainTask",55,"Fixation",3,7,"7_3_V2.png","Accept",0.386236689249927,155,4,"red"
479.927669209603,0.386236689249927,"AU06EL20","2022_Mar_01_1210","MainTask",55,"Offer",3,7,"7_3_V2.png","Accept",0.386236689249927,155,4,"red"
480.313905898853,0,"AU06EL20","2022_Mar_01_1210","MainTask",55,"Response",3,7,"7_3_V2.png","Accept",0.386236689249927,155,4,"red"
480.344693610605,1,"AU06EL20","2022_Mar_01_1210","MainTask",55,"Feedback",3,7,"7_3_V2.png","Accept",0.386236689249927,155,4,"red"
481.34555328151,0.524471840946685,"AU06EL20","2022_Mar_01_1210","MainTask",56,"Fixation",1,9,"9_1_V2.png","Accept",0.397853769016365,156,4,"red"
481.896027661158,0.397853769016365,"AU06EL20","2022_Mar_01_1210","MainTask",56,"Offer",1,9,"9_1_V2.png","Accept",0.397853769016365,156,4,"red"
482.293881430174,0,"AU06EL20","2022_Mar_01_1210","MainTask",56,"Response",1,9,"9_1_V2.png","Accept",0.397853769016365,156,4,"red"
482.329733236562,1,"AU06EL20","2022_Mar_01_1210","MainTask",56,"Feedback",1,9,"9_1_V2.png","Accept",0.397853769016365,156,4,"red"
483.330591740625,0.511694221000149,"AU06EL20","2022_Mar_01_1210","MainTask",57,"Fixation",1,9,"9_1_V2.png","Accept",0.312467765987094,157,4,"red"
483.864383487318,0.312467765987094,"AU06EL20","2022_Mar_01_1210","MainTask",57,"Offer",1,9,"9_1_V2.png","Accept",0.312467765987094,157,4,"red"
484.176851253305,0,"AU06EL20","2022_Mar_01_1210","MainTask",57,"Response",1,9,"9_1_V2.png","Accept",0.312467765987094,157,4,"red"
484.214681148733,1,"AU06EL20","2022_Mar_01_1210","MainTask",57,"Feedback",1,9,"9_1_V2.png","Accept",0.312467765987094,157,4,"red"
485.215544028451,0.61842835822321,"AU06EL20","2022_Mar_01_1210","MainTask",58,"Fixation",5,5,"5_5_V2.png","Accept",0.493737266835524,162,4,"red"
485.866099328599,0.493737266835524,"AU06EL20","2022_Mar_01_1210","MainTask",58,"Offer",5,5,"5_5_V2.png","Accept",0.493737266835524,162,4,"red"
486.359836595435,0,"AU06EL20","2022_Mar_01_1210","MainTask",58,"Response",5,5,"5_5_V2.png","Accept",0.493737266835524,162,4,"red"
486.399892533846,1,"AU06EL20","2022_Mar_01_1210","MainTask",58,"Feedback",5,5,"5_5_V2.png","Accept",0.493737266835524,162,4,"red"
487.400754830142,0.689974268891684,"AU06EL20","2022_Mar_01_1210","MainTask",59,"Fixation",1,9,"9_1_V2.png","Accept",0.298781000077724,163,4,"red"
488.118037745007,0.298781000077724,"AU06EL20","2022_Mar_01_1210","MainTask",59,"Offer",1,9,"9_1_V2.png","Accept",0.298781000077724,163,4,"red"
488.416818745085,0,"AU06EL20","2022_Mar_01_1210","MainTask",59,"Response",1,9,"9_1_V2.png","Accept",0.298781000077724,163,4,"red"
488.451654815439,1,"AU06EL20","2022_Mar_01_1210","MainTask",59,"Feedback",1,9,"9_1_V2.png","Accept",0.298781000077724,163,4,"red"
489.452519445422,0.564711512447385,"AU06EL20","2022_Mar_01_1210","MainTask",60,"Fixation",5,5,"5_5_V2.png","Accept",0.385422525185277,168,4,"red"
490.03635208993,0.385422525185277,"AU06EL20","2022_Mar_01_1210","MainTask",60,"Offer",5,5,"5_5_V2.png","Accept",0.385422525185277,168,4,"red"
490.421774615115,0,"AU06EL20","2022_Mar_01_1210","MainTask",60,"Response",5,5,"5_5_V2.png","Accept",0.385422525185277,168,4,"red"
490.453376490932,1,"AU06EL20","2022_Mar_01_1210","MainTask",60,"Feedback",5,5,"5_5_V2.png","Accept",0.385422525185277,168,4,"red"
491.454234994995,0.502285330724831,"AU06EL20","2022_Mar_01_1210","MainTask",61,"Fixation",5,5,"5_5_V2.png","Accept",0.284730471146759,173,4,"red"
491.988027616819,0.284730471146759,"AU06EL20","2022_Mar_01_1210","MainTask",61,"Offer",5,5,"5_5_V2.png","Accept",0.284730471146759,173,4,"red"
492.272758087966,0,"AU06EL20","2022_Mar_01_1210","MainTask",61,"Response",5,5,"5_5_V2.png","Accept",0.284730471146759,173,4,"red"
492.304964971401,1,"AU06EL20","2022_Mar_01_1210","MainTask",61,"Feedback",5,5,"5_5_V2.png","Accept",0.284730471146759,173,4,"red"
493.305825517436,0.553025980962224,"AU06EL20","2022_Mar_01_1210","MainTask",62,"Fixation",3,7,"7_3_V2.png","Accept",0.292062906788487,176,4,"red"
493.889659620498,0.292062906788487,"AU06EL20","2022_Mar_01_1210","MainTask",62,"Offer",3,7,"7_3_V2.png","Accept",0.292062906788487,176,4,"red"
494.181722527286,0,"AU06EL20","2022_Mar_01_1210","MainTask",62,"Response",3,7,"7_3_V2.png","Accept",0.292062906788487,176,4,"red"
494.223278732901,1,"AU06EL20","2022_Mar_01_1210","MainTask",62,"Feedback",3,7,"7_3_V2.png","Accept",0.292062906788487,176,4,"red"
495.224139278936,0.684589441939829,"AU06EL20","2022_Mar_01_1210","MainTask",63,"Fixation",1,9,"9_1_V2.png","Accept",0.341956199081324,177,4,"red"
495.924741311112,0.341956199081324,"AU06EL20","2022_Mar_01_1210","MainTask",63,"Offer",1,9,"9_1_V2.png","Accept",0.341956199081324,177,4,"red"
496.266697510193,0,"AU06EL20","2022_Mar_01_1210","MainTask",63,"Response",1,9,"9_1_V2.png","Accept",0.341956199081324,177,4,"red"
496.308403071595,1,"AU06EL20","2022_Mar_01_1210","MainTask",63,"Feedback",1,9,"9_1_V2.png","Accept",0.341956199081324,177,4,"red"
497.309267993289,0.679923238797157,"AU06EL20","2022_Mar_01_1210","MainTask",64,"Fixation",3,7,"7_3_V2.png","Accept",0.354880725401017,180,4,"red"
498.009864774671,0.354880725401017,"AU06EL20","2022_Mar_01_1210","MainTask",64,"Offer",3,7,"7_3_V2.png","Accept",0.354880725401017,180,4,"red"
498.364745500072,0,"AU06EL20","2022_Mar_01_1210","MainTask",64,"Response",3,7,"7_3_V2.png","Accept",0.354880725401017,180,4,"red"
498.393530035682,1,"AU06EL20","2022_Mar_01_1210","MainTask",64,"Feedback",3,7,"7_3_V2.png","Accept",0.354880725401017,180,4,"red"
499.394387664612,0.568583832645475,"AU06EL20","2022_Mar_01_1210","MainTask",65,"Fixation",5,5,"5_5_V2.png","Accept",0.42177198972422,185,4,"red"
499.994901483522,0.42177198972422,"AU06EL20","2022_Mar_01_1210","MainTask",65,"Offer",5,5,"5_5_V2.png","Accept",0.42177198972422,185,4,"red"
500.416673473246,0,"AU06EL20","2022_Mar_01_1210","MainTask",65,"Response",5,5,"5_5_V2.png","Accept",0.42177198972422,185,4,"red"
500.461974075104,1,"AU06EL20","2022_Mar_01_1210","MainTask",65,"Feedback",5,5,"5_5_V2.png","Accept",0.42177198972422,185,4,"red"
501.462831412322,0.621593208014503,"AU06EL20","2022_Mar_01_1210","MainTask",66,"Fixation",3,7,"7_3_V2.png","Accept",0.330229436160153,188,4,"red"
502.113387879312,0.330229436160153,"AU06EL20","2022_Mar_01_1210","MainTask",66,"Offer",3,7,"7_3_V2.png","Accept",0.330229436160153,188,4,"red"
502.443617315472,0,"AU06EL20","2022_Mar_01_1210","MainTask",66,"Response",3,7,"7_3_V2.png","Accept",0.330229436160153,188,4,"red"
502.480369048815,1,"AU06EL20","2022_Mar_01_1210","MainTask",66,"Feedback",3,7,"7_3_V2.png","Accept",0.330229436160153,188,4,"red"
503.481229886558,0.601129130770942,"AU06EL20","2022_Mar_01_1210","MainTask",67,"Fixation",1,9,"9_1_V2.png","Reject",1.93714513415034,188,4,"red"
504.098427505269,1.93714513415034,"AU06EL20","2022_Mar_01_1210","MainTask",67,"Offer",1,9,"9_1_V2.png","Reject",1.93714513415034,188,4,"red"
506.035572639419,0,"AU06EL20","2022_Mar_01_1210","MainTask",67,"Response",1,9,"9_1_V2.png","Reject",1.93714513415034,188,4,"red"
506.06678595682,1,"AU06EL20","2022_Mar_01_1210","MainTask",67,"Feedback",1,9,"9_1_V2.png","Reject",1.93714513415034,188,4,"red"
507.067643294042,0.609923515088891,"AU06EL20","2022_Mar_01_1210","MainTask",68,"Fixation",3,7,"7_3_V2.png","Accept",0.57205249855906,191,4,"red"
507.70152121202,0.57205249855906,"AU06EL20","2022_Mar_01_1210","MainTask",68,"Offer",3,7,"7_3_V2.png","Accept",0.57205249855906,191,4,"red"
508.273573710579,0,"AU06EL20","2022_Mar_01_1210","MainTask",68,"Response",3,7,"7_3_V2.png","Accept",0.57205249855906,191,4,"red"
508.318719122442,1,"AU06EL20","2022_Mar_01_1210","MainTask",68,"Feedback",3,7,"7_3_V2.png","Accept",0.57205249855906,191,4,"red"
509.319578793344,0.523384722437073,"AU06EL20","2022_Mar_01_1210","MainTask",69,"Fixation",3,7,"7_3_V2.png","Accept",0.462469107857032,194,4,"red"
509.87005113102,0.462469107857032,"AU06EL20","2022_Mar_01_1210","MainTask",69,"Offer",3,7,"7_3_V2.png","Accept",0.462469107857032,194,4,"red"
510.332520238877,0,"AU06EL20","2022_Mar_01_1210","MainTask",69,"Response",3,7,"7_3_V2.png","Accept",0.462469107857032,194,4,"red"
510.370478778645,1,"AU06EL20","2022_Mar_01_1210","MainTask",69,"Feedback",3,7,"7_3_V2.png","Accept",0.462469107857032,194,4,"red"
511.371339908099,0.664703412779252,"AU06EL20","2022_Mar_01_1210","MainTask",70,"Fixation",3,7,"7_3_V2.png","Accept",0.368241650659911,197,4,"red"
512.055261640999,0.368241650659911,"AU06EL20","2022_Mar_01_1210","MainTask",70,"Offer",3,7,"7_3_V2.png","Accept",0.368241650659911,197,4,"red"
512.423503291659,0,"AU06EL20","2022_Mar_01_1210","MainTask",70,"Response",3,7,"7_3_V2.png","Accept",0.368241650659911,197,4,"red"
512.455604575887,1,"AU06EL20","2022_Mar_01_1210","MainTask",70,"Feedback",3,7,"7_3_V2.png","Accept",0.368241650659911,197,4,"red"
513.456473289818,0.540945084108701,"AU06EL20","2022_Mar_01_1210","MainTask",71,"Fixation",5,5,"5_5_V2.png","Accept",0.54284848322277,202,4,"red"
514.023618634001,0.54284848322277,"AU06EL20","2022_Mar_01_1210","MainTask",71,"Offer",5,5,"5_5_V2.png","Accept",0.54284848322277,202,4,"red"
514.566467117224,0,"AU06EL20","2022_Mar_01_1210","MainTask",71,"Response",5,5,"5_5_V2.png","Accept",0.54284848322277,202,4,"red"
514.607453320481,1,"AU06EL20","2022_Mar_01_1210","MainTask",71,"Feedback",5,5,"5_5_V2.png","Accept",0.54284848322277,202,4,"red"
515.608313866516,0.529469169314311,"AU06EL20","2022_Mar_01_1210","MainTask",72,"Fixation",3,7,"7_3_V2.png","Accept",0.459655268175993,205,4,"red"
516.158786204192,0.459655268175993,"AU06EL20","2022_Mar_01_1210","MainTask",72,"Offer",3,7,"7_3_V2.png","Accept",0.459655268175993,205,4,"red"
516.618441472368,0,"AU06EL20","2022_Mar_01_1210","MainTask",72,"Response",3,7,"7_3_V2.png","Accept",0.459655268175993,205,4,"red"
516.659215310367,1,"AU06EL20","2022_Mar_01_1210","MainTask",72,"Feedback",3,7,"7_3_V2.png","Accept",0.459655268175993,205,4,"red"
517.660074981271,0.629094742344003,"AU06EL20","2022_Mar_01_1210","MainTask",73,"Fixation",3,7,"7_3_V2.png","Accept",0.363779646540934,208,4,"red"
518.310636699051,0.363779646540934,"AU06EL20","2022_Mar_01_1210","MainTask",73,"Offer",3,7,"7_3_V2.png","Accept",0.363779646540934,208,4,"red"
518.674416345592,0,"AU06EL20","2022_Mar_01_1210","MainTask",73,"Response",3,7,"7_3_V2.png","Accept",0.363779646540934,208,4,"red"
518.710977008544,1,"AU06EL20","2022_Mar_01_1210","MainTask",73,"Feedback",3,7,"7_3_V2.png","Accept",0.363779646540934,208,4,"red"
519.711834929185,0.513857984647028,"AU06EL20","2022_Mar_01_1210","MainTask",74,"Fixation",5,5,"5_5_V2.png","Accept",0.390764911659062,213,4,"red"
520.245629301273,0.390764911659062,"AU06EL20","2022_Mar_01_1210","MainTask",74,"Offer",5,5,"5_5_V2.png","Accept",0.390764911659062,213,4,"red"
520.636394212932,0,"AU06EL20","2022_Mar_01_1210","MainTask",74,"Response",5,5,"5_5_V2.png","Accept",0.390764911659062,213,4,"red"
520.679335168388,1,"AU06EL20","2022_Mar_01_1210","MainTask",74,"Feedback",5,5,"5_5_V2.png","Accept",0.390764911659062,213,4,"red"
