InstructionText,Offertype,OfferSelf,OfferOther,ConditionTrigger,ProposerLoop.thisRepN,ProposerLoop.thisTrialN,ProposerLoop.thisN,ProposerLoop.thisIndex,InstrReceiverLoop.thisRepN,InstrReceiverLoop.thisTrialN,InstrReceiverLoop.thisN,InstrReceiverLoop.thisIndex,PracticeLoop.thisRepN,PracticeLoop.thisTrialN,PracticeLoop.thisN,PracticeLoop.thisIndex,trials.thisRepN,trials.thisTrialN,trials.thisN,trials.thisIndex,response_accept,response_reject,color_subject,color_other,OfferProposers.started,OfferProposers.stopped,proposer_resp.keys,proposer_resp.rt,proposer_resp.started,proposer_resp.stopped,example.started,example.stopped,fixduration,fixationcross.started,fixationcross.stopped,Presented_Offer,offerSlide_pract.started,offerSlide_pract.stopped,choiceprac.keys,choiceprac.rt,choiceprac.started,choiceprac.stopped,FB_tooSlow_pract.started,FB_tooSlow_pract.stopped,feedback_slide_pract.started,feedback_slide_pract.stopped,MoneyWon,offerSlide.started,offerSlide.stopped,choice.keys,choice.rt,choice.started,choice.stopped,Square.started,Square.stopped,tooSlowSlide.started,tooSlowSlide.stopped,feedback_slide.started,feedback_slide.stopped,Square2.started,Square2.stopped,break_slide.started,break_slide.stopped,break_response.keys,break_response.started,break_response.stopped,break_response.rt,FeedbackMoney.started,FeedbackMoney.stopped,Amount.started,Amount.stopped,participant,session,EEGPort,LogFilesFolder,date,expName,psychopyVersion,frameRate,
"







Bitte Teilen Sie nun den Betrag von 10 Credits auf, wie Sie ihn aufteilen würden, wenn der/die Empfänger/in darüber entscheiden kann, ob die Aufteilung zugeteilt wird.
Dabei haben Sie nur eine Aufteilung des Betrages, bis der/die Empfänger/in endgültig darüber entscheidet.
Dieses Angebot wird jedem/r Empfänger/in nur einmal vorgelegt.

Se können drei verschiedene Angebote machen:
(1) Sie bieten 1, und behalten 9 Credits.
(2) Sie bieten 5, und behalten 5 Credits.
(3) Sie bieten 3, und behalten 7 Credits.

Sie wählen Ihr Angebot mit der entsprechenden Taste (1, 2, 3) auf der Tastatur.




Weiter mit Taste 1.






",,,,,0,0,0,0,,,,,,,,,,,,,4,2,rot,blau,127.62470828948062,None,1,48.88141996513514,127.75815155878445,None,,,,,,,,,,,,,,,,,,,,,,,,,,,,,,,,,,,,,,,,,,AU06EL20,1,0xC010,G:\Experimente\CoScience\Tasks\Logfiles\,2022_Mar_01_1210,UltimatumGame,2020.1.3,59.95977093874615,
"Bitte wählen Sie Ihr erstes von drei Angeboten mit der Taste 1, 2 oder 3.",,,,,0,1,1,1,,,,,,,,,,,,,,,,,176.68350633711816,None,2,10.748453350821364,176.86699604673777,None,,,,,,,,,,,,,,,,,,,,,,,,,,,,,,,,,,,,,,,,,,AU06EL20,1,0xC010,G:\Experimente\CoScience\Tasks\Logfiles\,2022_Mar_01_1210,UltimatumGame,2020.1.3,59.95977093874615,
"Bitte wählen Sie Ihr zweites von drei Angeboten mit der Taste 1, 2 oder 3.",,,,,0,2,2,2,,,,,,,,,,,,,,,,,187.65960241022913,None,2,16.028136646542407,187.8430903695844,None,,,,,,,,,,,,,,,,,,,,,,,,,,,,,,,,,,,,,,,,,,AU06EL20,1,0xC010,G:\Experimente\CoScience\Tasks\Logfiles\,2022_Mar_01_1210,UltimatumGame,2020.1.3,59.95977093874615,
"Bitte wählen Sie Ihr drittes und letzes Angebot mit der Taste 1, 2 oder 3.",,,,,0,3,3,3,,,,,,,,,,,,,,,,,203.90689037751872,None,3,4.980775984990032,204.0903754197716,None,,,,,,,,,,,,,,,,,,,,,,,,,,,,,,,,,,,,,,,,,,AU06EL20,1,0xC010,G:\Experimente\CoScience\Tasks\Logfiles\,2022_Mar_01_1210,UltimatumGame,2020.1.3,59.95977093874615,
,Offer3,3,7,3,,,,,,,,,0,0,0,2,,,,,,,,,,,,,,,322.9090989178694,None,0.6484974747756033,328.2804108217606,None,7_3_V2.png,329.03104295845696,None,4,2.1537740340281744,329.03104295845696,None,None,None,331.2162336321235,None,,,,,,,,,,,,,,,,,,,,,,,,,,AU06EL20,1,0xC010,G:\Experimente\CoScience\Tasks\Logfiles\,2022_Mar_01_1210,UltimatumGame,2020.1.3,59.95977093874615,
,Offer2,5,5,2,,,,,,,,,0,1,1,1,,,,,,,,,,,,,,,,,0.5854456618543532,332.2170924278944,None,5_5_V2.png,332.81761820693646,None,4,1.0241696751727432,332.81761820693646,None,None,None,333.868510607761,None,,,,,,,,,,,,,,,,,,,,,,,,,,AU06EL20,1,0xC010,G:\Experimente\CoScience\Tasks\Logfiles\,2022_Mar_01_1210,UltimatumGame,2020.1.3,59.95977093874615,
,Offer1,1,9,1,,,,,,,,,0,2,2,0,,,,,,,,,,,,,,,,,0.5625870674225745,334.8693694035319,None,9_1_V2.png,335.4365296249525,None,2,0.9122365562288905,335.4365296249525,None,None,None,336.3706578889032,None,,,,,,,,,,,,,,,,,,,,,,,,,,AU06EL20,1,0xC010,G:\Experimente\CoScience\Tasks\Logfiles\,2022_Mar_01_1210,UltimatumGame,2020.1.3,59.95977093874615,
,Offer3,3,7,3,,,,,,,,,1,0,3,2,,,,,,,,,,,,,,,,,0.6781821370476273,337.3715146427021,None,7_3_V2.png,338.0554404595496,None,4,0.7743009449077363,338.0554404595496,None,None,None,338.85614470708606,None,,,,,,,,,,,,,,,,,,,,,,,,,,AU06EL20,1,0xC010,G:\Experimente\CoScience\Tasks\Logfiles\,2022_Mar_01_1210,UltimatumGame,2020.1.3,59.95977093874615,
,Offer2,5,5,2,,,,,,,,,1,1,4,1,,,,,,,,,,,,,,,,,0.6324377047885812,339.8569868753584,None,5_5_V2.png,340.4908639182104,None,4,0.5188427493631025,340.4908639182104,None,None,None,341.0246556648999,None,,,,,,,,,,,,,,,,,,,,,,,,,,AU06EL20,1,0xC010,G:\Experimente\CoScience\Tasks\Logfiles\,2022_Mar_01_1210,UltimatumGame,2020.1.3,59.95977093874615,
,Offer1,1,9,1,,,,,,,,,1,2,5,0,,,,,,,,,,,,,,,,,0.6860610441382521,342.0255153358048,None,9_1_V2.png,342.72612116021264,None,2,2.5515262877852365,342.72612116021264,None,None,None,345.294990513572,None,,,,,,,,,,,,,,,,,,,,,,,,,,AU06EL20,1,0xC010,G:\Experimente\CoScience\Tasks\Logfiles\,2022_Mar_01_1210,UltimatumGame,2020.1.3,59.95977093874615,
,Offer3,3,7,3,,,,,,,,,,,,,0,0,0,2,,,,,,,,,,,,,0.5677148530107793,350.8163988569613,None,7_3_V2.png,,,,,,,,,,,0,351.3835544110116,None,2,0.8230329376201553,351.3835544110116,None,351.3835544110116,None,None,None,352.2509635198476,None,352.2509635198476,None,None,None,None,None,None,,,,,,AU06EL20,1,0xC010,G:\Experimente\CoScience\Tasks\Logfiles\,2022_Mar_01_1210,UltimatumGame,2020.1.3,59.95977093874615,
,Offer3,3,7,3,,,,,,,,,,,,,0,1,1,2,,,,,,,,,,,,,0.6433646532297604,353.2518231907525,None,7_3_V2.png,,,,,,,,,,,3,353.90238490853153,None,4,0.5171449941335595,353.90238490853153,None,353.90238490853153,None,None,None,354.4528616218631,None,354.4528616218631,None,None,None,None,None,None,,,,,,AU06EL20,1,0xC010,G:\Experimente\CoScience\Tasks\Logfiles\,2022_Mar_01_1210,UltimatumGame,2020.1.3,59.95977093874615,
,Offer1,1,9,1,,,,,,,,,,,,,0,2,2,0,,,,,,,,,,,,,0.5084159597092153,355.45371662539765,None,9_1_V2.png,,,,,,,,,,,3,355.97082807281913,None,2,0.6466743833807413,355.97082807281913,None,355.97082807281913,None,None,None,356.6547428046688,None,356.6547428046688,None,None,None,None,None,None,,,,,,AU06EL20,1,0xC010,G:\Experimente\CoScience\Tasks\Logfiles\,2022_Mar_01_1210,UltimatumGame,2020.1.3,59.95977093874615,
,Offer3,3,7,3,,,,,,,,,,,,,1,0,3,2,,,,,,,,,,,,,0.6694538173693958,357.65560860149344,None,7_3_V2.png,,,,,,,,,,,6,358.33952829242116,None,4,0.5179498234538187,358.33952829242116,None,358.33952829242116,None,None,None,358.889999463252,None,358.889999463252,None,None,None,None,None,None,,,,,,AU06EL20,1,0xC010,G:\Experimente\CoScience\Tasks\Logfiles\,2022_Mar_01_1210,UltimatumGame,2020.1.3,59.95977093874615,
,Offer2,5,5,2,,,,,,,,,,,,,1,1,4,1,,,,,,,,,,,,,0.5206758423747392,359.89086059270994,None,5_5_V2.png,,,,,,,,,,,11,360.42465292282213,None,4,0.2707989601112786,360.42465292282213,None,360.42465292282213,None,None,None,360.72490764444956,None,360.72490764444956,None,None,None,None,None,None,,,,,,AU06EL20,1,0xC010,G:\Experimente\CoScience\Tasks\Logfiles\,2022_Mar_01_1210,UltimatumGame,2020.1.3,59.95977093874615,
,Offer3,3,7,3,,,,,,,,,,,,,1,2,5,2,,,,,,,,,,,,,0.5779547790368487,361.72577023245685,None,7_3_V2.png,,,,,,,,,,,14,362.3096090028848,None,4,0.28581855139054824,362.3096090028848,None,362.3096090028848,None,None,None,362.62654023154755,None,362.62654023154755,None,None,None,None,None,None,,,,,,AU06EL20,1,0xC010,G:\Experimente\CoScience\Tasks\Logfiles\,2022_Mar_01_1210,UltimatumGame,2020.1.3,59.95977093874615,
,Offer1,1,9,1,,,,,,,,,,,,,2,0,6,0,,,,,,,,,,,,,0.5598605291407173,363.6274255729768,None,9_1_V2.png,,,,,,,,,,,15,364.1945577901861,None,4,0.3068654654416605,364.1945577901861,None,364.1945577901861,None,None,None,364.5448589521293,None,364.5448589521293,None,None,None,None,None,None,,,,,,AU06EL20,1,0xC010,G:\Experimente\CoScience\Tasks\Logfiles\,2022_Mar_01_1210,UltimatumGame,2020.1.3,59.95977093874615,
,Offer2,5,5,2,,,,,,,,,,,,,2,1,7,1,,,,,,,,,,,,,0.6519768448886972,365.5457192064532,None,5_5_V2.png,,,,,,,,,,,20,366.21295859810925,None,4,0.33742039219941944,366.21295859810925,None,366.21295859810925,None,None,None,366.5799368505068,None,366.5799368505068,None,None,None,None,None,None,,,,,,AU06EL20,1,0xC010,G:\Experimente\CoScience\Tasks\Logfiles\,2022_Mar_01_1210,UltimatumGame,2020.1.3,59.95977093874615,
,Offer1,1,9,1,,,,,,,,,,,,,2,2,8,0,,,,,,,,,,,,,0.5969296115393615,367.5807994385141,None,9_1_V2.png,,,,,,,,,,,20,368.18131559111134,None,2,0.5520286133032641,368.18131559111134,None,368.18131559111134,None,None,None,368.76514561022486,None,368.76514561022486,None,None,None,None,None,None,,,,,,AU06EL20,1,0xC010,G:\Experimente\CoScience\Tasks\Logfiles\,2022_Mar_01_1210,UltimatumGame,2020.1.3,59.95977093874615,
,Offer2,5,5,2,,,,,,,,,,,,,3,0,9,1,,,,,,,,,,,,,0.6025941698985257,369.7660111153382,None,5_5_V2.png,,,,,,,,,,,25,370.38320523352013,None,4,0.6041097344968875,370.38320523352013,None,370.38320523352013,None,None,None,371.0003993517021,None,371.0003993517021,None,None,None,None,None,None,,,,,,AU06EL20,1,0xC010,G:\Experimente\CoScience\Tasks\Logfiles\,2022_Mar_01_1210,UltimatumGame,2020.1.3,59.95977093874615,
,Offer3,3,7,3,,,,,,,,,,,,,3,1,10,2,,,,,,,,,,,,,0.590750063430382,372.00126048116,None,7_3_V2.png,,,,,,,,,,,28,372.60177809230663,None,4,1.1184957305267744,372.60177809230663,None,372.60177809230663,None,None,None,373.75276279034006,None,373.75276279034006,None,None,None,None,None,None,,,,,,AU06EL20,1,0xC010,G:\Experimente\CoScience\Tasks\Logfiles\,2022_Mar_01_1210,UltimatumGame,2020.1.3,59.95977093874615,
,Offer1,1,9,1,,,,,,,,,,,,,3,2,11,0,,,,,,,,,,,,,0.5011290681721137,374.753627420323,None,9_1_V2.png,,,,,,,,,,,28,375.254096782548,None,2,0.6731573229844798,375.254096782548,None,375.254096782548,None,None,None,375.95465359959053,None,375.95465359959053,None,None,None,None,None,None,,,,,,AU06EL20,1,0xC010,G:\Experimente\CoScience\Tasks\Logfiles\,2022_Mar_01_1210,UltimatumGame,2020.1.3,59.95977093874615,
,Offer1,1,9,1,,,,,,,,,,,,,4,0,12,0,,,,,,,,,,,,,0.6917088346682694,376.9555182295735,None,9_1_V2.png,,,,,,,,,,,28,377.6561363058245,None,2,1.3690698168284143,377.6561363058245,None,377.6561363058245,None,None,None,379.04063965116075,None,379.04063965116075,None,None,None,None,None,None,,,,,,AU06EL20,1,0xC010,G:\Experimente\CoScience\Tasks\Logfiles\,2022_Mar_01_1210,UltimatumGame,2020.1.3,59.95977093874615,
,Offer2,5,5,2,,,,,,,,,,,,,4,1,13,1,,,,,,,,,,,,,0.6649231416917482,380.0415028225907,None,5_5_V2.png,,,,,,,,,,,33,380.70874133911275,None,4,0.3624602398558636,380.70874133911275,None,380.70874133911275,None,None,None,381.1090845657127,None,381.1090845657127,None,None,None,None,None,None,,,,,,AU06EL20,1,0xC010,G:\Experimente\CoScience\Tasks\Logfiles\,2022_Mar_01_1210,UltimatumGame,2020.1.3,59.95977093874615,
,Offer1,1,9,1,,,,,,,,,,,,,4,2,14,0,,,,,,,,,,,,,0.6948649880389824,382.10994511174795,None,9_1_V2.png,,,,,,,,,,,33,382.8105474356307,None,2,0.8696016051108018,382.8105474356307,None,382.8105474356307,None,None,None,383.71131685129876,None,383.71131685129876,None,None,None,None,None,None,,,,,,AU06EL20,1,0xC010,G:\Experimente\CoScience\Tasks\Logfiles\,2022_Mar_01_1210,UltimatumGame,2020.1.3,59.95977093874615,
,Offer3,3,7,3,,,,,,,,,,,,,5,0,15,2,,,,,,,,,,,,,0.5742449063380226,384.712179731021,None,7_3_V2.png,,,,,,,,,,,36,385.29601529263164,None,4,0.633104593387543,385.29601529263164,None,385.29601529263164,None,None,None,385.9632508920513,None,385.9632508920513,None,None,None,None,None,None,,,,,,AU06EL20,1,0xC010,G:\Experimente\CoScience\Tasks\Logfiles\,2022_Mar_01_1210,UltimatumGame,2020.1.3,59.95977093874615,
,Offer3,3,7,3,,,,,,,,,,,,,5,1,16,2,,,,,,,,,,,,,0.6840304628276409,386.9641131883509,None,7_3_V2.png,,,,,,,,,,,39,387.648035796381,None,4,0.8160546385443013,387.648035796381,None,387.648035796381,None,None,None,388.48208168127894,None,388.48208168127894,None,None,None,None,None,None,,,,,,AU06EL20,1,0xC010,G:\Experimente\CoScience\Tasks\Logfiles\,2022_Mar_01_1210,UltimatumGame,2020.1.3,59.95977093874615,
,Offer3,3,7,3,,,,,,,,,,,,,5,2,17,2,,,,,,,,,,,,,0.5797015303874253,389.4829410604725,None,7_3_V2.png,,,,,,,,,,,42,390.0667812894535,None,4,0.5012873185260105,390.0667812894535,None,390.0667812894535,None,None,None,390.5838869026629,None,390.5838869026629,None,None,None,None,None,None,,,,,,AU06EL20,1,0xC010,G:\Experimente\CoScience\Tasks\Logfiles\,2022_Mar_01_1210,UltimatumGame,2020.1.3,59.95977093874615,
,Offer2,5,5,2,,,,,,,,,,,,,6,0,18,1,,,,,,,,,,,,,0.6158300322848899,391.58474686527916,None,5_5_V2.png,,,,,,,,,,,47,392.2019476928035,None,4,0.30709299964655656,392.2019476928035,None,392.2019476928035,None,None,None,392.5355630129743,None,392.5355630129743,None,None,None,None,None,None,,,,,,AU06EL20,1,0xC010,G:\Experimente\CoScience\Tasks\Logfiles\,2022_Mar_01_1210,UltimatumGame,2020.1.3,59.95977093874615,
,Offer1,1,9,1,,,,,,,,,,,,,6,1,19,0,,,,,,,,,,,,,0.6508837073348739,393.5364223921679,None,9_1_V2.png,,,,,,,,,,,48,394.1870024877062,None,4,0.9580190638662316,394.1870024877062,None,394.1870024877062,None,None,None,395.18783823834747,None,395.18783823834747,None,None,None,None,None,None,,,,,,AU06EL20,1,0xC010,G:\Experimente\CoScience\Tasks\Logfiles\,2022_Mar_01_1210,UltimatumGame,2020.1.3,59.95977093874615,
,Offer3,3,7,3,,,,,,,,,,,,,6,2,20,2,,,,,,,,,,,,,0.6461552206391843,396.1887049103061,None,7_3_V2.png,,,,,,,,,,,51,396.8392657529512,None,4,0.5097130852009286,396.8392657529512,None,396.8392657529512,None,None,None,397.3897310895736,None,397.3897310895736,None,None,None,None,None,None,,,,,,AU06EL20,1,0xC010,G:\Experimente\CoScience\Tasks\Logfiles\,2022_Mar_01_1210,UltimatumGame,2020.1.3,59.95977093874615,
,Offer3,3,7,3,,,,,,,,,,,,,7,0,21,2,,,,,,,,,,,,,0.5282358143686909,398.39059280245056,None,7_3_V2.png,,,,,,,,,,,54,398.9243845491437,None,4,0.2365690642145637,398.9243845491437,None,398.9243845491437,None,None,None,399.17460041492814,None,399.17460041492814,None,None,None,None,None,None,,,,,,AU06EL20,1,0xC010,G:\Experimente\CoScience\Tasks\Logfiles\,2022_Mar_01_1210,UltimatumGame,2020.1.3,59.95977093874615,
,Offer1,1,9,1,,,,,,,,,,,,,7,1,22,0,,,,,,,,,,,,,0.5714727708237953,400.1754516262263,None,9_1_V2.png,,,,,,,,,,,55,400.75930760757547,None,4,0.22762872018211056,400.75930760757547,None,400.75930760757547,None,None,None,401.0261906456617,None,401.0261906456617,None,None,None,None,None,None,,,,,,AU06EL20,1,0xC010,G:\Experimente\CoScience\Tasks\Logfiles\,2022_Mar_01_1210,UltimatumGame,2020.1.3,59.95977093874615,
,Offer2,5,5,2,,,,,,,,,,,,,7,2,23,1,,,,,,,,,,,,,0.5953152899990055,402.0270520668273,None,5_5_V2.png,,,,,,,,,,,60,402.6275667608679,None,4,0.3413412733025325,402.6275667608679,None,402.6275667608679,None,None,None,403.01122531253714,None,403.01122531253714,None,None,None,None,None,None,,,,,,AU06EL20,1,0xC010,G:\Experimente\CoScience\Tasks\Logfiles\,2022_Mar_01_1210,UltimatumGame,2020.1.3,59.95977093874615,
,Offer1,1,9,1,,,,,,,,,,,,,8,0,24,0,,,,,,,,,,,,,0.6477550726968144,404.01209169278445,None,9_1_V2.png,,,,,,,,,,,61,404.6626481597741,None,4,1.4172049698136107,404.6626481597741,None,404.6626481597741,None,None,None,406.09721019726567,None,406.09721019726567,None,407.0980704515896,None,space,408.0822483646698,None,2.834298797915835,,,,,AU06EL20,1,0xC010,G:\Experimente\CoScience\Tasks\Logfiles\,2022_Mar_01_1210,UltimatumGame,2020.1.3,59.95977093874615,
,Offer2,5,5,2,,,,,,,,,,,,,8,1,25,1,,,,,,,,,,,,,0.5577543025939558,410.93470059999163,None,5_5_V2.png,,,,,,,,,,,66,411.5018786157525,None,4,0.600903835875215,411.5018786157525,None,411.5018786157525,None,None,None,412.13573086320685,None,412.13573086320685,None,None,None,None,None,None,,,,,,AU06EL20,1,0xC010,G:\Experimente\CoScience\Tasks\Logfiles\,2022_Mar_01_1210,UltimatumGame,2020.1.3,59.95977093874615,
,Offer2,5,5,2,,,,,,,,,,,,,8,2,26,1,,,,,,,,,,,,,0.5772354319686699,413.1365940346368,None,5_5_V2.png,,,,,,,,,,,71,413.72043251335344,None,4,0.468327238530037,413.72043251335344,None,413.72043251335344,None,None,None,414.2041757777588,None,414.2041757777588,None,None,None,None,None,None,,,,,,AU06EL20,1,0xC010,G:\Experimente\CoScience\Tasks\Logfiles\,2022_Mar_01_1210,UltimatumGame,2020.1.3,59.95977093874615,
,Offer2,5,5,2,,,,,,,,,,,,,9,0,27,1,,,,,,,,,,,,,0.6715571691051113,415.2050465336615,None,5_5_V2.png,,,,,,,,,,,76,415.88895834840514,None,4,1.1537611987660057,415.88895834840514,None,415.88895834840514,None,None,None,417.0566256793936,None,417.0566256793936,None,None,None,None,None,None,,,,,,AU06EL20,1,0xC010,G:\Experimente\CoScience\Tasks\Logfiles\,2022_Mar_01_1210,UltimatumGame,2020.1.3,59.95977093874615,
,Offer3,3,7,3,,,,,,,,,,,,,9,1,28,2,,,,,,,,,,,,,0.673298444260862,418.0574879756932,None,7_3_V2.png,,,,,,,,,,,79,418.7414073749096,None,4,0.7602880466365605,418.7414073749096,None,418.7414073749096,None,None,None,419.54209091099983,None,419.54209091099983,None,None,None,None,None,None,,,,,,AU06EL20,1,0xC010,G:\Experimente\CoScience\Tasks\Logfiles\,2022_Mar_01_1210,UltimatumGame,2020.1.3,59.95977093874615,
,Offer1,1,9,1,,,,,,,,,,,,,9,2,29,0,,,,,,,,,,,,,0.662876736764159,420.54295612440546,None,9_1_V2.png,,,,,,,,,,,80,421.21019639119186,None,4,0.9434580415254459,421.21019639119186,None,421.21019639119186,None,None,None,422.19437197058505,None,422.19437197058505,None,None,None,None,None,None,,,,,,AU06EL20,1,0xC010,G:\Experimente\CoScience\Tasks\Logfiles\,2022_Mar_01_1210,UltimatumGame,2020.1.3,59.95977093874615,
,Offer2,5,5,2,,,,,,,,,,,,,10,0,30,1,,,,,,,,,,,,,0.566825377131817,423.1952333917543,None,5_5_V2.png,,,,,,,,,,,85,423.7623869038325,None,4,0.4612407148561033,423.7623869038325,None,423.7623869038325,None,None,None,424.2461319184986,None,424.2461319184986,None,None,None,None,None,None,,,,,,AU06EL20,1,0xC010,G:\Experimente\CoScience\Tasks\Logfiles\,2022_Mar_01_1210,UltimatumGame,2020.1.3,59.95977093874615,
,Offer3,3,7,3,,,,,,,,,,,,,10,1,31,2,,,,,,,,,,,,,0.5724299698878207,425.2469942147982,None,7_3_V2.png,,,,,,,,,,,88,425.8308309432505,None,4,0.4007889602726209,425.8308309432505,None,425.8308309432505,None,None,None,426.26453185128776,None,426.26453185128776,None,None,None,None,None,None,,,,,,AU06EL20,1,0xC010,G:\Experimente\CoScience\Tasks\Logfiles\,2022_Mar_01_1210,UltimatumGame,2020.1.3,59.95977093874615,
,Offer2,5,5,2,,,,,,,,,,,,,10,2,32,1,,,,,,,,,,,,,0.6246199621540351,427.265391813904,None,5_5_V2.png,,,,,,,,,,,93,427.8992741075417,None,4,0.3433097358974919,427.8992741075417,None,427.8992741075417,None,None,None,428.2829349928943,None,428.2829349928943,None,None,None,None,None,None,,,,,,AU06EL20,1,0xC010,G:\Experimente\CoScience\Tasks\Logfiles\,2022_Mar_01_1210,UltimatumGame,2020.1.3,59.95977093874615,
,Offer2,5,5,2,,,,,,,,,,,,,11,0,33,1,,,,,,,,,,,,,0.6337454694752576,429.2838142084038,None,5_5_V2.png,,,,,,,,,,,98,429.91767841598994,None,4,0.43687442678856314,429.91767841598994,None,429.91767841598994,None,None,None,430.3680572896119,None,430.3680572896119,None,None,None,None,None,None,,,,,,AU06EL20,1,0xC010,G:\Experimente\CoScience\Tasks\Logfiles\,2022_Mar_01_1210,UltimatumGame,2020.1.3,59.95977093874615,
,Offer1,1,9,1,,,,,,,,,,,,,11,1,34,0,,,,,,,,,,,,,0.5907638611833,431.36891637709414,None,9_1_V2.png,,,,,,,,,,,99,431.9694380721885,None,4,0.4120886589953443,431.9694380721885,None,431.9694380721885,None,None,None,432.4198198629201,None,432.4198198629201,None,None,None,None,None,None,,,,,,AU06EL20,1,0xC010,G:\Experimente\CoScience\Tasks\Logfiles\,2022_Mar_01_1210,UltimatumGame,2020.1.3,59.95977093874615,
,Offer1,1,9,1,,,,,,,,,,,,,11,2,35,0,,,,,,,,,,,,,0.660379677328701,433.4206818675084,None,9_1_V2.png,,,,,,,,,,,100,434.0879221342948,None,4,0.4645784666281543,434.0879221342948,None,434.0879221342948,None,None,None,434.5716691909365,None,434.5716691909365,None,None,None,None,None,None,,,,,,AU06EL20,1,0xC010,G:\Experimente\CoScience\Tasks\Logfiles\,2022_Mar_01_1210,UltimatumGame,2020.1.3,59.95977093874615,
,Offer2,5,5,2,,,,,,,,,,,,,12,0,36,1,,,,,,,,,,,,,0.5254260006305304,435.5725306121021,None,5_5_V2.png,,,,,,,,,,,105,436.1063238173483,None,4,0.4681487116868084,436.1063238173483,None,436.1063238173483,None,None,None,436.6067473810217,None,436.6067473810217,None,None,None,None,None,None,,,,,,AU06EL20,1,0xC010,G:\Experimente\CoScience\Tasks\Logfiles\,2022_Mar_01_1210,UltimatumGame,2020.1.3,59.95977093874615,
,Offer3,3,7,3,,,,,,,,,,,,,12,1,37,2,,,,,,,,,,,,,0.6751479893918347,437.60760909389865,None,7_3_V2.png,,,,,,,,,,,108,438.29153257706275,None,4,0.5538976026073215,438.29153257706275,None,438.29153257706275,None,None,None,438.875366680124,None,438.875366680124,None,None,None,None,None,None,,,,,,AU06EL20,1,0xC010,G:\Experimente\CoScience\Tasks\Logfiles\,2022_Mar_01_1210,UltimatumGame,2020.1.3,59.95977093874615,
,Offer2,5,5,2,,,,,,,,,,,,,12,2,38,1,,,,,,,,,,,,,0.5531952289986143,439.8762248924759,None,5_5_V2.png,,,,,,,,,,,113,440.4433851138965,None,4,0.7110455605179595,440.4433851138965,None,440.4433851138965,None,None,None,441.19402045941024,None,441.19402045941024,None,None,None,None,None,None,,,,,,AU06EL20,1,0xC010,G:\Experimente\CoScience\Tasks\Logfiles\,2022_Mar_01_1210,UltimatumGame,2020.1.3,59.95977093874615,
,Offer1,1,9,1,,,,,,,,,,,,,13,0,39,0,,,,,,,,,,,,,0.5196013961917303,442.19488713136525,None,9_1_V2.png,,,,,,,,,,,113,442.7286800449001,None,2,1.001696880099189,442.7286800449001,None,442.7286800449001,None,None,None,443.76289798066136,None,443.76289798066136,None,None,None,None,None,None,,,,,,AU06EL20,1,0xC010,G:\Experimente\CoScience\Tasks\Logfiles\,2022_Mar_01_1210,UltimatumGame,2020.1.3,59.95977093874615,
,Offer1,1,9,1,,,,,,,,,,,,,13,1,40,0,,,,,,,,,,,,,0.6133270587748433,444.76375765156627,None,9_1_V2.png,,,,,,,,,,,113,445.38095497856557,None,2,0.3623995640700741,445.38095497856557,None,445.38095497856557,None,None,None,445.76462490694394,None,445.76462490694394,None,None,None,None,None,None,,,,,,AU06EL20,1,0xC010,G:\Experimente\CoScience\Tasks\Logfiles\,2022_Mar_01_1210,UltimatumGame,2020.1.3,59.95977093874615,
,Offer2,5,5,2,,,,,,,,,,,,,13,2,41,1,,,,,,,,,,,,,0.5601523258257547,446.76547582653075,None,5_5_V2.png,,,,,,,,,,,118,447.332631672296,None,4,0.6236954705527751,447.332631672296,None,447.332631672296,None,None,None,447.9998675634233,None,447.9998675634233,None,None,None,None,None,None,,,,,,AU06EL20,1,0xC010,G:\Experimente\CoScience\Tasks\Logfiles\,2022_Mar_01_1210,UltimatumGame,2020.1.3,59.95977093874615,
,Offer2,5,5,2,,,,,,,,,,,,,14,0,42,1,,,,,,,,,,,,,0.6200230341245055,449.00072927630026,None,5_5_V2.png,,,,,,,,,,,123,449.6346025269122,None,4,0.2526980306029145,449.6346025269122,None,449.6346025269122,None,None,None,449.90150306762735,None,449.90150306762735,None,None,None,None,None,None,,,,,,AU06EL20,1,0xC010,G:\Experimente\CoScience\Tasks\Logfiles\,2022_Mar_01_1210,UltimatumGame,2020.1.3,59.95977093874615,
,Offer1,1,9,1,,,,,,,,,,,,,14,1,43,0,,,,,,,,,,,,,0.5489427954895869,450.90236157169056,None,9_1_V2.png,,,,,,,,,,,123,451.45283945186384,None,2,0.8204294212227978,451.45283945186384,None,451.45283945186384,None,None,None,452.30356417748044,None,452.30356417748044,None,None,None,None,None,None,,,,,,AU06EL20,1,0xC010,G:\Experimente\CoScience\Tasks\Logfiles\,2022_Mar_01_1210,UltimatumGame,2020.1.3,59.95977093874615,
,Offer1,1,9,1,,,,,,,,,,,,,14,2,44,0,,,,,,,,,,,,,0.6200661142080438,453.3044273489104,None,9_1_V2.png,,,,,,,,,,,124,453.9383067254457,None,4,0.3319344841511338,453.9383067254457,None,453.9383067254457,None,None,None,454.30528351929024,None,454.30528351929024,None,None,None,None,None,None,,,,,,AU06EL20,1,0xC010,G:\Experimente\CoScience\Tasks\Logfiles\,2022_Mar_01_1210,UltimatumGame,2020.1.3,59.95977093874615,
,Offer2,5,5,2,,,,,,,,,,,,,15,0,45,1,,,,,,,,,,,,,0.6195652984041581,455.3061347305884,None,5_5_V2.png,,,,,,,,,,,129,455.94002519212154,None,4,0.38121693461289397,455.94002519212154,None,455.94002519212154,None,None,None,456.3570455091758,None,456.3570455091758,None,None,None,None,None,None,,,,,,AU06EL20,1,0xC010,G:\Experimente\CoScience\Tasks\Logfiles\,2022_Mar_01_1210,UltimatumGame,2020.1.3,59.95977093874615,
,Offer3,3,7,3,,,,,,,,,,,,,15,1,46,2,,,,,,,,,,,,,0.6255842059050767,457.3579092640248,None,7_3_V2.png,,,,,,,,,,,132,457.99178689029577,None,4,0.6953783718854538,457.99178689029577,None,457.99178689029577,None,None,None,458.72575331324697,None,458.72575331324697,None,None,None,None,None,None,,,,,,AU06EL20,1,0xC010,G:\Experimente\CoScience\Tasks\Logfiles\,2022_Mar_01_1210,UltimatumGame,2020.1.3,59.95977093874615,
,Offer1,1,9,1,,,,,,,,,,,,,15,2,47,0,,,,,,,,,,,,,0.6847845607291855,459.7266150261239,None,9_1_V2.png,,,,,,,,,,,133,460.4105312165266,None,4,0.2596314062575402,460.4105312165266,None,460.4105312165266,None,None,None,460.6941047637483,None,460.6941047637483,None,None,None,None,None,None,,,,,,AU06EL20,1,0xC010,G:\Experimente\CoScience\Tasks\Logfiles\,2022_Mar_01_1210,UltimatumGame,2020.1.3,59.95977093874615,
,Offer2,5,5,2,,,,,,,,,,,,,16,0,48,1,,,,,,,,,,,,,0.6182937527385141,461.69496443465323,None,5_5_V2.png,,,,,,,,,,,138,462.3288464365796,None,4,0.24330203473800793,462.3288464365796,None,462.3288464365796,None,None,None,462.6124211506467,None,462.6124211506467,None,None,None,None,None,None,,,,,,AU06EL20,1,0xC010,G:\Experimente\CoScience\Tasks\Logfiles\,2022_Mar_01_1210,UltimatumGame,2020.1.3,59.95977093874615,
,Offer1,1,9,1,,,,,,,,,,,,,16,1,49,0,,,,,,,,,,,,,0.6191408954326928,463.6132825718123,None,9_1_V2.png,,,,,,,,,,,139,464.24715961466063,None,4,0.2579424023424508,464.24715961466063,None,464.24715961466063,None,None,None,464.54741433628806,None,464.54741433628806,None,465.5482748823233,None,space,466.5324533788262,None,1.7353853029235324,,,,,AU06EL20,1,0xC010,G:\Experimente\CoScience\Tasks\Logfiles\,2022_Mar_01_1210,UltimatumGame,2020.1.3,59.95977093874615,
,Offer3,3,7,3,,,,,,,,,,,,,16,2,50,2,,,,,,,,,,,,,0.5562612029665966,468.300640946356,None,7_3_V2.png,,,,,,,,,,,142,468.86780816882674,None,4,0.8352354804010247,468.86780816882674,None,468.86780816882674,None,None,None,469.7355848329207,None,469.7355848329207,None,None,None,None,None,None,,,,,,AU06EL20,1,0xC010,G:\Experimente\CoScience\Tasks\Logfiles\,2022_Mar_01_1210,UltimatumGame,2020.1.3,59.95977093874615,
,Offer2,5,5,2,,,,,,,,,,,,,17,0,51,1,,,,,,,,,,,,,0.6510529296477975,470.7364421701386,None,5_5_V2.png,,,,,,,,,,,147,471.403680978372,None,4,0.9813226505029888,471.403680978372,None,471.403680978372,None,None,None,472.42122211539026,None,472.42122211539026,None,None,None,None,None,None,,,,,,AU06EL20,1,0xC010,G:\Experimente\CoScience\Tasks\Logfiles\,2022_Mar_01_1210,UltimatumGame,2020.1.3,59.95977093874615,
,Offer3,3,7,3,,,,,,,,,,,,,17,1,52,2,,,,,,,,,,,,,0.647645138029319,473.42208178629517,None,7_3_V2.png,,,,,,,,,,,150,474.08932176137023,None,4,0.30966326104316977,474.08932176137023,None,474.08932176137023,None,None,None,474.43962321502477,None,474.43962321502477,None,None,None,None,None,None,,,,,,AU06EL20,1,0xC010,G:\Experimente\CoScience\Tasks\Logfiles\,2022_Mar_01_1210,UltimatumGame,2020.1.3,59.95977093874615,
,Offer1,1,9,1,,,,,,,,,,,,,17,2,53,0,,,,,,,,,,,,,0.6658009666181874,475.4404811356653,None,9_1_V2.png,,,,,,,,,,,151,476.1244034519841,None,4,0.2495525160593388,476.1244034519841,None,476.1244034519841,None,None,None,476.4079784577625,None,476.4079784577625,None,None,None,None,None,None,,,,,,AU06EL20,1,0xC010,G:\Experimente\CoScience\Tasks\Logfiles\,2022_Mar_01_1210,UltimatumGame,2020.1.3,59.95977093874615,
,Offer1,1,9,1,,,,,,,,,,,,,18,0,54,0,,,,,,,,,,,,,0.5351431573163353,477.4088395872168,None,9_1_V2.png,,,,,,,,,,,152,477.975992515876,None,4,0.2659510229714215,477.975992515876,None,477.975992515876,None,None,None,478.27624811263377,None,478.27624811263377,None,None,None,None,None,None,,,,,,AU06EL20,1,0xC010,G:\Experimente\CoScience\Tasks\Logfiles\,2022_Mar_01_1210,UltimatumGame,2020.1.3,59.95977093874615,
,Offer3,3,7,3,,,,,,,,,,,,,18,1,55,2,,,,,,,,,,,,,0.6290903544812666,479.27711070064106,None,7_3_V2.png,,,,,,,,,,,155,479.92766920960275,None,4,0.3862366892499267,479.92766920960275,None,479.92766920960275,None,None,None,480.34469361060474,None,480.34469361060474,None,None,None,None,None,None,,,,,,AU06EL20,1,0xC010,G:\Experimente\CoScience\Tasks\Logfiles\,2022_Mar_01_1210,UltimatumGame,2020.1.3,59.95977093874615,
,Offer1,1,9,1,,,,,,,,,,,,,18,2,56,0,,,,,,,,,,,,,0.5244718409466848,481.34555328150964,None,9_1_V2.png,,,,,,,,,,,156,481.89602766115786,None,4,0.3978537690163648,481.89602766115786,None,481.89602766115786,None,None,None,482.3297332365619,None,482.3297332365619,None,None,None,None,None,None,,,,,,AU06EL20,1,0xC010,G:\Experimente\CoScience\Tasks\Logfiles\,2022_Mar_01_1210,UltimatumGame,2020.1.3,59.95977093874615,
,Offer1,1,9,1,,,,,,,,,,,,,19,0,57,0,,,,,,,,,,,,,0.5116942210001489,483.3305917406251,None,9_1_V2.png,,,,,,,,,,,157,483.86438348731826,None,4,0.312467765987094,483.86438348731826,None,483.86438348731826,None,None,None,484.2146811487328,None,484.2146811487328,None,None,None,None,None,None,,,,,,AU06EL20,1,0xC010,G:\Experimente\CoScience\Tasks\Logfiles\,2022_Mar_01_1210,UltimatumGame,2020.1.3,59.95977093874615,
,Offer2,5,5,2,,,,,,,,,,,,,19,1,58,1,,,,,,,,,,,,,0.6184283582232104,485.2155440284514,None,5_5_V2.png,,,,,,,,,,,162,485.8660993285994,None,4,0.49373726683552377,485.8660993285994,None,485.8660993285994,None,None,None,486.39989253384556,None,486.39989253384556,None,None,None,None,None,None,,,,,,AU06EL20,1,0xC010,G:\Experimente\CoScience\Tasks\Logfiles\,2022_Mar_01_1210,UltimatumGame,2020.1.3,59.95977093874615,
,Offer1,1,9,1,,,,,,,,,,,,,19,2,59,0,,,,,,,,,,,,,0.6899742688916845,487.4007548301415,None,9_1_V2.png,,,,,,,,,,,163,488.1180377450073,None,4,0.29878100007772446,488.1180377450073,None,488.1180377450073,None,None,None,488.4516548154388,None,488.4516548154388,None,None,None,None,None,None,,,,,,AU06EL20,1,0xC010,G:\Experimente\CoScience\Tasks\Logfiles\,2022_Mar_01_1210,UltimatumGame,2020.1.3,59.95977093874615,
,Offer2,5,5,2,,,,,,,,,,,,,20,0,60,1,,,,,,,,,,,,,0.5647115124473849,489.4525194454218,None,5_5_V2.png,,,,,,,,,,,168,490.03635208993,None,4,0.38542252518527675,490.03635208993,None,490.03635208993,None,None,None,490.453376490932,None,490.453376490932,None,None,None,None,None,None,,,,,,AU06EL20,1,0xC010,G:\Experimente\CoScience\Tasks\Logfiles\,2022_Mar_01_1210,UltimatumGame,2020.1.3,59.95977093874615,
,Offer2,5,5,2,,,,,,,,,,,,,20,1,61,1,,,,,,,,,,,,,0.5022853307248314,491.4542349949952,None,5_5_V2.png,,,,,,,,,,,173,491.9880276168187,None,4,0.28473047114675865,491.9880276168187,None,491.9880276168187,None,None,None,492.3049649714012,None,492.3049649714012,None,None,None,None,None,None,,,,,,AU06EL20,1,0xC010,G:\Experimente\CoScience\Tasks\Logfiles\,2022_Mar_01_1210,UltimatumGame,2020.1.3,59.95977093874615,
,Offer3,3,7,3,,,,,,,,,,,,,20,2,62,2,,,,,,,,,,,,,0.5530259809622242,493.30582551743646,None,7_3_V2.png,,,,,,,,,,,176,493.8896596204977,None,4,0.29206290678848745,493.8896596204977,None,493.8896596204977,None,None,None,494.22327873290124,None,494.22327873290124,None,None,None,None,None,None,,,,,,AU06EL20,1,0xC010,G:\Experimente\CoScience\Tasks\Logfiles\,2022_Mar_01_1210,UltimatumGame,2020.1.3,59.95977093874615,
,Offer1,1,9,1,,,,,,,,,,,,,21,0,63,0,,,,,,,,,,,,,0.6845894419398292,495.2241392789365,None,9_1_V2.png,,,,,,,,,,,177,495.9247413111116,None,4,0.3419561990813236,495.9247413111116,None,495.9247413111116,None,None,None,496.3084030715945,None,496.3084030715945,None,None,None,None,None,None,,,,,,AU06EL20,1,0xC010,G:\Experimente\CoScience\Tasks\Logfiles\,2022_Mar_01_1210,UltimatumGame,2020.1.3,59.95977093874615,
,Offer3,3,7,3,,,,,,,,,,,,,21,1,64,2,,,,,,,,,,,,,0.6799232387971567,497.3092679932888,None,7_3_V2.png,,,,,,,,,,,180,498.00986477467086,None,4,0.3548807254010171,498.00986477467086,None,498.00986477467086,None,None,None,498.3935300356825,None,498.3935300356825,None,None,None,None,None,None,,,,,,AU06EL20,1,0xC010,G:\Experimente\CoScience\Tasks\Logfiles\,2022_Mar_01_1210,UltimatumGame,2020.1.3,59.95977093874615,
,Offer2,5,5,2,,,,,,,,,,,,,21,2,65,1,,,,,,,,,,,,,0.5685838326454751,499.3943876646117,None,5_5_V2.png,,,,,,,,,,,185,499.99490148352197,None,4,0.4217719897242205,499.99490148352197,None,499.99490148352197,None,None,None,500.4619740751041,None,500.4619740751041,None,None,None,None,None,None,,,,,,AU06EL20,1,0xC010,G:\Experimente\CoScience\Tasks\Logfiles\,2022_Mar_01_1210,UltimatumGame,2020.1.3,59.95977093874615,
,Offer3,3,7,3,,,,,,,,,,,,,22,0,66,2,,,,,,,,,,,,,0.621593208014503,501.462831412322,None,7_3_V2.png,,,,,,,,,,,188,502.11338787931163,None,4,0.33022943616015255,502.11338787931163,None,502.11338787931163,None,None,None,502.4803690488152,None,502.4803690488152,None,None,None,None,None,None,,,,,,AU06EL20,1,0xC010,G:\Experimente\CoScience\Tasks\Logfiles\,2022_Mar_01_1210,UltimatumGame,2020.1.3,59.95977093874615,
,Offer1,1,9,1,,,,,,,,,,,,,22,1,67,0,,,,,,,,,,,,,0.601129130770942,503.48122988655814,None,9_1_V2.png,,,,,,,,,,,188,504.0984275052688,None,2,1.9371451341503416,504.0984275052688,None,504.0984275052688,None,None,None,506.06678595682024,None,506.06678595682024,None,None,None,None,None,None,,,,,,AU06EL20,1,0xC010,G:\Experimente\CoScience\Tasks\Logfiles\,2022_Mar_01_1210,UltimatumGame,2020.1.3,59.95977093874615,
,Offer3,3,7,3,,,,,,,,,,,,,22,2,68,2,,,,,,,,,,,,,0.6099235150888913,507.0676432940418,None,7_3_V2.png,,,,,,,,,,,191,507.70152121202045,None,4,0.57205249855906,507.70152121202045,None,507.70152121202045,None,None,None,508.3187191224424,None,508.3187191224424,None,None,None,None,None,None,,,,,,AU06EL20,1,0xC010,G:\Experimente\CoScience\Tasks\Logfiles\,2022_Mar_01_1210,UltimatumGame,2020.1.3,59.95977093874615,
,Offer3,3,7,3,,,,,,,,,,,,,23,0,69,2,,,,,,,,,,,,,0.5233847224370731,509.3195787933437,None,7_3_V2.png,,,,,,,,,,,194,509.87005113101986,None,4,0.4624691078570322,509.87005113101986,None,509.87005113101986,None,None,None,510.3704787786446,None,510.3704787786446,None,None,None,None,None,None,,,,,,AU06EL20,1,0xC010,G:\Experimente\CoScience\Tasks\Logfiles\,2022_Mar_01_1210,UltimatumGame,2020.1.3,59.95977093874615,
,Offer3,3,7,3,,,,,,,,,,,,,23,1,70,2,,,,,,,,,,,,,0.6647034127792516,511.3713399080989,None,7_3_V2.png,,,,,,,,,,,197,512.0552616409987,None,4,0.3682416506599111,512.0552616409987,None,512.0552616409987,None,None,None,512.4556045758873,None,512.4556045758873,None,None,None,None,None,None,,,,,,AU06EL20,1,0xC010,G:\Experimente\CoScience\Tasks\Logfiles\,2022_Mar_01_1210,UltimatumGame,2020.1.3,59.95977093874615,
,Offer2,5,5,2,,,,,,,,,,,,,23,2,71,1,,,,,,,,,,,,,0.540945084108701,513.456473289818,None,5_5_V2.png,,,,,,,,,,,202,514.0236186340007,None,4,0.5428484832227696,514.0236186340007,None,514.0236186340007,None,None,None,514.607453320481,None,514.607453320481,None,None,None,None,None,None,,,,,,AU06EL20,1,0xC010,G:\Experimente\CoScience\Tasks\Logfiles\,2022_Mar_01_1210,UltimatumGame,2020.1.3,59.95977093874615,
,Offer3,3,7,3,,,,,,,,,,,,,24,0,72,2,,,,,,,,,,,,,0.529469169314311,515.6083138665163,None,7_3_V2.png,,,,,,,,,,,205,516.1587862041924,None,4,0.4596552681759931,516.1587862041924,None,516.1587862041924,None,None,None,516.6592153103666,None,516.6592153103666,None,None,None,None,None,None,,,,,,AU06EL20,1,0xC010,G:\Experimente\CoScience\Tasks\Logfiles\,2022_Mar_01_1210,UltimatumGame,2020.1.3,59.95977093874615,
,Offer3,3,7,3,,,,,,,,,,,,,24,1,73,2,,,,,,,,,,,,,0.6290947423440028,517.6600749812715,None,7_3_V2.png,,,,,,,,,,,208,518.3106366990505,None,4,0.36377964654093375,518.3106366990505,None,518.3106366990505,None,None,None,518.7109770085444,None,518.7109770085444,None,None,None,None,None,None,,,,,,AU06EL20,1,0xC010,G:\Experimente\CoScience\Tasks\Logfiles\,2022_Mar_01_1210,UltimatumGame,2020.1.3,59.95977093874615,
,Offer2,5,5,2,,,,,,,,,,,,,24,2,74,1,,,,,,,,,,,,,0.5138579846470281,519.711834929185,None,5_5_V2.png,,,,,,,,,,,213,520.2456293012729,None,4,0.3907649116590619,520.2456293012729,None,520.2456293012729,None,None,None,520.6793351683882,None,520.6793351683882,None,None,None,None,None,None,,,,,,AU06EL20,1,0xC010,G:\Experimente\CoScience\Tasks\Logfiles\,2022_Mar_01_1210,UltimatumGame,2020.1.3,59.95977093874615,
,,,,,,,,,,,,,,,,,,,,,,,,,,,,,,,,,,,,,,,,,,,,,,,,,,,,,,,,,,,,,,,,,,,,521.6968748468535,531.7054703890499,521.6968748468535,531.7054703890499,,,,,,,,,
