Flanker,FlankerAndTarget,Congruency,Target,Item,Anchors,NASA_Item,NASA_Anchor,Practiceloop.thisRepN,Practiceloop.thisTrialN,Practiceloop.thisN,Practiceloop.thisIndex,Conditions.thisRepN,Conditions.thisTrialN,Conditions.thisN,Conditions.thisIndex,TrialLoop.thisRepN,TrialLoop.thisTrialN,TrialLoop.thisN,TrialLoop.thisIndex,NASAtrials.thisRepN,NASAtrials.thisTrialN,NASAtrials.thisN,NASAtrials.thisIndex,OrderExperimenter,ResponseMapping,ITI_jitter,IntTrInt.started,IntTrInt.stopped,CorrAns,PracFlankers.started,PracFlankers.stopped,PracTarget.started,PracTarget.stopped,PracResp.keys,PracResp.corr,PracResp.rt,PracFeedbackSlide.started,PracFeedbackSlide.stopped,cutoff,cond_marker,Experimenter_Resp.keys,Experimenter_Resp.rt,TargetTrigger,FlankerTrigger,ResponseTrigger,FlankerSlide.started,FlankerSlide.stopped,TargetSlide.started,TargetSlide.stopped,TargetResponse.keys,TargetResponse.corr,TargetResponse.rt,TargetResponse.started,TargetResponse.stopped,FeedbackSlide.started,FeedbackSlide.stopped,showReminder,ReminderErrors.started,ReminderErrors.stopped,key_resp_3.keys,key_resp_3.started,key_resp_3.stopped,break_slide.started,break_slide.stopped,break_resp.keys,break_resp.started,break_resp.stopped,text.started,text.stopped,break_resp.rt,ExperimenterPresence,SelfReport.started,SelfReport.stopped,anxious.response,anxious.rt,peppy.response,peppy.rt,peeved.response,peeved.rt,happy.response,happy.rt,tired.response,tired.rt,relaxed.response,relaxed.rt,sad.response,sad.rt,calm.response,calm.rt,exhausted.response,exhausted.rt,irritated.response,irritated.rt,ItemSlide.started,ItemSlide.stopped,rating.response,rating.rt,key_resp_3.rt,participant,session,EEGPort,LogFilesFolder,date,expName,psychopyVersion,frameRate,
SSS SSS,SSSHSSS,0,H,,,,,0,0,0,6,,,,,,,,,,,,,Present_First,S_red,0.8082820913775395,71.4576321765635,None,4,70.84044415468088,70.94050176702149,70.92382773472491,71.12401355275506,4,1,0.5087901846072782,None,None,,,,,,,,,,,,,,,,,,,,,,,,,,,,,,,,,,,,,,,,,,,,,,,,,,,,,,,,,,,,,AM04EN20b,1,0xC010,G:\Experimente\CoScience\Tasks\Logfiles\,2022_Feb_16_1204,Flanker,2020.1.3,59.948324706098035,
SSS SSS,SSSSSSS,30,S,,,,,0,1,1,4,,,,,,,,,,,,,,,0.9974842811666217,72.82546173738228,None,2,72.27499463986351,72.37507617226402,72.35839834776561,72.55856841356035,2,1,0.45124406191825983,None,None,,,,,,,,,,,,,,,,,,,,,,,,,,,,,,,,,,,,,,,,,,,,,,,,,,,,,,,,,,,,,AM04EN20b,1,0xC010,G:\Experimente\CoScience\Tasks\Logfiles\,2022_Feb_16_1204,Flanker,2020.1.3,59.948324706098035,
HHS SHH,HHSSSHH,10,S,,,,,0,2,2,1,,,,,,,,,,,,,,,0.9420629683363606,74.34342059779738,None,2,73.82631381660576,73.92639884950222,73.90971927475402,74.10988759030079,4,0,0.40985827364238503,None,None,,,,,,,,,,,,,,,,,,,,,,,,,,,,,,,,,,,,,,,,,,,,,,,,,,,,,,,,,,,,,AM04EN20b,1,0xC010,G:\Experimente\CoScience\Tasks\Logfiles\,2022_Feb_16_1204,Flanker,2020.1.3,59.948324706098035,
SSS SSS,SSSSSSS,30,S,,,,,0,3,3,3,,,,,,,,,,,,,,,0.998592579833542,75.8280165165088,None,2,75.29423016056899,75.39431431834237,75.37763182651543,75.57780393426583,4,0,0.4268855643895222,None,None,,,,,,,,,,,,,,,,,,,,,,,,,,,,,,,,,,,,,,,,,,,,,,,,,,,,,,,,,,,,,AM04EN20b,1,0xC010,G:\Experimente\CoScience\Tasks\Logfiles\,2022_Feb_16_1204,Flanker,2020.1.3,59.948324706098035,
SHH HHS,SHHHHHS,20,H,,,,,0,4,4,8,,,,,,,,,,,,,,,0.7546754293286901,77.36265553508565,None,4,76.82886859573046,76.92895392033643,76.91227113679997,77.11244324455038,4,1,0.42723940625728574,None,None,,,,,,,,,,,,,,,,,,,,,,,,,,,,,,,,,,,,,,,,,,,,,,,,,,,,,,,,,,,,,AM04EN20b,1,0xC010,G:\Experimente\CoScience\Tasks\Logfiles\,2022_Feb_16_1204,Flanker,2020.1.3,59.948324706098035,
SSS SSS,SSSSSSS,30,S,,,,,0,5,5,5,,,,,,,,,,,,,,,0.7549571661237227,78.63078365909678,None,2,78.12997956585059,78.2304362348059,78.21375636835,78.41392760097733,4,0,0.39471891741413856,None,None,,,,,,,,,,,,,,,,,,,,,,,,,,,,,,,,,,,,,,,,,,,,,,,,,,,,,,,,,,,,,AM04EN20b,1,0xC010,G:\Experimente\CoScience\Tasks\Logfiles\,2022_Feb_16_1204,Flanker,2020.1.3,59.948324706098035,
HHH HHH,HHHHHHH,30,H,,,,,0,6,6,11,,,,,,,,,,,,,,,0.7982110503722644,79.89852526993855,None,4,79.398100688868,79.49818192956081,79.48150352164521,79.68167271231505,4,1,0.385942588938633,None,None,,,,,,,,,,,,,,,,,,,,,,,,,,,,,,,,,,,,,,,,,,,,,,,,,,,,,,,,,,,,,AM04EN20b,1,0xC010,G:\Experimente\CoScience\Tasks\Logfiles\,2022_Feb_16_1204,Flanker,2020.1.3,59.948324706098035,
HHH HHH,HHHHHHH,30,H,,,,,0,7,7,10,,,,,,,,,,,,,,,0.7904266491135661,81.14959022311268,None,4,80.69920553311749,80.79929202455605,80.78262236788032,80.98278222389308,4,1,0.33979612524126424,None,None,,,,,,,,,,,,,,,,,,,,,,,,,,,,,,,,,,,,,,,,,,,,,,,,,,,,,,,,,,,,,AM04EN20b,1,0xC010,G:\Experimente\CoScience\Tasks\Logfiles\,2022_Feb_16_1204,Flanker,2020.1.3,59.948324706098035,
HSS SSH,HSSSSSH,20,S,,,,,0,8,8,2,,,,,,,,,,,,,,,0.7576076551537846,82.46737697577373,None,2,81.9502722365396,82.0503549357727,82.03368119518564,82.23384367657127,2,1,0.410710061156351,None,None,,,,,,,,,,,,,,,,,,,,,,,,,,,,,,,,,,,,,,,,,,,,,,,,,,,,,,,,,,,,,AM04EN20b,1,0xC010,G:\Experimente\CoScience\Tasks\Logfiles\,2022_Feb_16_1204,Flanker,2020.1.3,59.948324706098035,
HSS SSH,HSSSSSH,20,S,,,,,0,9,9,13,,,,,,,,,,,,,,,0.9874670899249117,83.6517399656077,None,2,83.23471559193968,83.33482571173045,83.3181009222335,83.51827798902195,2,1,0.307287888135761,None,None,,,,,,,,,,,,,,,,,,,,,,,,,,,,,,,,,,,,,,,,,,,,,,,,,,,,,,,,,,,,,AM04EN20b,1,0xC010,G:\Experimente\CoScience\Tasks\Logfiles\,2022_Feb_16_1204,Flanker,2020.1.3,59.948324706098035,
HHH HHH,HHHHHHH,30,H,,,,,0,10,10,9,,,,,,,,,,,,,,,0.7858453083656801,85.11963647342418,None,4,84.65257075014051,84.7526549079139,84.73597679170598,84.93614452383736,4,1,0.3553176190198428,None,None,,,,,,,,,,,,,,,,,,,,,,,,,,,,,,,,,,,,,,,,,,,,,,,,,,,,,,,,,,,,,AM04EN20b,1,0xC010,G:\Experimente\CoScience\Tasks\Logfiles\,2022_Feb_16_1204,Flanker,2020.1.3,59.948324706098035,
SSH HSS,SSHHHSS,10,H,,,,,0,11,11,7,,,,,,,,,,,,,,,0.9324107541069406,86.35401922647725,None,4,85.92031615318592,86.02040847878561,86.00371869425544,86.20387300781476,4,1,0.3206020270790759,None,None,,,,,,,,,,,,,,,,,,,,,,,,,,,,,,,,,,,,,,,,,,,,,,,,,,,,,,,,,,,,,AM04EN20b,1,0xC010,G:\Experimente\CoScience\Tasks\Logfiles\,2022_Feb_16_1204,Flanker,2020.1.3,59.948324706098035,
SSS SSS,SSSSSSS,30,S,,,,,0,12,12,14,,,,,,,,,,,,,,,0.7554733092527713,87.70516746229987,None,2,87.28814542229702,87.38822812153012,87.37154913019913,87.57172182136674,2,1,0.3127364111460338,None,None,,,,,,,,,,,,,,,,,,,,,,,,,,,,,,,,,,,,,,,,,,,,,,,,,,,,,,,,,,,,,AM04EN20b,1,0xC010,G:\Experimente\CoScience\Tasks\Logfiles\,2022_Feb_16_1204,Flanker,2020.1.3,59.948324706098035,
HHH HHH,HHHHHHH,30,H,,,,,0,13,13,12,,,,,,,,,,,,,,,0.87294541025655,88.95623416572198,None,4,88.47248303352899,88.57257244204811,88.55589257559222,88.75606234967927,4,1,0.3723662044540106,None,None,,,,,,,,,,,,,,,,,,,,,,,,,,,,,,,,,,,,,,,,,,,,,,,,,,,,,,,,,,,,,AM04EN20b,1,0xC010,G:\Experimente\CoScience\Tasks\Logfiles\,2022_Feb_16_1204,Flanker,2020.1.3,59.948324706098035,
HHH HHH,HHHSHHH,0,S,,,,,0,14,14,0,,,,,,,,,,,,,,,0.8450221179310649,90.27401916813506,None,2,89.84031872021842,89.94040083603431,89.92372155299381,90.12389453586911,2,1,0.32250425529127824,None,None,,,,,,,,,,,,,,,,,,,,,,,,,,,,,,,,,,,,,,,,,,,,,,,,,,,,,,,,,,,,,AM04EN20b,1,0xC010,G:\Experimente\CoScience\Tasks\Logfiles\,2022_Feb_16_1204,Flanker,2020.1.3,59.948324706098035,
SSS SSS,SSSSSSS,30,S,,,,,,,,,0,0,0,0,0,0,0,5,,,,,,,0.923396551635025,134.71182919910098,None,2,,,,,,,,,,0.4269563436508179,200,n,8.931796323602612,234,230,237,134.16141344219795,134.2614497598497,134.24476551777298,134.44493179136407,2,1,0.4205884626535408,134.24476551777298,None,None,None,False,None,None,None,None,None,None,None,None,None,None,None,None,,,,,,,,,,,,,,,,,,,,,,,,,,,,,,AM04EN20b,1,0xC010,G:\Experimente\CoScience\Tasks\Logfiles\,2022_Feb_16_1204,Flanker,2020.1.3,59.948324706098035,
HHH HHH,HHHHHHH,30,H,,,,,,,,,0,0,0,0,0,1,1,10,,,,,,,0.992528952590718,136.0129381272618,None,4,,,,,,,,,,,,,,234,230,237,135.64596531299503,135.74604684539554,135.7293637701514,135.92953266911354,4,1,0.2519768325455516,135.7293637701514,None,None,None,False,None,None,None,None,None,None,None,None,None,None,None,None,,,,,,,,,,,,,,,,,,,,,,,,,,,,,,AM04EN20b,1,0xC010,G:\Experimente\CoScience\Tasks\Logfiles\,2022_Feb_16_1204,Flanker,2020.1.3,59.948324706098035,
HHS SHH,HHSSSHH,10,S,,,,,,,,,0,0,0,0,0,2,2,1,,,,,,,0.9421170743895882,137.41412917124217,None,2,,,,,,,,,,,,,,214,210,217,137.013788747945,137.11387407254915,137.09719362267788,137.297364271888,2,1,0.29208493955047743,137.09719362267788,None,None,None,False,None,None,None,None,None,None,None,None,None,None,None,None,,,,,,,,,,,,,,,,,,,,,,,,,,,,,,AM04EN20b,1,0xC010,G:\Experimente\CoScience\Tasks\Logfiles\,2022_Feb_16_1204,Flanker,2020.1.3,59.948324706098035,
HHH HHH,HHHSHHH,0,S,,,,,,,,,0,0,0,0,0,3,3,0,,,,,,,0.8226785237776839,138.69855677440864,None,2,,,,,,,,,,,,,,204,200,209,138.36494019255588,138.46502376691205,138.44834360874847,138.64851338283552,4,0,0.223910142251043,138.44834360874847,None,None,None,False,None,None,None,None,None,None,None,None,None,None,None,None,,,,,,,,,,,,,,,,,,,,,,,,,,,,,,AM04EN20b,1,0xC010,G:\Experimente\CoScience\Tasks\Logfiles\,2022_Feb_16_1204,Flanker,2020.1.3,59.948324706098035,
SHH HHS,SHHHHHS,20,H,,,,,,,,,0,0,0,0,0,4,4,8,,,,,,,0.7833364843701113,139.94962026904068,None,4,,,,,,,,,,,,,,224,220,229,139.53259939587224,139.63268792926647,139.61600222864945,139.81620175695753,2,0,0.31022130431483674,139.61600222864945,None,None,None,False,None,None,None,None,None,None,None,None,None,None,None,None,,,,,,,,,,,,,,,,,,,,,,,,,,,,,,AM04EN20b,1,0xC010,G:\Experimente\CoScience\Tasks\Logfiles\,2022_Feb_16_1204,Flanker,2020.1.3,59.948324706098035,
SSS SSS,SSSSSSS,30,S,,,,,,,,,0,0,0,0,0,5,5,5,,,,,,,0.8832557279803824,142.50180406845175,None,2,,,,,,,,,,,,,,234,230,236,140.73362037405604,140.83370540695432,140.81702583220613,141.01719823166422,2,1,0.643166665937315,140.81702583220613,None,141.50094061261552,None,False,None,None,None,None,None,None,None,None,None,None,None,None,,,,,,,,,,,,,,,,,,,,,,,,,,,,,,AM04EN20b,1,0xC010,G:\Experimente\CoScience\Tasks\Logfiles\,2022_Feb_16_1204,Flanker,2020.1.3,59.948324706098035,
SSH HSS,SSHHHSS,10,H,,,,,,,,,0,0,0,0,0,6,6,7,,,,,,,0.8882854649797483,143.91966389398112,None,4,,,,,,,,,,,,,,214,210,217,143.38589037319616,143.4859611123993,143.46930166550555,143.66944956148836,4,1,0.42284511615071096,143.46930166550555,None,None,None,False,None,None,None,None,None,None,None,None,None,None,None,None,,,,,,,,,,,,,,,,,,,,,,,,,,,,,,AM04EN20b,1,0xC010,G:\Experimente\CoScience\Tasks\Logfiles\,2022_Feb_16_1204,Flanker,2020.1.3,59.948324706098035,
HHH HHH,HHHHHHH,30,H,,,,,,,,,0,0,0,0,0,7,7,11,,,,,,,0.8285786715836956,145.17072797203036,None,4,,,,,,,,,,,,,,234,230,237,144.82043123201402,144.9205153897874,144.90383377308171,145.10400442229366,4,1,0.24227899833203992,144.90383377308171,None,None,None,False,None,None,None,None,None,None,None,None,None,None,None,None,,,,,,,,,,,,,,,,,,,,,,,,,,,,,,AM04EN20b,1,0xC010,G:\Experimente\CoScience\Tasks\Logfiles\,2022_Feb_16_1204,Flanker,2020.1.3,59.948324706098035,
HHH HHH,HHHHHHH,30,H,,,,,,,,,0,0,0,0,0,8,8,10,,,,,,,0.9371977268494207,146.38843844303665,None,4,,,,,,,,,,,,,,234,230,237,146.00477176032655,146.1048570849307,146.08817663505943,146.2883449506062,4,1,0.2689498655963689,146.08817663505943,None,None,None,False,None,None,None,None,None,None,None,None,None,None,None,None,,,,,,,,,,,,,,,,,,,,,,,,,,,,,,AM04EN20b,1,0xC010,G:\Experimente\CoScience\Tasks\Logfiles\,2022_Feb_16_1204,Flanker,2020.1.3,59.948324706098035,
HHS SHH,HHSSSHH,10,S,,,,,,,,,0,0,0,0,0,9,9,1,,,,,,,0.7953059129547035,147.72290039482687,None,2,,,,,,,,,,,,,,214,210,217,147.33924071310867,147.43932428746666,147.42264412930126,147.6228136116806,2,1,0.28143438683764543,147.42264412930126,None,None,None,False,None,None,None,None,None,None,None,None,None,None,None,None,,,,,,,,,,,,,,,,,,,,,,,,,,,,,,AM04EN20b,1,0xC010,G:\Experimente\CoScience\Tasks\Logfiles\,2022_Feb_16_1204,Flanker,2020.1.3,59.948324706098035,
HHH HHH,HHHHHHH,30,H,,,,,,,,,0,0,0,0,0,10,10,11,,,,,,,0.8478067473285548,149.02400757273972,None,4,,,,,,,,,,,,,,234,230,237,148.52358182483658,148.62366685773486,148.60698611615408,148.80715413999314,4,1,0.39604414709538105,148.60698611615408,None,None,None,False,None,None,None,None,None,None,None,None,None,None,None,None,,,,,,,,,,,,,,,,,,,,,,,,,,,,,,AM04EN20b,1,0xC010,G:\Experimente\CoScience\Tasks\Logfiles\,2022_Feb_16_1204,Flanker,2020.1.3,59.948324706098035,
SSS SSS,SSSSSSS,30,S,,,,,,,,,0,0,0,0,0,11,11,3,,,,,,,0.7617052576527605,150.29175122553715,None,2,,,,,,,,,,,,,,234,230,239,149.8747300606592,149.97481567697287,149.9581352271016,150.15830529289633,4,0,0.30686520316703536,149.9581352271016,None,None,None,False,None,None,None,None,None,None,None,None,None,None,None,None,,,,,,,,,,,,,,,,,,,,,,,,,,,,,,AM04EN20b,1,0xC010,G:\Experimente\CoScience\Tasks\Logfiles\,2022_Feb_16_1204,Flanker,2020.1.3,59.948324706098035,
HHS SHH,HHSSSHH,10,S,,,,,,,,,0,0,0,0,1,0,12,1,,,,,,,0.9489004838351622,151.49277307884586,None,2,,,,,,,,,,,,,,214,210,219,151.05911113639195,151.15915795553337,151.14247546370643,151.34267265834933,4,0,0.3264986136564403,151.14247546370643,None,None,None,False,None,None,None,None,None,None,None,None,None,None,None,None,,,,,,,,,,,,,,,,,,,,,,,,,,,,,,AM04EN20b,1,0xC010,G:\Experimente\CoScience\Tasks\Logfiles\,2022_Feb_16_1204,Flanker,2020.1.3,59.948324706098035,
SSS SSS,SSSHSSS,0,H,,,,,,,,,0,0,0,0,1,1,13,6,,,,,,,0.9718367242169239,154.11166846796368,None,4,,,,,,,,,,,,,,204,200,206,152.44358293332698,152.54367730088234,152.52698926660196,152.7271572904392,4,1,0.5389638821670815,152.52698926660196,None,153.11081522190943,None,False,None,None,None,None,None,None,None,None,None,None,None,None,,,,,,,,,,,,,,,,,,,,,,,,,,,,,,AM04EN20b,1,0xC010,G:\Experimente\CoScience\Tasks\Logfiles\,2022_Feb_16_1204,Flanker,2020.1.3,59.948324706098035,
SSS SSS,SSSHSSS,0,H,,,,,,,,,0,0,0,0,1,2,14,6,,,,,,,0.9773908507218826,155.61294600338078,None,4,,,,,,,,,,,,,,204,200,207,155.09583805535658,155.19592513021053,155.17924322179715,155.3794132875919,4,1,0.4106473439242109,155.17924322179715,None,None,None,False,None,None,None,None,None,None,None,None,None,None,None,None,,,,,,,,,,,,,,,,,,,,,,,,,,,,,,AM04EN20b,1,0xC010,G:\Experimente\CoScience\Tasks\Logfiles\,2022_Feb_16_1204,Flanker,2020.1.3,59.948324706098035,
HHH HHH,HHHSHHH,0,S,,,,,,,,,0,0,0,0,1,3,15,0,,,,,,,0.7883812365736429,157.06417898039217,None,2,,,,,,,,,,,,,,204,200,209,156.59711734102166,156.69720237391994,156.68052163233915,156.88068907276102,4,0,0.3523305285598326,156.68052163233915,None,None,None,False,None,None,None,None,None,None,None,None,None,None,None,None,,,,,,,,,,,,,,,,,,,,,,,,,,,,,,AM04EN20b,1,0xC010,G:\Experimente\CoScience\Tasks\Logfiles\,2022_Feb_16_1204,Flanker,2020.1.3,59.948324706098035,
HHH HHH,HHHSHHH,0,S,,,,,,,,,0,0,0,0,1,4,16,0,,,,,,,0.7691707064876199,159.4328620789729,None,2,,,,,,,,,,,,,,204,200,206,157.86486216065168,157.96494427646758,157.9482649934289,158.14843505922363,2,1,0.4425599131882336,157.9482649934289,None,158.43201087487614,None,False,None,None,None,None,None,None,None,None,None,None,None,None,,,,,,,,,,,,,,,,,,,,,,,,,,,,,,AM04EN20b,1,0xC010,G:\Experimente\CoScience\Tasks\Logfiles\,2022_Feb_16_1204,Flanker,2020.1.3,59.948324706098035,
HHH HHH,HHHHHHH,30,H,,,,,,,,,0,0,0,0,1,5,17,9,,,,,,,0.9301886011639332,161.7681822358536,None,4,,,,,,,,,,,,,,234,230,236,160.21686247569596,160.31694605005396,160.30026705872115,160.5004362493928,4,1,0.4315108872742712,160.30026705872115,None,160.76732957321656,None,False,None,None,None,None,None,None,None,None,None,None,None,None,,,,,,,,,,,,,,,,,,,,,,,,,,,,,,AM04EN20b,1,0xC010,G:\Experimente\CoScience\Tasks\Logfiles\,2022_Feb_16_1204,Flanker,2020.1.3,59.948324706098035,
SSS SSS,SSSHSSS,0,H,,,,,,,,,0,0,0,0,1,6,18,6,,,,,,,0.9569977506724583,163.10265060522033,None,4,,,,,,,,,,,,,,204,200,207,162.70231018192317,162.80239433969655,162.78571534836374,162.9858845390354,4,1,0.29303999171679607,162.78571534836374,None,None,None,False,None,None,None,None,None,None,None,None,None,None,None,None,,,,,,,,,,,,,,,,,,,,,,,,,,,,,,AM04EN20b,1,0xC010,G:\Experimente\CoScience\Tasks\Logfiles\,2022_Feb_16_1204,Flanker,2020.1.3,59.948324706098035,
HHH HHH,HHHHHHH,30,H,,,,,,,,,0,0,0,0,1,7,19,10,,,,,,,0.9962543372410061,164.4204361910506,None,4,,,,,,,,,,,,,,234,230,237,164.07014120128224,164.17026473964324,164.15354490918253,164.35371468326957,4,1,0.250150740137542,164.15354490918253,None,None,None,False,None,None,None,None,None,None,None,None,None,None,None,None,,,,,,,,,,,,,,,,,,,,,,,,,,,,,,AM04EN20b,1,0xC010,G:\Experimente\CoScience\Tasks\Logfiles\,2022_Feb_16_1204,Flanker,2020.1.3,59.948324706098035,
SSS SSS,SSSHSSS,0,H,,,,,,,,,0,0,0,0,1,8,20,6,,,,,,,0.828218936436681,165.95507725158495,None,4,,,,,,,,,,,,,,204,200,207,165.42127164291378,165.52137476171083,165.50469314500515,165.7048637942171,4,1,0.42396848386306374,165.50469314500515,None,None,None,False,None,None,None,None,None,None,None,None,None,None,None,None,,,,,,,,,,,,,,,,,,,,,,,,,,,,,,AM04EN20b,1,0xC010,G:\Experimente\CoScience\Tasks\Logfiles\,2022_Feb_16_1204,Flanker,2020.1.3,59.948324706098035,
SSS SSS,SSSSSSS,30,S,,,,,,,,,0,0,0,0,1,9,21,4,,,,,,,0.9769411110734316,167.1727813050129,None,2,,,,,,,,,,,,,,234,230,237,166.78912016475624,166.88920403082193,166.87252474778143,167.07269423015896,2,1,0.27711856619680475,166.87252474778143,None,None,None,False,None,None,None,None,None,None,None,None,None,None,None,None,,,,,,,,,,,,,,,,,,,,,,,,,,,,,,AM04EN20b,1,0xC010,G:\Experimente\CoScience\Tasks\Logfiles\,2022_Feb_16_1204,Flanker,2020.1.3,59.948324706098035,
SSS SSS,SSSSSSS,30,S,,,,,,,,,0,0,0,0,1,10,22,5,,,,,,,0.8260925016186755,168.50724821583935,None,2,,,,,,,,,,,,,,234,230,237,168.15695118411531,168.25704817704172,168.24035314176763,168.44052466610265,2,1,0.24325972080623615,168.24035314176763,None,None,None,False,None,None,None,None,None,None,None,None,None,None,None,None,,,,,,,,,,,,,,,,,,,,,,,,,,,,,,AM04EN20b,1,0xC010,G:\Experimente\CoScience\Tasks\Logfiles\,2022_Feb_16_1204,Flanker,2020.1.3,59.948324706098035,
HSS SSH,HSSSSSH,20,S,,,,,,,,,0,0,0,0,1,11,23,2,,,,,,,0.9132109829572678,169.72496948004482,None,2,,,,,,,,,,,,,,224,220,227,169.34129083730295,169.4413767453243,169.42469658716072,169.62486548612287,2,1,0.27688257438239816,169.42469658716072,None,None,None,False,None,None,None,None,None,None,None,None,None,None,None,None,,,,,,,,,,,,,,,,,,,,,,,,,,,,,,AM04EN20b,1,0xC010,G:\Experimente\CoScience\Tasks\Logfiles\,2022_Feb_16_1204,Flanker,2020.1.3,59.948324706098035,
HHH HHH,HHHHHHH,30,H,,,,,,,,,0,0,0,0,2,0,24,11,,,,,,,0.9573198128803012,170.99269533865117,None,4,,,,,,,,,,,,,,234,230,237,170.64239889034252,170.74248567348695,170.7258028899505,170.92597208062216,4,1,0.24875754247659643,170.7258028899505,None,None,None,False,None,None,None,None,None,None,None,None,None,None,None,None,,,,,,,,,,,,,,,,,,,,,,,,,,,,,,AM04EN20b,1,0xC010,G:\Experimente\CoScience\Tasks\Logfiles\,2022_Feb_16_1204,Flanker,2020.1.3,59.948324706098035,
HHH HHH,HHHHHHH,30,H,,,,,,,,,0,0,0,0,2,1,25,11,,,,,,,0.7869524046256512,172.27712265010814,None,4,,,,,,,,,,,,,,234,230,237,171.96018768496106,172.0602735929824,172.04361531292125,172.2437611669484,4,1,0.20590679636006826,172.04361531292125,None,None,None,False,None,None,None,None,None,None,None,None,None,None,None,None,,,,,,,,,,,,,,,,,,,,,,,,,,,,,,AM04EN20b,1,0xC010,G:\Experimente\CoScience\Tasks\Logfiles\,2022_Feb_16_1204,Flanker,2020.1.3,59.948324706098035,
SSH HSS,SSHHHSS,10,H,,,,,,,,,0,0,0,0,2,2,26,7,,,,,,,0.7757407710564772,173.47814304487656,None,4,,,,,,,,,,,,,,214,210,219,173.07780408011968,173.17788794618536,173.16120778801996,173.36137697869162,2,0,0.28930204472635523,173.16120778801996,None,None,None,False,None,None,None,None,None,None,None,None,None,None,None,None,,,,,,,,,,,,,,,,,,,,,,,,,,,,,,AM04EN20b,1,0xC010,G:\Experimente\CoScience\Tasks\Logfiles\,2022_Feb_16_1204,Flanker,2020.1.3,59.948324706098035,
SSH HSS,SSHHHSS,10,H,,,,,,,,,0,0,0,0,2,3,27,7,,,,,,,0.8290466786575528,174.59576002345239,None,4,,,,,,,,,,,,,,214,210,217,174.26215277625852,174.3622284744979,174.34554744120942,174.54571750700416,4,1,0.22192623578484927,174.34554744120942,None,None,None,False,None,None,None,None,None,None,None,None,None,None,None,None,,,,,,,,,,,,,,,,,,,,,,,,,,,,,,AM04EN20b,1,0xC010,G:\Experimente\CoScience\Tasks\Logfiles\,2022_Feb_16_1204,Flanker,2020.1.3,59.948324706098035,
HHH HHH,HHHHHHH,30,H,,,,,,,,,0,0,0,0,2,4,28,9,,,,,,,0.8622244221736439,175.78010259372058,None,4,,,,,,,,,,,,,,234,230,237,175.42980439516396,175.52988913635454,175.51320810306606,175.7133778771513,4,1,0.24924527834082255,175.51320810306606,None,None,None,False,None,None,None,None,None,None,None,None,None,None,None,None,,,,,,,,,,,,,,,,,,,,,,,,,,,,,,AM04EN20b,1,0xC010,G:\Experimente\CoScience\Tasks\Logfiles\,2022_Feb_16_1204,Flanker,2020.1.3,59.948324706098035,
HSS SSH,HSSSSSH,20,S,,,,,,,,,0,0,0,0,2,5,29,2,,,,,,,0.8555602496246955,176.9978031466544,None,2,,,,,,,,,,,,,,224,220,227,176.64750669834575,176.7475926063671,176.73090982283065,176.9310795969177,2,1,0.2485218423698825,176.73090982283065,None,None,None,False,None,None,None,None,None,None,None,None,None,None,None,None,,,,,,,,,,,,,,,,,,,,,,,,,,,,,,AM04EN20b,1,0xC010,G:\Experimente\CoScience\Tasks\Logfiles\,2022_Feb_16_1204,Flanker,2020.1.3,59.948324706098035,
HHH HHH,HHHSHHH,0,S,,,,,,,,,0,0,0,0,2,6,30,0,,,,,,,0.8412308632481816,178.2655494248247,None,2,,,,,,,,,,,,,,204,200,207,177.86521016835832,177.965294034424,177.94861241772014,178.14877752447683,2,1,0.29780300079983135,177.94861241772014,None,None,None,False,None,None,None,None,None,None,None,None,None,None,None,None,,,,,,,,,,,,,,,,,,,,,,,,,,,,,,AM04EN20b,1,0xC010,G:\Experimente\CoScience\Tasks\Logfiles\,2022_Feb_16_1204,Flanker,2020.1.3,59.948324706098035,
SSS SSS,SSSSSSS,30,S,,,,,,,,,0,0,0,0,2,7,31,5,,,,,,,0.9186417669707979,179.4665718615488,None,2,,,,,,,,,,,,,,234,230,237,179.11627395469986,179.21637503153943,179.19967853772505,179.3998395605704,2,1,0.24868753254304465,179.19967853772505,None,None,None,False,None,None,None,None,None,None,None,None,None,None,None,None,,,,,,,,,,,,,,,,,,,,,,,,,,,,,,AM04EN20b,1,0xC010,G:\Experimente\CoScience\Tasks\Logfiles\,2022_Feb_16_1204,Flanker,2020.1.3,59.948324706098035,
SSS SSS,SSSSSSS,30,S,,,,,,,,,0,0,0,0,2,8,32,4,,,,,,,0.7904114824379024,180.71763623130573,None,2,,,,,,,,,,,,,,234,230,237,180.40070039103375,180.50078396539175,180.48410322381096,180.6843292975518,2,1,0.20727344858823926,180.48410322381096,None,None,None,False,None,None,None,None,None,None,None,None,None,None,None,None,,,,,,,,,,,,,,,,,,,,,,,,,,,,,,AM04EN20b,1,0xC010,G:\Experimente\CoScience\Tasks\Logfiles\,2022_Feb_16_1204,Flanker,2020.1.3,59.948324706098035,
SSS SSS,SSSHSSS,0,H,,,,,,,,,0,0,0,0,2,9,33,6,,,,,,,0.9554631993134289,181.98538134264345,None,4,,,,,,,,,,,,,,204,200,207,181.51831678619237,181.61840211079834,181.60172282775784,181.8018920184295,4,1,0.3575906081678113,181.60172282775784,None,None,None,False,None,None,None,None,None,None,None,None,None,None,None,None,,,,,,,,,,,,,,,,,,,,,,,,,,,,,,AM04EN20b,1,0xC010,G:\Experimente\CoScience\Tasks\Logfiles\,2022_Feb_16_1204,Flanker,2020.1.3,59.948324706098035,
SSS SSS,SSSHSSS,0,H,,,,,,,,,0,0,0,0,2,10,34,6,,,,,,,0.7658400263914495,183.3198485451776,None,4,,,,,,,,,,,,,,204,200,207,182.95287018845738,183.05295551306335,183.03627506319026,183.23644279532164,4,1,0.2600154313568055,183.03627506319026,None,None,None,False,None,None,None,None,None,None,None,None,None,None,None,None,,,,,,,,,,,,,,,,,,,,,,,,,,,,,,AM04EN20b,1,0xC010,G:\Experimente\CoScience\Tasks\Logfiles\,2022_Feb_16_1204,Flanker,2020.1.3,59.948324706098035,
SHH HHS,SHHHHHS,20,H,,,,,,,,,0,0,0,0,2,11,35,8,,,,,,,0.8798074864388851,184.47082934057835,None,4,,,,,,,,,,,,,,224,220,227,184.08717053398505,184.18725556688332,184.17057278334687,184.3707422657244,4,1,0.27669296414751443,184.17057278334687,None,None,None,False,None,None,None,None,None,None,None,None,None,None,None,None,,,,,,,,,,,,,,,,,,,,,,,,,,,,,,AM04EN20b,1,0xC010,G:\Experimente\CoScience\Tasks\Logfiles\,2022_Feb_16_1204,Flanker,2020.1.3,59.948324706098035,
HSS SSH,HSSSSSH,20,S,,,,,,,,,0,0,0,0,3,0,36,2,,,,,,,0.8055005303359879,185.77193505995274,None,2,,,,,,,,,,,,,,224,220,227,185.35491506190738,185.45499776114048,185.43831760297508,185.6384876687698,2,1,0.307925853647248,185.43831760297508,None,None,None,False,None,None,None,None,None,None,None,None,None,None,None,None,,,,,,,,,,,,,,,,,,,,,,,,,,,,,,AM04EN20b,1,0xC010,G:\Experimente\CoScience\Tasks\Logfiles\,2022_Feb_16_1204,Flanker,2020.1.3,59.948324706098035,
SSH HSS,SSHHHSS,10,H,,,,,,,,,0,0,0,0,3,1,37,7,,,,,,,0.8402578982948082,186.93959572180938,None,4,,,,,,,,,,,,,,214,210,217,186.58929781496045,186.6893840146895,186.6727044399413,186.8728707135324,4,1,0.25052441815023485,186.6727044399413,None,None,None,False,None,None,None,None,None,None,None,None,None,None,None,None,,,,,,,,,,,,,,,,,,,,,,,,,,,,,,AM04EN20b,1,0xC010,G:\Experimente\CoScience\Tasks\Logfiles\,2022_Feb_16_1204,Flanker,2020.1.3,59.948324706098035,
SSS SSS,SSSHSSS,0,H,,,,,,,,,0,0,0,0,3,2,38,6,,,,,,,0.83636725941339,188.29074570787998,None,4,,,,,,,,,,,,,,204,200,207,187.79031995997684,187.89040353433484,187.87372337616944,188.07389344196417,4,1,0.3984390702098608,187.87372337616944,None,None,None,False,None,None,None,None,None,None,None,None,None,None,None,None,,,,,,,,,,,,,,,,,,,,,,,,,,,,,,AM04EN20b,1,0xC010,G:\Experimente\CoScience\Tasks\Logfiles\,2022_Feb_16_1204,Flanker,2020.1.3,59.948324706098035,
HHH HHH,HHHHHHH,30,H,,,,,,,,,0,0,0,0,3,3,39,9,,,,,,,0.7853102508528313,189.4750856527753,None,4,,,,,,,,,,,,,,234,230,237,189.14146907092436,189.2415555623611,189.22487161199206,189.4250425529117,4,1,0.22629573070662445,189.22487161199206,None,None,None,False,None,None,None,None,None,None,None,None,None,None,None,None,,,,,,,,,,,,,,,,,,,,,,,,,,,,,,AM04EN20b,1,0xC010,G:\Experimente\CoScience\Tasks\Logfiles\,2022_Feb_16_1204,Flanker,2020.1.3,59.948324706098035,
HSS SSH,HSSSSSH,20,S,,,,,,,,,0,0,0,0,3,4,40,2,,,,,,,0.8758432126526343,190.62606673988375,None,2,,,,,,,,,,,,,,224,220,229,190.27576708278684,190.3758602835096,190.35917079068895,190.559340564776,4,0,0.2489637800699711,190.35917079068895,None,None,None,False,None,None,None,None,None,None,None,None,None,None,None,None,,,,,,,,,,,,,,,,,,,,,,,,,,,,,,AM04EN20b,1,0xC010,G:\Experimente\CoScience\Tasks\Logfiles\,2022_Feb_16_1204,Flanker,2020.1.3,59.948324706098035,
HHH HHH,HHHHHHH,30,H,,,,,,,,,0,0,0,0,3,5,41,11,,,,,,,0.9872026469200718,191.86044861781374,None,4,,,,,,,,,,,,,,234,230,237,191.5101518777974,191.61023516044588,191.5935555856977,191.79372506807704,4,1,0.2375606205805525,191.5935555856977,None,None,None,False,None,None,None,None,None,None,None,None,None,None,None,None,,,,,,,,,,,,,,,,,,,,,,,,,,,,,,AM04EN20b,1,0xC010,G:\Experimente\CoScience\Tasks\Logfiles\,2022_Feb_16_1204,Flanker,2020.1.3,59.948324706098035,
HSS SSH,HSSSSSH,20,S,,,,,,,,,0,0,0,0,3,6,42,2,,,,,,,0.9233600406329475,193.244959211921,None,2,,,,,,,,,,,,,,224,220,227,192.8613004053277,192.9613842713934,192.94470236298002,193.14487330389966,2,1,0.27238064400444273,192.94470236298002,None,None,None,False,None,None,None,None,None,None,None,None,None,None,None,None,,,,,,,,,,,,,,,,,,,,,,,,,,,,,,AM04EN20b,1,0xC010,G:\Experimente\CoScience\Tasks\Logfiles\,2022_Feb_16_1204,Flanker,2020.1.3,59.948324706098035,
HSS SSH,HSSSSSH,20,S,,,,,,,,,0,0,0,0,3,7,43,2,,,,,,,0.7827542551973722,194.57942699787054,None,2,,,,,,,,,,,,,,224,220,227,194.179085991158,194.27917160747165,194.26249115759856,194.46266034827022,2,1,0.2895450375362998,194.26249115759856,None,None,None,False,None,None,None,None,None,None,None,None,None,None,None,None,,,,,,,,,,,,,,,,,,,,,,,,,,,,,,AM04EN20b,1,0xC010,G:\Experimente\CoScience\Tasks\Logfiles\,2022_Feb_16_1204,Flanker,2020.1.3,59.948324706098035,
SSS SSS,SSSHSSS,0,H,,,,,,,,,0,0,0,0,3,8,44,6,,,,,,,0.8763324881158523,195.79713017617541,None,4,,,,,,,,,,,,,,204,200,207,195.36342972825878,195.46352351239693,195.4468313942034,195.64700145999814,4,1,0.32619407045058324,195.4468313942034,None,None,None,False,None,None,None,None,None,None,None,None,None,None,None,None,,,,,,,,,,,,,,,,,,,,,,,,,,,,,,AM04EN20b,1,0xC010,G:\Experimente\CoScience\Tasks\Logfiles\,2022_Feb_16_1204,Flanker,2020.1.3,59.948324706098035,
HHH HHH,HHHSHHH,0,S,,,,,,,,,0,0,0,0,3,9,45,0,,,,,,,0.9264288952795593,197.08155690421881,None,2,,,,,,,,,,,,,,204,200,207,196.68121531408906,196.78130093040272,196.76464935962758,196.96479054632437,2,1,0.2993499286039878,196.76464935962758,None,None,None,False,None,None,None,None,None,None,None,None,None,None,None,None,,,,,,,,,,,,,,,,,,,,,,,,,,,,,,AM04EN20b,1,0xC010,G:\Experimente\CoScience\Tasks\Logfiles\,2022_Feb_16_1204,Flanker,2020.1.3,59.948324706098035,
HHH HHH,HHHSHHH,0,S,,,,,,,,,0,0,0,0,3,10,46,0,,,,,,,0.96964202094638,198.232534782539,None,2,,,,,,,,,,,,,,204,200,209,198.01570322789485,198.11576900805994,198.09908797477146,None,4,0,0.11388282379084558,198.09908797477146,None,None,None,False,None,None,None,None,None,None,None,None,None,None,None,None,,,,,,,,,,,,,,,,,,,,,,,,,,,,,,AM04EN20b,1,0xC010,G:\Experimente\CoScience\Tasks\Logfiles\,2022_Feb_16_1204,Flanker,2020.1.3,59.948324706098035,
HHH HHH,HHHHHHH,30,H,,,,,,,,,0,0,0,0,3,11,47,9,,,,,,,0.9043081520990321,199.6504074432214,None,4,,,,,,,,,,,,,,234,230,237,199.21670699530478,199.31679056966095,199.30011099491276,199.50027901875183,4,1,0.32383765280064836,199.30011099491276,None,None,None,False,None,None,None,None,None,None,None,None,None,None,None,None,,,,,,,,,,,,,,,,,,,,,,,,,,,,,,AM04EN20b,1,0xC010,G:\Experimente\CoScience\Tasks\Logfiles\,2022_Feb_16_1204,Flanker,2020.1.3,59.948324706098035,
HHH HHH,HHHSHHH,0,S,,,,,,,,,0,0,0,0,4,0,48,0,,,,,,,0.919204885466564,200.91815255455913,None,2,,,,,,,,,,,,,,204,200,209,200.5678534808776,200.66794026402385,200.65125981415258,200.8514295882378,4,0,0.23472726026193413,200.65125981415258,None,None,None,False,None,None,None,None,None,None,None,None,None,None,None,None,,,,,,,,,,,,,,,,,,,,,,,,,,,,,,AM04EN20b,1,0xC010,G:\Experimente\CoScience\Tasks\Logfiles\,2022_Feb_16_1204,Flanker,2020.1.3,59.948324706098035,
HHH HHH,HHHHHHH,30,H,,,,,,,,,0,0,0,0,4,1,49,10,,,,,,,0.9919939131129634,202.23593989063738,None,4,,,,,,,,,,,,,,234,230,239,201.85228254258436,201.95236465840208,201.93568537536157,202.13587586072026,2,0,0.27819321866263635,201.93568537536157,None,None,None,False,None,None,None,None,None,None,None,None,None,None,None,None,,,,,,,,,,,,,,,,,,,,,,,,,,,,,,AM04EN20b,1,0xC010,G:\Experimente\CoScience\Tasks\Logfiles\,2022_Feb_16_1204,Flanker,2020.1.3,59.948324706098035,
SSH HSS,SSHHHSS,10,H,,,,,,,,,0,0,0,0,4,2,50,7,,,,,,,0.8580326328672851,203.7205454357154,None,4,,,,,,,,,,,,,,214,210,217,203.23679167815135,203.33687991983788,203.32019567776115,203.52036661867896,4,1,0.38366755783499684,203.32019567776115,None,None,None,False,None,None,None,None,None,None,None,None,None,None,None,None,,,,,,,,,,,,,,,,,,,,,,,,,,,,,,AM04EN20b,1,0xC010,G:\Experimente\CoScience\Tasks\Logfiles\,2022_Feb_16_1204,Flanker,2020.1.3,59.948324706098035,
SSS SSS,SSSSSSS,30,S,,,,,,,,,0,0,0,0,4,3,51,3,,,,,,,0.7951264374909013,205.0716863788366,None,2,,,,,,,,,,,,,,234,230,237,204.58794166422194,204.68802553028763,204.67134595553944,204.8715151462111,2,1,0.3704782699369389,204.67134595553944,None,None,None,False,None,None,None,None,None,None,None,None,None,None,None,None,,,,,,,,,,,,,,,,,,,,,,,,,,,,,,AM04EN20b,1,0xC010,G:\Experimente\CoScience\Tasks\Logfiles\,2022_Feb_16_1204,Flanker,2020.1.3,59.948324706098035,
SHH HHS,SHHHHHS,20,H,,,,,,,,,0,0,0,0,4,4,52,8,,,,,,,0.7999545771058911,206.23934529044527,None,4,,,,,,,,,,,,,,224,220,227,205.87236722543275,205.9724522583292,205.95577239187332,206.15594158254498,4,1,0.2640235000017128,205.95577239187332,None,None,None,False,None,None,None,None,None,None,None,None,None,None,None,None,,,,,,,,,,,,,,,,,,,,,,,,,,,,,,AM04EN20b,1,0xC010,G:\Experimente\CoScience\Tasks\Logfiles\,2022_Feb_16_1204,Flanker,2020.1.3,59.948324706098035,
SHH HHS,SHHHHHS,20,H,,,,,,,,,0,0,0,0,4,5,53,8,,,,,,,0.8172206749220128,207.54045188494456,None,4,,,,,,,,,,,,,,224,220,229,207.04003780536368,207.1401117533551,207.12343363714717,207.32360078586134,2,0,0.3853413786400779,207.12343363714717,None,None,None,False,None,None,None,None,None,None,None,None,None,None,None,None,,,,,,,,,,,,,,,,,,,,,,,,,,,,,,AM04EN20b,1,0xC010,G:\Experimente\CoScience\Tasks\Logfiles\,2022_Feb_16_1204,Flanker,2020.1.3,59.948324706098035,
SHH HHS,SHHHHHS,20,H,,,,,,,,,0,0,0,0,4,6,54,8,,,,,,,0.908180413951236,208.82487919640153,None,4,,,,,,,,,,,,,,224,220,227,208.35781493165996,208.45790784067322,208.44121863956025,208.6413878302301,4,1,0.35253880811069394,208.44121863956025,None,None,None,False,None,None,None,None,None,None,None,None,None,None,None,None,,,,,,,,,,,,,,,,,,,,,,,,,,,,,,AM04EN20b,1,0xC010,G:\Experimente\CoScience\Tasks\Logfiles\,2022_Feb_16_1204,Flanker,2020.1.3,59.948324706098035,
HHH HHH,HHHHHHH,30,H,,,,,,,,,0,0,0,0,4,7,55,11,,,,,,,0.8628937377046132,210.0425826664141,None,4,,,,,,,,,,,,,,234,230,237,209.74232260868666,209.84241172549628,209.82573215074808,210.02590221654282,4,1,0.1949928312751581,209.82573215074808,None,None,None,False,None,None,None,None,None,None,None,None,None,None,None,None,,,,,,,,,,,,,,,,,,,,,,,,,,,,,,AM04EN20b,1,0xC010,G:\Experimente\CoScience\Tasks\Logfiles\,2022_Feb_16_1204,Flanker,2020.1.3,59.948324706098035,
HHH HHH,HHHHHHH,30,H,,,,,,,,,0,0,0,0,4,8,56,9,,,,,,,0.7582171254514477,211.27696571117667,None,4,,,,,,,,,,,,,,234,230,237,210.90998618762205,211.01007005368774,210.99339106235675,211.1935596696112,4,1,0.25929637100489344,210.99339106235675,None,None,None,False,None,None,None,None,None,None,None,None,None,None,None,None,,,,,,,,,,,,,,,,,,,,,,,,,,,,,,AM04EN20b,1,0xC010,G:\Experimente\CoScience\Tasks\Logfiles\,2022_Feb_16_1204,Flanker,2020.1.3,59.948324706098035,
SSS SSS,SSSSSSS,30,S,,,,,,,,,0,0,0,0,4,9,57,5,,,,,,,0.8198023691997972,212.394580647795,None,2,,,,,,,,,,,,,,234,230,239,212.04429995172177,212.14436923238463,212.1276922830093,212.3278582648909,4,0,0.23798534750494582,212.1276922830093,None,None,None,False,None,None,None,None,None,None,None,None,None,None,None,None,,,,,,,,,,,,,,,,,,,,,,,,,,,,,,AM04EN20b,1,0xC010,G:\Experimente\CoScience\Tasks\Logfiles\,2022_Feb_16_1204,Flanker,2020.1.3,59.948324706098035,
SSS SSS,SSSSSSS,30,S,,,,,,,,,0,0,0,0,4,10,58,3,,,,,,,0.9509641487457646,213.64564647609222,None,2,,,,,,,,,,,,,,234,230,237,213.22862181071832,213.32870859386458,213.3120269771607,213.51219908491112,2,1,0.30460796625447983,213.3120269771607,None,None,None,False,None,None,None,None,None,None,None,None,None,None,None,None,,,,,,,,,,,,,,,,,,,,,,,,,,,,,,AM04EN20b,1,0xC010,G:\Experimente\CoScience\Tasks\Logfiles\,2022_Feb_16_1204,Flanker,2020.1.3,59.948324706098035,
SSS SSS,SSSSSSS,30,S,,,,,,,,,0,0,0,0,4,11,59,5,,,,,,,0.7840646550592059,214.98011513716847,None,2,,,,,,,,,,,,,,234,230,237,214.59645545545027,214.69653961322365,214.6798579965198,214.8800286457299,2,1,0.26875383778315154,214.6798579965198,None,None,None,False,None,None,None,None,None,None,None,None,None,None,None,None,,,,,,,,,,,,,,,,,,,,,,,,,,,,,,AM04EN20b,1,0xC010,G:\Experimente\CoScience\Tasks\Logfiles\,2022_Feb_16_1204,Flanker,2020.1.3,59.948324706098035,
SSH HSS,SSHHHSS,10,H,,,,,,,,,0,0,0,0,5,0,60,7,,,,,,,0.819828281410449,216.0977315323271,None,4,,,,,,,,,,,,,,214,210,217,215.76411524218202,215.8641996916631,215.84751924179182,216.04768784904627,4,1,0.23006926607740752,215.84751924179182,None,None,None,False,None,None,None,None,None,None,None,None,None,None,None,None,,,,,,,,,,,,,,,,,,,,,,,,,,,,,,AM04EN20b,1,0xC010,G:\Experimente\CoScience\Tasks\Logfiles\,2022_Feb_16_1204,Flanker,2020.1.3,59.948324706098035,
HSS SSH,HSSSSSH,20,S,,,,,,,,,0,0,0,0,5,1,61,2,,,,,,,0.75458915155399,217.2987519270955,None,2,,,,,,,,,,,,,,224,220,229,216.93177415379068,217.03185889497945,217.0151772782756,217.215349386026,4,0,0.26139696069367346,217.0151772782756,None,None,None,False,None,None,None,None,None,None,None,None,None,None,None,None,,,,,,,,,,,,,,,,,,,,,,,,,,,,,,AM04EN20b,1,0xC010,G:\Experimente\CoScience\Tasks\Logfiles\,2022_Feb_16_1204,Flanker,2020.1.3,59.948324706098035,
HHH HHH,HHHSHHH,0,S,,,,,,,,,0,0,0,0,5,2,62,0,,,,,,,0.8087757987650783,218.54981863051762,None,2,,,,,,,,,,,,,,204,200,207,218.06607420761065,218.16615749025914,218.14948520821235,218.34964564764232,2,1,0.3810486029360618,218.14948520821235,None,None,None,False,None,None,None,None,None,None,None,None,None,None,None,None,,,,,,,,,,,,,,,,,,,,,,,,,,,,,,AM04EN20b,1,0xC010,G:\Experimente\CoScience\Tasks\Logfiles\,2022_Feb_16_1204,Flanker,2020.1.3,59.948324706098035,
HHH HHH,HHHHHHH,30,H,,,,,,,,,0,0,0,0,5,3,63,10,,,,,,,0.8824342826464725,219.70080205128943,None,4,,,,,,,,,,,,,,234,230,237,219.36718080210812,219.46726379304891,219.45058071780477,219.650752825557,4,1,0.22293700418777007,219.45058071780477,None,None,None,False,None,None,None,None,None,None,None,None,None,None,None,None,,,,,,,,,,,,,,,,,,,,,,,,,,,,,,AM04EN20b,1,0xC010,G:\Experimente\CoScience\Tasks\Logfiles\,2022_Feb_16_1204,Flanker,2020.1.3,59.948324706098035,
HHS SHH,HHSSSHH,10,S,,,,,,,,,0,0,0,0,5,4,64,1,,,,,,,0.877891842764471,220.96852995185327,None,2,,,,,,,,,,,,,,214,210,217,220.58488310528992,220.6849660962307,220.66828652148251,220.86845542044466,2,1,0.2731924675154005,220.66828652148251,None,None,None,False,None,None,None,None,None,None,None,None,None,None,None,None,,,,,,,,,,,,,,,,,,,,,,,,,,,,,,AM04EN20b,1,0xC010,G:\Experimente\CoScience\Tasks\Logfiles\,2022_Feb_16_1204,Flanker,2020.1.3,59.948324706098035,
HHH HHH,HHHHHHH,30,H,,,,,,,,,0,0,0,0,5,5,65,11,,,,,,,0.8819769896735412,222.10283846520724,None,4,,,,,,,,,,,,,,234,230,237,221.8526384264096,221.95272579297125,221.93603250794513,None,4,1,0.13447887085567345,221.93603250794513,None,None,None,False,None,None,None,None,None,None,None,None,None,None,None,None,,,,,,,,,,,,,,,,,,,,,,,,,,,,,,AM04EN20b,1,0xC010,G:\Experimente\CoScience\Tasks\Logfiles\,2022_Feb_16_1204,Flanker,2020.1.3,59.948324706098035,
SSS SSS,SSSSSSS,30,S,,,,,,,,,0,0,0,0,5,6,66,4,,,,,,,0.793105557472904,223.22045806915412,None,2,,,,,,,,,,,,,,234,230,237,222.98692593678243,223.0870112613884,223.07032876955964,None,2,1,0.13110818430686777,223.07032876955964,None,None,None,False,None,None,None,None,None,None,None,None,None,None,None,None,,,,,,,,,,,,,,,,,,,,,,,,,,,,,,AM04EN20b,1,0xC010,G:\Experimente\CoScience\Tasks\Logfiles\,2022_Feb_16_1204,Flanker,2020.1.3,59.948324706098035,
HHH HHH,HHHHHHH,30,H,,,,,,,,,0,0,0,0,5,7,67,11,,,,,,,0.7833875326774482,224.3547744586249,None,4,,,,,,,,,,,,,,234,230,237,224.02113920745796,224.12122424035442,224.10454349877546,224.3047123977376,4,1,0.22788904009030375,224.10454349877546,None,None,None,False,None,None,None,None,None,None,None,None,None,None,None,None,,,,,,,,,,,,,,,,,,,,,,,,,,,,,,AM04EN20b,1,0xC010,G:\Experimente\CoScience\Tasks\Logfiles\,2022_Feb_16_1204,Flanker,2020.1.3,59.948324706098035,
HHS SHH,HHSSSHH,10,S,,,,,,,,,0,0,0,0,5,8,68,1,,,,,,,0.8961925013778081,225.47237335130194,None,2,,,,,,,,,,,,,,214,210,217,225.13875706115687,225.23886455557476,225.22215960222638,225.42232879289622,2,1,0.2242473567603156,225.22215960222638,None,None,None,False,None,None,None,None,None,None,None,None,None,None,None,None,,,,,,,,,,,,,,,,,,,,,,,,,,,,,,AM04EN20b,1,0xC010,G:\Experimente\CoScience\Tasks\Logfiles\,2022_Feb_16_1204,Flanker,2020.1.3,59.948324706098035,
HHS SHH,HHSSSHH,10,S,,,,,,,,,0,0,0,0,5,9,69,1,,,,,,,0.9019182772296446,226.58998916304517,None,2,,,,,,,,,,,,,,214,210,219,226.37313952250224,226.47322368027562,226.45654323040253,None,4,0,0.11382010656052444,226.45654323040253,None,None,None,False,None,None,None,None,None,None,None,None,None,None,None,None,,,,,,,,,,,,,,,,,,,,,,,,,,,,,,AM04EN20b,1,0xC010,G:\Experimente\CoScience\Tasks\Logfiles\,2022_Feb_16_1204,Flanker,2020.1.3,59.948324706098035,
SSH HSS,SSHHHSS,10,H,,,,,,,,,0,0,0,0,5,10,70,7,,,,,,,0.80681870991176,227.80769204964236,None,4,,,,,,,,,,,,,,214,210,217,227.50743753436655,227.6075222755553,227.5908441593474,227.79101101635388,4,1,0.2005288667005516,227.5908441593474,None,None,None,False,None,None,None,None,None,None,None,None,None,None,None,None,,,,,,,,,,,,,,,,,,,,,,,,,,,,,,AM04EN20b,1,0xC010,G:\Experimente\CoScience\Tasks\Logfiles\,2022_Feb_16_1204,Flanker,2020.1.3,59.948324706098035,
HSS SSH,HSSSSSH,20,S,,,,,,,,,0,0,0,0,5,11,71,2,,,,,,,0.847338273274636,228.94201631522992,None,2,,,,,,,,,,,,,,224,220,227,228.62505480465006,228.7251401292542,228.70845909596756,228.90862887005278,2,1,0.20286165599645756,228.70845909596756,None,None,None,False,None,None,None,None,None,None,None,None,None,None,None,None,,,,,,,,,,,,,,,,,,,,,,,,,,,,,,AM04EN20b,1,0xC010,G:\Experimente\CoScience\Tasks\Logfiles\,2022_Feb_16_1204,Flanker,2020.1.3,59.948324706098035,
SSS SSS,SSSSSSS,30,S,,,,,,,,,0,0,0,0,6,0,72,4,,,,,,,0.8746698300092529,230.1930693083741,None,2,,,,,,,,,,,,,,234,230,237,229.7927157582144,229.8928556322262,229.8761188826993,230.07628807336914,2,1,0.2981927227592678,229.8761188826993,None,None,None,False,None,None,None,None,None,None,None,None,None,None,None,None,,,,,,,,,,,,,,,,,,,,,,,,,,,,,,AM04EN20b,1,0xC010,G:\Experimente\CoScience\Tasks\Logfiles\,2022_Feb_16_1204,Flanker,2020.1.3,59.948324706098035,
HHH HHH,HHHHHHH,30,H,,,,,,,,,0,0,0,0,6,1,73,10,,,,,,,0.8255882882723973,231.39406053233688,None,4,,,,,,,,,,,,,,234,230,237,231.0771474452922,231.1772237269488,231.1605441522006,231.36071363457995,4,1,0.2027283454171993,231.1605441522006,None,None,None,False,None,None,None,None,None,None,None,None,None,None,None,None,,,,,,,,,,,,,,,,,,,,,,,,,,,,,,AM04EN20b,1,0xC010,G:\Experimente\CoScience\Tasks\Logfiles\,2022_Feb_16_1204,Flanker,2020.1.3,59.948324706098035,
HHS SHH,HHSSSHH,10,S,,,,,,,,,0,0,0,0,6,2,74,1,,,,,,,0.9824804605311335,232.59509872129638,None,2,,,,,,,,,,,,,,214,210,217,232.22810577917335,232.32820452234955,232.3115205719805,232.5116926797309,2,1,0.2557176966147381,232.3115205719805,None,None,None,False,None,None,None,None,None,None,None,None,None,None,None,None,,,,,,,,,,,,,,,,,,,,,,,,,,,,,,AM04EN20b,1,0xC010,G:\Experimente\CoScience\Tasks\Logfiles\,2022_Feb_16_1204,Flanker,2020.1.3,59.948324706098035,
HHH HHH,HHHHHHH,30,H,,,,,,,,,0,0,0,0,6,3,75,10,,,,,,,0.9758677448413804,233.9462475405362,None,4,,,,,,,,,,,,,,234,230,237,233.57926947552187,233.67935334158756,233.66267260000677,233.86284179067843,4,1,0.2575423304842843,233.66267260000677,None,None,None,False,None,None,None,None,None,None,None,None,None,None,None,None,,,,,,,,,,,,,,,,,,,,,,,,,,,,,,AM04EN20b,1,0xC010,G:\Experimente\CoScience\Tasks\Logfiles\,2022_Feb_16_1204,Flanker,2020.1.3,59.948324706098035,
SSS SSS,SSSSSSS,30,S,,,,,,,,,0,0,0,0,6,4,76,4,,,,,,,0.7737259064390363,235.147260059186,None,2,,,,,,,,,,,,,,234,230,237,234.9304185864694,235.03050332765815,235.0138225860792,None,2,1,0.10535561399410653,235.0138225860792,None,None,None,False,None,None,None,None,None,None,None,None,None,None,None,None,,,,,,,,,,,,,,,,,,,,,,,,,,,,,,AM04EN20b,1,0xC010,G:\Experimente\CoScience\Tasks\Logfiles\,2022_Feb_16_1204,Flanker,2020.1.3,59.948324706098035,
SSS SSS,SSSSSSS,30,S,,,,,,,,,0,0,0,0,6,5,77,3,,,,,,,0.7933383718258662,236.2148441476802,None,2,,,,,,,,,,,,,,234,230,239,235.9312659983625,236.03136065762556,236.01467174822028,None,4,0,0.1724887218369986,236.01467174822028,None,None,None,False,None,None,None,None,None,None,None,None,None,None,None,None,,,,,,,,,,,,,,,,,,,,,,,,,,,,,,AM04EN20b,1,0xC010,G:\Experimente\CoScience\Tasks\Logfiles\,2022_Feb_16_1204,Flanker,2020.1.3,59.948324706098035,
HHH HHH,HHHHHHH,30,H,,,,,,,,,0,0,0,0,6,6,78,11,,,,,,,0.9815945506245728,237.21569535177696,None,4,,,,,,,,,,,,,,234,230,239,237.01552499427453,237.1156091520479,237.09892899388433,None,2,0,0.09321589167120692,237.09892899388433,None,None,None,False,None,None,None,None,None,None,None,None,None,None,None,None,,,,,,,,,,,,,,,,,,,,,,,,,,,,,,AM04EN20b,1,0xC010,G:\Experimente\CoScience\Tasks\Logfiles\,2022_Feb_16_1204,Flanker,2020.1.3,59.948324706098035,
HHH HHH,HHHHHHH,30,H,,,,,,,,,0,0,0,0,6,7,79,9,,,,,,,0.9076522985845006,238.66692862049786,None,4,,,,,,,,,,,,,,234,230,237,238.19986464746216,238.29995055548352,238.28327068902763,238.48345358997722,4,1,0.3518407507399388,238.28327068902763,None,None,None,False,None,None,None,None,None,None,None,None,None,None,None,None,,,,,,,,,,,,,,,,,,,,,,,,,,,,,,AM04EN20b,1,0xC010,G:\Experimente\CoScience\Tasks\Logfiles\,2022_Feb_16_1204,Flanker,2020.1.3,59.948324706098035,
HHS SHH,HHSSSHH,10,S,,,,,,,,,0,0,0,0,6,8,80,1,,,,,,,0.7736709027425092,239.95135505683174,None,2,,,,,,,,,,,,,,214,210,217,239.58437815865,239.6844850696525,239.6677809914272,239.8679548494274,2,1,0.25629557026695693,239.6677809914272,None,None,None,False,None,None,None,None,None,None,None,None,None,None,None,None,,,,,,,,,,,,,,,,,,,,,,,,,,,,,,AM04EN20b,1,0xC010,G:\Experimente\CoScience\Tasks\Logfiles\,2022_Feb_16_1204,Flanker,2020.1.3,59.948324706098035,
HHH HHH,HHHSHHH,0,S,,,,,,,,,0,0,0,0,6,9,81,0,,,,,,,0.8309619911932342,241.13569471001938,None,2,,,,,,,,,,,,,,204,200,209,240.73536070429873,240.83544952940065,240.81876032828768,241.01892951895752,4,0,0.2952657241585257,240.81876032828768,None,None,None,False,None,None,None,None,None,None,None,None,None,None,None,None,,,,,,,,,,,,,,,,,,,,,,,,,,,,,,AM04EN20b,1,0xC010,G:\Experimente\CoScience\Tasks\Logfiles\,2022_Feb_16_1204,Flanker,2020.1.3,59.948324706098035,
SSS SSS,SSSHSSS,0,H,,,,,,,,,0,0,0,0,6,10,82,6,,,,,,,0.9842891501796431,242.3700902982273,None,4,,,,,,,,,,,,,,204,200,207,241.96973849831556,242.06982236438125,242.05314249792355,242.25331402225856,4,1,0.29989717291027773,242.05314249792355,None,None,None,False,None,None,None,None,None,None,None,None,None,None,None,None,,,,,,,,,,,,,,,,,,,,,,,,,,,,,,AM04EN20b,1,0xC010,G:\Experimente\CoScience\Tasks\Logfiles\,2022_Feb_16_1204,Flanker,2020.1.3,59.948324706098035,
SSS SSS,SSSSSSS,30,S,,,,,,,,,0,0,0,0,6,11,83,4,,,,,,,0.9924433763535316,243.72122890768333,None,2,,,,,,,,,,,,,,234,230,237,243.35425055096312,243.4543350004442,243.43765338374033,243.63782432465814,2,1,0.26535339701331395,243.43765338374033,None,None,None,False,None,None,None,None,None,None,None,None,None,None,None,None,,,,,,,,,,,,,,,,,,,,,,,,,,,,,,AM04EN20b,1,0xC010,G:\Experimente\CoScience\Tasks\Logfiles\,2022_Feb_16_1204,Flanker,2020.1.3,59.948324706098035,
SSH HSS,SSHHHSS,10,H,,,,,,,,,0,0,0,0,7,0,84,7,,,,,,,0.7906450567159545,244.9722921106095,None,4,,,,,,,,,,,,,,214,210,217,244.7220804034896,244.82216543638788,244.80548527822248,None,4,1,0.13748375550858327,244.80548527822248,None,None,None,False,None,None,None,None,None,None,None,None,None,None,None,None,,,,,,,,,,,,,,,,,,,,,,,,,,,,,,AM04EN20b,1,0xC010,G:\Experimente\CoScience\Tasks\Logfiles\,2022_Feb_16_1204,Flanker,2020.1.3,59.948324706098035,
HHH HHH,HHHHHHH,30,H,,,,,,,,,0,0,0,0,7,1,85,11,,,,,,,0.7660328722822183,246.10659099759687,None,4,,,,,,,,,,,,,,234,230,239,245.7729744157441,245.87305944864238,245.8563795821865,246.05654702260836,2,0,0.2245761117355869,245.8563795821865,None,None,None,False,None,None,None,None,None,None,None,None,None,None,None,None,,,,,,,,,,,,,,,,,,,,,,,,,,,,,,AM04EN20b,1,0xC010,G:\Experimente\CoScience\Tasks\Logfiles\,2022_Feb_16_1204,Flanker,2020.1.3,59.948324706098035,
HSS SSH,HSSSSSH,20,S,,,,,,,,,0,0,0,0,7,2,86,2,,,,,,,0.8981352313820602,247.22420885129577,None,2,,,,,,,,,,,,,,224,220,227,246.87391181957173,246.97399510222021,246.95731523576433,247.15748442643599,2,1,0.23762742172402795,246.95731523576433,None,None,None,False,None,None,None,None,None,None,None,None,None,None,None,None,,,,,,,,,,,,,,,,,,,,,,,,,,,,,,AM04EN20b,1,0xC010,G:\Experimente\CoScience\Tasks\Logfiles\,2022_Feb_16_1204,Flanker,2020.1.3,59.948324706098035,
HHH HHH,HHHHHHH,30,H,,,,,,,,,0,0,0,0,7,3,87,9,,,,,,,0.8423222282114908,248.42523099631399,None,4,,,,,,,,,,,,,,234,230,237,248.12498435715497,248.22506005539435,248.20837960552308,248.4085493796083,4,1,0.18752189633596572,248.20837960552308,None,None,None,False,None,None,None,None,None,None,None,None,None,None,None,None,,,,,,,,,,,,,,,,,,,,,,,,,,,,,,AM04EN20b,1,0xC010,G:\Experimente\CoScience\Tasks\Logfiles\,2022_Feb_16_1204,Flanker,2020.1.3,59.948324706098035,
SSS SSS,SSSHSSS,0,H,,,,,,,,,0,0,0,0,7,4,88,6,,,,,,,0.9637357960029242,249.6429312575383,None,4,,,,,,,,,,,,,,204,200,209,249.27595523448144,249.37603764200685,249.35935777555096,249.5595278413457,2,0,0.2605364219380135,249.35935777555096,None,None,None,False,None,None,None,None,None,None,None,None,None,None,None,None,,,,,,,,,,,,,,,,,,,,,,,,,,,,,,AM04EN20b,1,0xC010,G:\Experimente\CoScience\Tasks\Logfiles\,2022_Feb_16_1204,Flanker,2020.1.3,59.948324706098035,
SSS SSS,SSSSSSS,30,S,,,,,,,,,0,0,0,0,7,5,89,3,,,,,,,0.815382593219582,251.12754759581367,None,2,,,,,,,,,,,,,,234,230,239,250.61042418726356,250.71050688649666,250.6938255615005,250.89399679412782,4,0,0.40302501250698697,250.6938255615005,None,None,None,False,None,None,None,None,None,None,None,None,None,None,None,None,,,,,,,,,,,,,,,,,,,,,,,,,,,,,,AM04EN20b,1,0xC010,G:\Experimente\CoScience\Tasks\Logfiles\,2022_Feb_16_1204,Flanker,2020.1.3,59.948324706098035,
HHH HHH,HHHHHHH,30,H,,,,,,,,,0,0,0,0,7,6,90,9,,,,,,,0.9066000386200451,252.3452286043066,None,4,,,,,,,,,,,,,,234,230,239,251.94489109809,252.04497642269598,252.0282959728229,252.2284619547063,2,0,0.2885155998174014,252.0282959728229,None,None,None,False,None,None,None,None,None,None,None,None,None,None,None,None,,,,,,,,,,,,,,,,,,,,,,,,,,,,,,AM04EN20b,1,0xC010,G:\Experimente\CoScience\Tasks\Logfiles\,2022_Feb_16_1204,Flanker,2020.1.3,59.948324706098035,
HSS SSH,HSSSSSH,20,S,,,,,,,,,0,0,0,0,7,7,91,2,,,,,,,0.8539162060665086,253.696380340627,None,2,,,,,,,,,,,,,,224,220,227,253.26268018441624,253.36276288364934,253.34608418402604,253.5462516244479,2,1,0.3277007425440388,253.34608418402604,None,None,None,False,None,None,None,None,None,None,None,None,None,None,None,None,,,,,,,,,,,,,,,,,,,,,,,,,,,,,,AM04EN20b,1,0xC010,G:\Experimente\CoScience\Tasks\Logfiles\,2022_Feb_16_1204,Flanker,2020.1.3,59.948324706098035,
HHH HHH,HHHHHHH,30,H,,,,,,,,,0,0,0,0,7,8,92,11,,,,,,,0.9818625100474767,254.89739956856283,None,4,,,,,,,,,,,,,,234,230,237,254.56378532037525,254.66386947814863,254.64718990340043,254.8473573438223,4,1,0.2255757952334534,254.64718990340043,None,None,None,False,None,None,None,None,None,None,None,None,None,None,None,None,,,,,,,,,,,,,,,,,,,,,,,,,,,,,,AM04EN20b,1,0xC010,G:\Experimente\CoScience\Tasks\Logfiles\,2022_Feb_16_1204,Flanker,2020.1.3,59.948324706098035,
HSS SSH,HSSSSSH,20,S,,,,,,,,,0,0,0,0,7,9,93,2,,,,,,,0.8457477435545071,256.2318676462219,None,2,,,,,,,,,,,,,,224,220,227,255.8815720730363,255.98165593910198,255.9649763643538,256.16514613844083,2,1,0.2367654244262667,255.9649763643538,None,None,None,False,None,None,None,None,None,None,None,None,None,None,None,None,,,,,,,,,,,,,,,,,,,,,,,,,,,,,,AM04EN20b,1,0xC010,G:\Experimente\CoScience\Tasks\Logfiles\,2022_Feb_16_1204,Flanker,2020.1.3,59.948324706098035,
SSS SSS,SSSSSSS,30,S,,,,,,,,,0,0,0,0,7,10,94,3,,,,,,,0.8240905884926937,257.3995303500342,None,2,,,,,,,,,,,,,,234,230,237,257.0825936346373,257.1826786675356,257.16598509079995,257.3661782015315,2,1,0.20273330445343163,257.16598509079995,None,None,None,False,None,None,None,None,None,None,None,None,None,None,None,None,,,,,,,,,,,,,,,,,,,,,,,,,,,,,,AM04EN20b,1,0xC010,G:\Experimente\CoScience\Tasks\Logfiles\,2022_Feb_16_1204,Flanker,2020.1.3,59.948324706098035,
SHH HHS,SHHHHHS,20,H,,,,,,,,,0,0,0,0,7,11,95,8,,,,,,,0.8942625439949393,272.97944741743413,None,4,,,,,,,,,,,,,,224,220,227,258.2335738466227,258.33365800439606,258.3169743457347,258.5171464534851,4,1,0.21971888094958558,258.3169743457347,None,None,None,False,None,None,None,None,None,258.58386883639105,None,space,260.5688913781305,None,272.87936209283,None,12.291247445731642,,,,,,,,,,,,,,,,,,,,,,,,,,,,,AM04EN20b,1,0xC010,G:\Experimente\CoScience\Tasks\Logfiles\,2022_Feb_16_1204,Flanker,2020.1.3,59.948324706098035,
SSS SSS,SSSSSSS,30,S,,,,,,,,,0,0,0,0,8,0,96,4,,,,,,,0.8040541111987112,275.4315333487939,None,2,,,,,,,,,,,,,,234,230,236,273.88021388034394,273.9802974547001,273.96361846336913,274.1637867789159,2,1,0.42873470173617534,273.96361846336913,None,274.43067951932244,None,False,None,None,None,None,None,None,None,None,None,None,None,None,,,,,,,,,,,,,,,,,,,,,,,,,,,,,,AM04EN20b,1,0xC010,G:\Experimente\CoScience\Tasks\Logfiles\,2022_Feb_16_1204,Flanker,2020.1.3,59.948324706098035,
HHS SHH,HHSSSHH,10,S,,,,,,,,,0,0,0,0,8,1,97,1,,,,,,,0.8327580134894301,276.59919051015277,None,2,,,,,,,,,,,,,,214,210,217,276.2488958120921,276.3490000977217,276.332298936577,276.53246841895634,2,1,0.2510664117144188,276.332298936577,None,None,None,False,None,None,None,None,None,None,None,None,None,None,None,None,,,,,,,,,,,,,,,,,,,,,,,,,,,,,,AM04EN20b,1,0xC010,G:\Experimente\CoScience\Tasks\Logfiles\,2022_Feb_16_1204,Flanker,2020.1.3,59.948324706098035,
SSS SSS,SSSSSSS,30,S,,,,,,,,,0,0,0,0,8,2,98,3,,,,,,,0.9538174219057793,277.6667673059437,None,2,,,,,,,,,,,,,,234,230,237,277.4332363404046,277.5333196230549,277.5166400483067,None,2,1,0.11963793196446204,277.5166400483067,None,None,None,False,None,None,None,None,None,None,None,None,None,None,None,None,,,,,,,,,,,,,,,,,,,,,,,,,,,,,,AM04EN20b,1,0xC010,G:\Experimente\CoScience\Tasks\Logfiles\,2022_Feb_16_1204,Flanker,2020.1.3,59.948324706098035,
SSS SSS,SSSHSSS,0,H,,,,,,,,,0,0,0,0,8,3,99,6,,,,,,,0.9560944890499795,279.00123567531045,None,4,,,,,,,,,,,,,,204,200,209,278.63425790200563,278.7343458519845,278.71766948602453,278.9178308005776,2,0,0.2615816118923249,278.71766948602453,None,None,None,False,None,None,None,None,None,None,None,None,None,None,None,None,,,,,,,,,,,,,,,,,,,,,,,,,,,,,,AM04EN20b,1,0xC010,G:\Experimente\CoScience\Tasks\Logfiles\,2022_Feb_16_1204,Flanker,2020.1.3,59.948324706098035,
SSH HSS,SSHHHSS,10,H,,,,,,,,,0,0,0,0,8,4,100,7,,,,,,,0.8082796081649095,280.3357043363849,None,4,,,,,,,,,,,,,,214,210,217,279.9687306469932,280.06881159597833,280.05213873051434,280.2522988782366,4,1,0.2600819407907693,280.05213873051434,None,None,None,False,None,None,None,None,None,None,None,None,None,None,None,None,,,,,,,,,,,,,,,,,,,,,,,,,,,,,,AM04EN20b,1,0xC010,G:\Experimente\CoScience\Tasks\Logfiles\,2022_Feb_16_1204,Flanker,2020.1.3,59.948324706098035,
SSS SSS,SSSSSSS,30,S,,,,,,,,,0,0,0,0,8,5,101,5,,,,,,,0.9411197206451325,281.50336324799355,None,2,,,,,,,,,,,,,,234,230,237,281.1530679665175,281.25315154087366,281.2364707992947,281.4366402816722,2,1,0.2437343298079213,281.2364707992947,None,None,None,False,None,None,None,None,None,None,None,None,None,None,None,None,,,,,,,,,,,,,,,,,,,,,,,,,,,,,,AM04EN20b,1,0xC010,G:\Experimente\CoScience\Tasks\Logfiles\,2022_Feb_16_1204,Flanker,2020.1.3,59.948324706098035,
SSS SSS,SSSSSSS,30,S,,,,,,,,,0,0,0,0,8,6,102,5,,,,,,,0.943695076313793,282.8211517509044,None,2,,,,,,,,,,,,,,234,230,237,282.45417310247467,282.55426484465715,282.53757710208447,282.7377462927543,2,1,0.2555788435820432,282.53757710208447,None,None,None,False,None,None,None,None,None,None,None,None,None,None,None,None,,,,,,,,,,,,,,,,,,,,,,,,,,,,,,AM04EN20b,1,0xC010,G:\Experimente\CoScience\Tasks\Logfiles\,2022_Feb_16_1204,Flanker,2020.1.3,59.948324706098035,
HHH HHH,HHHHHHH,30,H,,,,,,,,,0,0,0,0,8,7,103,10,,,,,,,0.7644715643222098,284.1055761452808,None,4,,,,,,,,,,,,,,234,230,237,283.7719610219683,283.8720457631589,283.8553653132858,284.05553392054026,4,1,0.22577298987744143,283.8553653132858,None,None,None,False,None,None,None,None,None,None,None,None,None,None,None,None,,,,,,,,,,,,,,,,,,,,,,,,,,,,,,AM04EN20b,1,0xC010,G:\Experimente\CoScience\Tasks\Logfiles\,2022_Feb_16_1204,Flanker,2020.1.3,59.948324706098035,
SSH HSS,SSHHHSS,10,H,,,,,,,,,0,0,0,0,8,8,104,7,,,,,,,0.859552478457618,285.3065974151741,None,4,,,,,,,,,,,,,,214,210,219,284.87289784238055,284.97298287527883,284.95630184199035,285.1564716160756,2,0,0.3188097728034336,284.95630184199035,None,None,None,False,None,None,None,None,None,None,None,None,None,None,None,None,,,,,,,,,,,,,,,,,,,,,,,,,,,,,,AM04EN20b,1,0xC010,G:\Experimente\CoScience\Tasks\Logfiles\,2022_Feb_16_1204,Flanker,2020.1.3,59.948324706098035,
HHH HHH,HHHHHHH,30,H,,,,,,,,,0,0,0,0,8,9,105,9,,,,,,,0.8439613026888143,286.5743425265118,None,4,,,,,,,,,,,,,,234,230,237,286.17400414517033,286.2740900531917,286.2574271058038,286.45757850228256,4,1,0.28469247407883813,286.2574271058038,None,None,None,False,None,None,None,None,None,None,None,None,None,None,None,None,,,,,,,,,,,,,,,,,,,,,,,,,,,,,,AM04EN20b,1,0xC010,G:\Experimente\CoScience\Tasks\Logfiles\,2022_Feb_16_1204,Flanker,2020.1.3,59.948324706098035,
HHS SHH,HHSSSHH,10,S,,,,,,,,,0,0,0,0,8,10,106,1,,,,,,,0.8922425742074863,287.7920474550647,None,2,,,,,,,,,,,,,,214,210,217,287.42506822321957,287.52515296441015,287.5084786404059,287.7086399549589,2,1,0.2556050973053061,287.5084786404059,None,None,None,False,None,None,None,None,None,None,None,None,None,None,None,None,,,,,,,,,,,,,,,,,,,,,,,,,,,,,,AM04EN20b,1,0xC010,G:\Experimente\CoScience\Tasks\Logfiles\,2022_Feb_16_1204,Flanker,2020.1.3,59.948324706098035,
HHH HHH,HHHHHHH,30,H,,,,,,,,,0,0,0,0,8,11,107,9,,,,,,,0.9173506310582412,289.02642874957746,None,4,,,,,,,,,,,,,,234,230,237,288.6928121677247,288.79289778403836,288.7762167507499,288.97638594142154,4,1,0.2288405917588534,288.7762167507499,None,None,None,False,None,None,None,None,None,None,None,None,None,None,None,None,,,,,,,,,,,,,,,,,,,,,,,,,,,,,,AM04EN20b,1,0xC010,G:\Experimente\CoScience\Tasks\Logfiles\,2022_Feb_16_1204,Flanker,2020.1.3,59.948324706098035,
SSS SSS,SSSSSSS,30,S,,,,,,,,,0,0,0,0,9,0,108,3,,,,,,,0.8918168197857236,290.26081091921515,None,2,,,,,,,,,,,,,,234,230,237,289.94387624577575,290.0439618620876,290.0272805370914,290.2274500194708,2,1,0.20772209557253518,290.0272805370914,None,None,None,False,None,None,None,None,None,None,None,None,None,None,None,None,,,,,,,,,,,,,,,,,,,,,,,,,,,,,,AM04EN20b,1,0xC010,G:\Experimente\CoScience\Tasks\Logfiles\,2022_Feb_16_1204,Flanker,2020.1.3,59.948324706098035,
SSS SSS,SSSHSSS,0,H,,,,,,,,,0,0,0,0,9,1,109,6,,,,,,,0.7747247084010863,291.4951957142239,None,4,,,,,,,,,,,,,,204,200,209,291.1615791323711,291.2616621233137,291.2449840071058,291.44515261436027,2,0,0.23298955539394228,291.2449840071058,None,None,None,False,None,None,None,None,None,None,None,None,None,None,None,None,,,,,,,,,,,,,,,,,,,,,,,,,,,,,,AM04EN20b,1,0xC010,G:\Experimente\CoScience\Tasks\Logfiles\,2022_Feb_16_1204,Flanker,2020.1.3,59.948324706098035,
HHS SHH,HHSSSHH,10,S,,,,,,,,,0,0,0,0,9,2,110,1,,,,,,,0.7525181906560412,292.6795362425364,None,2,,,,,,,,,,,,,,214,210,217,292.2791975694872,292.3792820189683,292.3626006939721,292.5627698846438,2,1,0.2853893646170036,292.3626006939721,None,None,None,False,None,None,None,None,None,None,None,None,None,None,None,None,,,,,,,,,,,,,,,,,,,,,,,,,,,,,,AM04EN20b,1,0xC010,G:\Experimente\CoScience\Tasks\Logfiles\,2022_Feb_16_1204,Flanker,2020.1.3,59.948324706098035,
SSS SSS,SSSSSSS,30,S,,,,,,,,,0,0,0,0,9,3,111,5,,,,,,,0.8342173588432568,293.6803883217599,None,2,,,,,,,,,,,,,,234,230,239,293.4468588147611,293.54694093057697,293.5302607724134,None,4,0,0.11771265881725412,293.5302607724134,None,None,None,False,None,None,None,None,None,None,None,None,None,None,None,None,,,,,,,,,,,,,,,,,,,,,,,,,,,,,,AM04EN20b,1,0xC010,G:\Experimente\CoScience\Tasks\Logfiles\,2022_Feb_16_1204,Flanker,2020.1.3,59.948324706098035,
SSS SSS,SSSSSSS,30,S,,,,,,,,,0,0,0,0,9,4,112,3,,,,,,,0.975554826794598,294.8146869170396,None,2,,,,,,,,,,,,,,234,230,237,294.5144315266389,294.61451480928736,294.5978571126434,294.7980061754588,2,1,0.19904144733845897,294.5978571126434,None,None,None,False,None,None,None,None,None,None,None,None,None,None,None,None,,,,,,,,,,,,,,,,,,,,,,,,,,,,,,AM04EN20b,1,0xC010,G:\Experimente\CoScience\Tasks\Logfiles\,2022_Feb_16_1204,Flanker,2020.1.3,59.948324706098035,
HSS SSH,HSSSSSH,20,S,,,,,,,,,0,0,0,0,9,5,113,2,,,,,,,0.9039118026572881,296.11579292812166,None,2,,,,,,,,,,,,,,224,220,227,295.7988550458922,295.89894212074614,295.88226079574997,296.0824308615447,2,1,0.20462123897232232,295.88226079574997,None,None,None,False,None,None,None,None,None,None,None,None,None,None,None,None,,,,,,,,,,,,,,,,,,,,,,,,,,,,,,AM04EN20b,1,0xC010,G:\Experimente\CoScience\Tasks\Logfiles\,2022_Feb_16_1204,Flanker,2020.1.3,59.948324706098035,
HHH HHH,HHHHHHH,30,H,,,,,,,,,0,0,0,0,9,6,114,9,,,,,,,0.945288665279514,297.40021819762296,None,4,,,,,,,,,,,,,,234,230,237,297.03324013261044,297.1333277908798,297.11664471563563,297.3168118643498,4,1,0.26121901878104836,297.11664471563563,None,None,None,False,None,None,None,None,None,None,None,None,None,None,None,None,,,,,,,,,,,,,,,,,,,,,,,,,,,,,,AM04EN20b,1,0xC010,G:\Experimente\CoScience\Tasks\Logfiles\,2022_Feb_16_1204,Flanker,2020.1.3,59.948324706098035,
SSS SSS,SSSSSSS,30,S,,,,,,,,,0,0,0,0,9,7,115,4,,,,,,,0.8914567823716006,298.8014098250187,None,2,,,,,,,,,,,,,,234,230,237,298.3510350530978,298.4511107513372,298.4344305931736,298.63460065896834,2,1,0.35053010645788163,298.4344305931736,None,None,None,False,None,None,None,None,None,None,None,None,None,None,None,None,,,,,,,,,,,,,,,,,,,,,,,,,,,,,,AM04EN20b,1,0xC010,G:\Experimente\CoScience\Tasks\Logfiles\,2022_Feb_16_1204,Flanker,2020.1.3,59.948324706098035,
HHH HHH,HHHSHHH,0,S,,,,,,,,,0,0,0,0,9,8,116,0,,,,,,,0.9664569485894039,300.0024322617428,None,2,,,,,,,,,,,,,,204,200,209,299.7021774547593,299.80226132082316,299.7855805792442,299.9857526869946,4,0,0.19322216339423903,299.7855805792442,None,None,None,False,None,None,None,None,None,None,None,None,None,None,None,None,,,,,,,,,,,,,,,,,,,,,,,,,,,,,,AM04EN20b,1,0xC010,G:\Experimente\CoScience\Tasks\Logfiles\,2022_Feb_16_1204,Flanker,2020.1.3,59.948324706098035,
SHH HHS,SHHHHHS,20,H,,,,,,,,,0,0,0,0,9,9,117,8,,,,,,,0.8270222983954942,301.3202172641577,None,4,,,,,,,,,,,,,,224,220,229,300.9699205241395,301.0700049736206,301.0533262739973,301.25349488125175,2,0,0.24645450739990338,301.0533262739973,None,None,None,False,None,None,None,None,None,None,None,None,None,None,None,None,,,,,,,,,,,,,,,,,,,,,,,,,,,,,,AM04EN20b,1,0xC010,G:\Experimente\CoScience\Tasks\Logfiles\,2022_Feb_16_1204,Flanker,2020.1.3,59.948324706098035,
SSS SSS,SSSHSSS,0,H,,,,,,,,,0,0,0,0,9,10,118,6,,,,,,,0.788395624632745,302.55460118404153,None,4,,,,,,,,,,,,,,204,200,209,302.15426076074436,302.25434608535033,302.23766388522927,302.4378359929815,2,0,0.2900736125284311,302.23766388522927,None,None,None,False,None,None,None,None,None,None,None,None,None,None,None,None,,,,,,,,,,,,,,,,,,,,,,,,,,,,,,AM04EN20b,1,0xC010,G:\Experimente\CoScience\Tasks\Logfiles\,2022_Feb_16_1204,Flanker,2020.1.3,59.948324706098035,
SSS SSS,SSSSSSS,30,S,,,,,,,,,0,0,0,0,9,11,119,4,,,,,,,0.8204919152318456,303.7723052374713,None,2,,,,,,,,,,,,,,234,230,237,303.35528378088566,303.45536793865904,303.4386863219552,303.6388575545807,2,1,0.31002294283825904,303.4386863219552,None,None,None,False,None,None,None,None,None,None,None,None,None,None,None,None,,,,,,,,,,,,,,,,,,,,,,,,,,,,,,AM04EN20b,1,0xC010,G:\Experimente\CoScience\Tasks\Logfiles\,2022_Feb_16_1204,Flanker,2020.1.3,59.948324706098035,
SSS SSS,SSSSSSS,30,S,,,,,,,,,0,0,0,0,10,0,120,5,,,,,,,0.9861760930911847,304.9900072489436,None,2,,,,,,,,,,,,,,234,230,237,304.6063464003946,304.70643230841597,304.6897518585447,304.88991959067425,2,1,0.27693654037102533,304.6897518585447,None,None,None,False,None,None,None,None,None,None,None,None,None,None,None,None,,,,,,,,,,,,,,,,,,,,,,,,,,,,,,AM04EN20b,1,0xC010,G:\Experimente\CoScience\Tasks\Logfiles\,2022_Feb_16_1204,Flanker,2020.1.3,59.948324706098035,
SSS SSS,SSSSSSS,30,S,,,,,,,,,0,0,0,0,10,1,121,5,,,,,,,0.8444712626056,306.3411554847662,None,2,,,,,,,,,,,,,,234,230,237,305.99085932816706,306.09094261081555,306.0742901649155,306.2744319350295,2,1,0.24036247642470698,306.0742901649155,None,None,None,False,None,None,None,None,None,None,None,None,None,None,None,None,,,,,,,,,,,,,,,,,,,,,,,,,,,,,,AM04EN20b,1,0xC010,G:\Experimente\CoScience\Tasks\Logfiles\,2022_Feb_16_1204,Flanker,2020.1.3,59.948324706098035,
SSH HSS,SSHHHSS,10,H,,,,,,,,,0,0,0,0,10,2,122,7,,,,,,,0.8210969279226393,307.6089005961039,None,4,,,,,,,,,,,,,,214,210,217,307.1918800146432,307.29196592266453,307.27528518108375,307.4754549551708,4,1,0.312353981888009,307.27528518108375,None,None,None,False,None,None,None,None,None,None,None,None,None,None,None,None,,,,,,,,,,,,,,,,,,,,,,,,,,,,,,AM04EN20b,1,0xC010,G:\Experimente\CoScience\Tasks\Logfiles\,2022_Feb_16_1204,Flanker,2020.1.3,59.948324706098035,
SHH HHS,SHHHHHS,20,H,,,,,,,,,0,0,0,0,10,3,123,8,,,,,,,0.9086129508736951,308.79324199954135,None,4,,,,,,,,,,,,,,224,220,229,308.4429446761078,308.5430285421735,308.5263565518344,308.72651728297205,2,0,0.23626747878188326,308.5263565518344,None,None,None,False,None,None,None,None,None,None,None,None,None,None,None,None,,,,,,,,,,,,,,,,,,,,,,,,,,,,,,AM04EN20b,1,0xC010,G:\Experimente\CoScience\Tasks\Logfiles\,2022_Feb_16_1204,Flanker,2020.1.3,59.948324706098035,
SSS SSS,SSSSSSS,30,S,,,,,,,,,0,0,0,0,10,4,124,3,,,,,,,0.8789241437603887,310.07766697733496,None,2,,,,,,,,,,,,,,234,230,237,309.71068920403013,309.8107736535112,309.79409116168245,309.99426239430977,2,1,0.25349225587888213,309.79409116168245,None,None,None,False,None,None,None,None,None,None,None,None,None,None,None,None,,,,,,,,,,,,,,,,,,,,,,,,,,,,,,AM04EN20b,1,0xC010,G:\Experimente\CoScience\Tasks\Logfiles\,2022_Feb_16_1204,Flanker,2020.1.3,59.948324706098035,
HHH HHH,HHHHHHH,30,H,,,,,,,,,0,0,0,0,10,5,125,9,,,,,,,0.8599818060891555,311.27868853893597,None,4,,,,,,,,,,,,,,234,230,237,310.96175444891196,311.06182752177847,311.04511877622645,311.2453255972341,4,1,0.2034523648035247,311.04511877622645,None,None,None,False,None,None,None,None,None,None,None,None,None,None,None,None,,,,,,,,,,,,,,,,,,,,,,,,,,,,,,AM04EN20b,1,0xC010,G:\Experimente\CoScience\Tasks\Logfiles\,2022_Feb_16_1204,Flanker,2020.1.3,59.948324706098035,
SSS SSS,SSSHSSS,0,H,,,,,,,,,0,0,0,0,10,6,126,6,,,,,,,0.867362765314939,312.4630296506639,None,4,,,,,,,,,,,,,,204,200,209,312.1460946855168,312.246178259873,312.22949489292114,312.42966670896385,2,0,0.20903128131249105,312.22949489292114,None,None,None,False,None,None,None,None,None,None,None,None,None,None,None,None,,,,,,,,,,,,,,,,,,,,,,,,,,,,,,AM04EN20b,1,0xC010,G:\Experimente\CoScience\Tasks\Logfiles\,2022_Feb_16_1204,Flanker,2020.1.3,59.948324706098035,
HHH HHH,HHHSHHH,0,S,,,,,,,,,0,0,0,0,10,7,127,0,,,,,,,0.8199796717101431,313.7641505388565,None,2,,,,,,,,,,,,,,204,200,207,313.330435505537,313.4305193716009,313.4138389217296,313.6140072372764,2,1,0.3286657127810031,313.4138389217296,None,None,None,False,None,None,None,None,None,None,None,None,None,None,None,None,,,,,,,,,,,,,,,,,,,,,,,,,,,,,,AM04EN20b,1,0xC010,G:\Experimente\CoScience\Tasks\Logfiles\,2022_Feb_16_1204,Flanker,2020.1.3,59.948324706098035,
SHH HHS,SHHHHHS,20,H,,,,,,,,,0,0,0,0,10,8,128,8,,,,,,,0.7651597482533508,314.96515751505467,None,4,,,,,,,,,,,,,,224,220,229,314.59817915833446,314.6982638995232,314.68158344965195,314.8817535154467,2,0,0.26089055551346974,314.68158344965195,None,None,None,False,None,None,None,None,None,None,None,None,None,None,None,None,,,,,,,,,,,,,,,,,,,,,,,,,,,,,,AM04EN20b,1,0xC010,G:\Experimente\CoScience\Tasks\Logfiles\,2022_Feb_16_1204,Flanker,2020.1.3,59.948324706098035,
HHH HHH,HHHHHHH,30,H,,,,,,,,,0,0,0,0,10,9,129,10,,,,,,,0.9896257333496858,316.1494980433672,None,4,,,,,,,,,,,,,,234,230,237,315.7324797955698,315.83256191138753,315.81588029468185,316.01605415268205,4,1,0.3165677047090867,315.81588029468185,None,None,None,False,None,None,None,None,None,None,None,None,None,None,None,None,,,,,,,,,,,,,,,,,,,,,,,,,,,,,,AM04EN20b,1,0xC010,G:\Experimente\CoScience\Tasks\Logfiles\,2022_Feb_16_1204,Flanker,2020.1.3,59.948324706098035,
SSH HSS,SSHHHSS,10,H,,,,,,,,,0,0,0,0,10,10,130,7,,,,,,,0.9196962272256439,317.5173281876032,None,4,,,,,,,,,,,,,,214,210,217,317.15034983088117,317.25043457206993,317.23375528903125,317.433923604578,4,1,0.25068544099667633,317.23375528903125,None,None,None,False,None,None,None,None,None,None,None,None,None,None,None,None,,,,,,,,,,,,,,,,,,,,,,,,,,,,,,AM04EN20b,1,0xC010,G:\Experimente\CoScience\Tasks\Logfiles\,2022_Feb_16_1204,Flanker,2020.1.3,59.948324706098035,
SSS SSS,SSSSSSS,30,S,,,,,,,,,0,0,0,0,10,11,131,4,,,,,,,0.9579299767868816,318.95189325818865,None,2,,,,,,,,,,,,,,234,230,239,318.45145671708815,318.5515411665692,318.5348732601433,318.73502669857953,4,0,0.3925299401853408,318.5348732601433,None,None,None,False,None,None,None,None,None,None,None,None,None,None,None,None,,,,,,,,,,,,,,,,,,,,,,,,,,,,,,AM04EN20b,1,0xC010,G:\Experimente\CoScience\Tasks\Logfiles\,2022_Feb_16_1204,Flanker,2020.1.3,59.948324706098035,
HHH HHH,HHHHHHH,30,H,,,,,,,,,0,0,0,0,11,0,132,9,,,,,,,0.9281947876548937,320.33639276738904,None,4,,,,,,,,,,,,,,234,230,237,319.9193713108034,320.019456051994,320.0027758938286,320.20294333425227,4,1,0.3135855732853088,320.0027758938286,None,None,None,False,None,None,None,None,None,None,None,None,None,None,None,None,,,,,,,,,,,,,,,,,,,,,,,,,,,,,,AM04EN20b,1,0xC010,G:\Experimente\CoScience\Tasks\Logfiles\,2022_Feb_16_1204,Flanker,2020.1.3,59.948324706098035,
SHH HHS,SHHHHHS,20,H,,,,,,,,,0,0,0,0,11,1,133,8,,,,,,,0.9450610926509568,321.7209033614963,None,4,,,,,,,,,,,,,,224,220,229,321.2705207134586,321.3706051629397,321.35393550626577,321.55409419544594,2,0,0.3373930343041138,321.35393550626577,None,None,None,False,None,None,None,None,None,None,None,None,None,None,None,None,,,,,,,,,,,,,,,,,,,,,,,,,,,,,,AM04EN20b,1,0xC010,G:\Experimente\CoScience\Tasks\Logfiles\,2022_Feb_16_1204,Flanker,2020.1.3,59.948324706098035,
HHH HHH,HHHHHHH,30,H,,,,,,,,,0,0,0,0,11,2,134,10,,,,,,,0.7665411788543399,323.0220163735721,None,4,,,,,,,,,,,,,,234,230,237,322.67171263256205,322.7717970820431,322.75511517363157,322.9552869896743,4,1,0.23719073476968333,322.75511517363157,None,None,None,False,None,None,None,None,None,None,None,None,None,None,None,None,,,,,,,,,,,,,,,,,,,,,,,,,,,,,,AM04EN20b,1,0xC010,G:\Experimente\CoScience\Tasks\Logfiles\,2022_Feb_16_1204,Flanker,2020.1.3,59.948324706098035,
HSS SSH,HSSSSSH,20,S,,,,,,,,,0,0,0,0,11,3,135,2,,,,,,,0.816895690457627,324.17298870943887,None,2,,,,,,,,,,,,,,224,220,227,323.78933106967816,323.88941318549405,323.8727315687902,324.0729036765424,2,1,0.2685896061502717,323.8727315687902,None,None,None,False,None,None,None,None,None,None,None,None,None,None,None,None,,,,,,,,,,,,,,,,,,,,,,,,,,,,,,AM04EN20b,1,0xC010,G:\Experimente\CoScience\Tasks\Logfiles\,2022_Feb_16_1204,Flanker,2020.1.3,59.948324706098035,
SSS SSS,SSSSSSS,30,S,,,,,,,,,0,0,0,0,11,4,136,4,,,,,,,0.9890002356406108,325.30728730471856,None,2,,,,,,,,,,,,,,234,230,239,324.9903505893217,325.09043620563534,325.07375488063917,325.27392407131083,4,0,0.2094974307819939,325.07375488063917,None,None,None,False,None,None,None,None,None,None,None,None,None,None,None,None,,,,,,,,,,,,,,,,,,,,,,,,,,,,,,AM04EN20b,1,0xC010,G:\Experimente\CoScience\Tasks\Logfiles\,2022_Feb_16_1204,Flanker,2020.1.3,59.948324706098035,
SSS SSS,SSSSSSS,30,S,,,,,,,,,0,0,0,0,11,5,137,4,,,,,,,0.8274608950919937,326.5083074077793,None,2,,,,,,,,,,,,,,234,230,237,326.308151343972,326.4082457115255,326.39154046646945,None,2,1,0.09368408309455845,326.39154046646945,None,None,None,False,None,None,None,None,None,None,None,None,None,None,None,None,,,,,,,,,,,,,,,,,,,,,,,,,,,,,,AM04EN20b,1,0xC010,G:\Experimente\CoScience\Tasks\Logfiles\,2022_Feb_16_1204,Flanker,2020.1.3,59.948324706098035,
SHH HHS,SHHHHHS,20,H,,,,,,,,,0,0,0,0,11,6,138,8,,,,,,,0.9613442470335515,327.72601029437647,None,4,,,,,,,,,,,,,,224,220,227,327.34235294632344,327.44243652068144,327.42575490397576,327.6259258448954,4,1,0.26947231471785926,327.42575490397576,None,None,None,False,None,None,None,None,None,None,None,None,None,None,None,None,,,,,,,,,,,,,,,,,,,,,,,,,,,,,,AM04EN20b,1,0xC010,G:\Experimente\CoScience\Tasks\Logfiles\,2022_Feb_16_1204,Flanker,2020.1.3,59.948324706098035,
SSS SSS,SSSSSSS,30,S,,,,,,,,,0,0,0,0,11,7,139,3,,,,,,,0.9675443493814121,329.0104341053375,None,2,,,,,,,,,,,,,,234,230,237,328.69350118214606,328.79358446479455,328.77690605687894,328.9770737890103,2,1,0.2132741749392153,328.77690605687894,None,None,None,False,None,None,None,None,None,None,None,None,None,None,None,None,,,,,,,,,,,,,,,,,,,,,,,,,,,,,,AM04EN20b,1,0xC010,G:\Experimente\CoScience\Tasks\Logfiles\,2022_Feb_16_1204,Flanker,2020.1.3,59.948324706098035,
HHH HHH,HHHSHHH,0,S,,,,,,,,,0,0,0,0,11,8,140,0,,,,,,,0.8393170994108019,330.2114568337711,None,2,,,,,,,,,,,,,,204,200,209,329.97792645164736,330.07801002600536,330.0613444532428,None,4,0,0.11981412362911215,330.0613444532428,None,None,None,False,None,None,None,None,None,None,None,None,None,None,None,None,,,,,,,,,,,,,,,,,,,,,,,,,,,,,,AM04EN20b,1,0xC010,G:\Experimente\CoScience\Tasks\Logfiles\,2022_Feb_16_1204,Flanker,2020.1.3,59.948324706098035,
HHS SHH,HHSSSHH,10,S,,,,,,,,,0,0,0,0,11,9,141,1,,,,,,,0.7862464322871993,331.41247927049517,None,2,,,,,,,,,,,,,,214,210,217,331.06218165535574,331.1622658131273,331.14558623838093,331.34575601246615,2,1,0.23954890266577422,331.14558623838093,None,None,None,False,None,None,None,None,None,None,None,None,None,None,None,None,,,,,,,,,,,,,,,,,,,,,,,,,,,,,,AM04EN20b,1,0xC010,G:\Experimente\CoScience\Tasks\Logfiles\,2022_Feb_16_1204,Flanker,2020.1.3,59.948324706098035,
HHS SHH,HHSSSHH,10,S,,,,,,,,,0,0,0,0,11,10,142,1,,,,,,,0.9422452417812794,332.6802235067098,None,2,,,,,,,,,,,,,,214,210,217,332.2131607005067,332.3132451499878,332.2965632415762,332.4967353493266,2,1,0.360533650711659,332.2965632415762,None,None,None,False,None,None,None,None,None,None,None,None,None,None,None,None,,,,,,,,,,,,,,,,,,,,,,,,,,,,,,AM04EN20b,1,0xC010,G:\Experimente\CoScience\Tasks\Logfiles\,2022_Feb_16_1204,Flanker,2020.1.3,59.948324706098035,
HHH HHH,HHHHHHH,30,H,,,,,,,,,0,0,0,0,11,11,143,9,,,,,,,0.8805343878319842,333.9479551994773,None,4,,,,,,,,,,,,,,234,230,237,333.63103306948324,333.73112101946026,333.7144461120406,333.91460684317826,4,1,0.20067092851968482,333.7144461120406,None,None,None,False,None,None,None,None,None,None,None,None,None,None,None,None,,,,,,,,,,,,,,,,,,,,,,,,,,,,,,AM04EN20b,1,0xC010,G:\Experimente\CoScience\Tasks\Logfiles\,2022_Feb_16_1204,Flanker,2020.1.3,59.948324706098035,
SSH HSS,SSHHHSS,10,H,,,,,,,,,0,0,0,0,12,0,144,7,,,,,,,0.9299022421919939,335.1823528296409,None,4,,,,,,,,,,,,,,214,210,219,334.8320555062073,334.9321405391056,334.9154595058171,335.1156284047793,2,0,0.24658606773118663,334.9154595058171,None,None,None,False,None,None,None,None,None,None,None,None,None,None,None,None,,,,,,,,,,,,,,,,,,,,,,,,,,,,,,AM04EN20b,1,0xC010,G:\Experimente\CoScience\Tasks\Logfiles\,2022_Feb_16_1204,Flanker,2020.1.3,59.948324706098035,
HHH HHH,HHHHHHH,30,H,,,,,,,,,0,0,0,0,12,1,145,10,,,,,,,0.7967070472104849,336.48345942413835,None,4,,,,,,,,,,,,,,234,230,239,336.11648106741814,336.21656960081054,336.19988419190304,336.400052507448,2,0,0.26113325661390263,336.19988419190304,None,None,None,False,None,None,None,None,None,None,None,None,None,None,None,None,,,,,,,,,,,,,,,,,,,,,,,,,,,,,,AM04EN20b,1,0xC010,G:\Experimente\CoScience\Tasks\Logfiles\,2022_Feb_16_1204,Flanker,2020.1.3,59.948324706098035,
HHH HHH,HHHHHHH,30,H,,,,,,,,,0,0,0,0,12,2,146,10,,,,,,,0.9592370462558732,337.61775685258544,None,4,,,,,,,,,,,,,,234,230,237,337.28414172927296,337.38422559533865,337.36754485375786,337.5677149195526,4,1,0.22243935024926031,337.36754485375786,None,None,None,False,None,None,None,None,None,None,None,None,None,None,None,None,,,,,,,,,,,,,,,,,,,,,,,,,,,,,,AM04EN20b,1,0xC010,G:\Experimente\CoScience\Tasks\Logfiles\,2022_Feb_16_1204,Flanker,2020.1.3,59.948324706098035,
HHH HHH,HHHHHHH,30,H,,,,,,,,,0,0,0,0,12,3,147,11,,,,,,,0.9637678869743502,338.9355447720809,None,4,,,,,,,,,,,,,,234,230,237,338.58524715693966,338.68533248154563,338.66866019949885,338.8688203472193,4,1,0.2503280986329628,338.66866019949885,None,None,None,False,None,None,None,None,None,None,None,None,None,None,None,None,,,,,,,,,,,,,,,,,,,,,,,,,,,,,,AM04EN20b,1,0xC010,G:\Experimente\CoScience\Tasks\Logfiles\,2022_Feb_16_1204,Flanker,2020.1.3,59.948324706098035,
HHH HHH,HHHHHHH,30,H,,,,,,,,,0,0,0,0,12,4,148,10,,,,,,,0.9399212789499067,340.2533306496189,None,4,,,,,,,,,,,,,,234,230,237,339.9030347847256,340.00312040103927,339.9864367423779,340.18660651646496,4,1,0.24249573741508357,339.9864367423779,None,None,None,False,None,None,None,None,None,None,None,None,None,None,None,None,,,,,,,,,,,,,,,,,,,,,,,,,,,,,,AM04EN20b,1,0xC010,G:\Experimente\CoScience\Tasks\Logfiles\,2022_Feb_16_1204,Flanker,2020.1.3,59.948324706098035,
SSS SSS,SSSHSSS,0,H,,,,,,,,,0,0,0,0,12,5,149,6,,,,,,,0.9525430705616993,341.5711182774048,None,4,,,,,,,,,,,,,,204,200,209,341.2041405041,341.30422641212135,341.28754654566546,341.4877148612122,2,0,0.25237209695842466,341.28754654566546,None,None,None,False,None,None,None,None,None,None,None,None,None,None,None,None,,,,,,,,,,,,,,,,,,,,,,,,,,,,,,AM04EN20b,1,0xC010,G:\Experimente\CoScience\Tasks\Logfiles\,2022_Feb_16_1204,Flanker,2020.1.3,59.948324706098035,
HHH HHH,HHHHHHH,30,H,,,,,,,,,0,0,0,0,12,6,150,9,,,,,,,0.9767644059836895,342.9222697220157,None,4,,,,,,,,,,,,,,234,230,237,342.5386097485898,342.6386944897804,342.6220128730747,342.82218264716175,4,1,0.2708649289616005,342.6220128730747,None,None,None,False,None,None,None,None,None,None,None,None,None,None,None,None,,,,,,,,,,,,,,,,,,,,,,,,,,,,,,AM04EN20b,1,0xC010,G:\Experimente\CoScience\Tasks\Logfiles\,2022_Feb_16_1204,Flanker,2020.1.3,59.948324706098035,
SSS SSS,SSSSSSS,30,S,,,,,,,,,0,0,0,0,12,7,151,4,,,,,,,0.9459889047297707,344.34014004903474,None,2,,,,,,,,,,,,,,234,230,237,343.9064463104023,344.0065231754743,343.989842725603,344.19001220798054,2,1,0.32901255365504767,343.989842725603,None,None,None,False,None,None,None,None,None,None,None,None,None,None,None,None,,,,,,,,,,,,,,,,,,,,,,,,,,,,,,AM04EN20b,1,0xC010,G:\Experimente\CoScience\Tasks\Logfiles\,2022_Feb_16_1204,Flanker,2020.1.3,59.948324706098035,
HHH HHH,HHHHHHH,30,H,,,,,,,,,0,0,0,0,12,8,152,11,,,,,,,0.9372733740102162,345.6579279685302,None,4,,,,,,,,,,,,,,234,230,237,345.2909723650373,345.39105098035725,345.3743533197103,345.574523385505,4,1,0.2554732452663302,345.3743533197103,None,None,None,False,None,None,None,None,None,None,None,None,None,None,None,None,,,,,,,,,,,,,,,,,,,,,,,,,,,,,,AM04EN20b,1,0xC010,G:\Experimente\CoScience\Tasks\Logfiles\,2022_Feb_16_1204,Flanker,2020.1.3,59.948324706098035,
HHH HHH,HHHHHHH,30,H,,,,,,,,,0,0,0,0,12,9,153,11,,,,,,,0.9961826504674662,346.9423529463238,None,4,,,,,,,,,,,,,,234,230,237,346.6087369478864,346.7088219807847,346.6921418226211,346.89231130499866,4,1,0.22168207614413404,346.6921418226211,None,None,None,False,None,None,None,None,None,None,None,None,None,None,None,None,,,,,,,,,,,,,,,,,,,,,,,,,,,,,,AM04EN20b,1,0xC010,G:\Experimente\CoScience\Tasks\Logfiles\,2022_Feb_16_1204,Flanker,2020.1.3,59.948324706098035,
SSS SSS,SSSSSSS,30,S,,,,,,,,,0,0,0,0,12,10,154,5,,,,,,,0.8276572112589893,348.3602264821311,None,2,,,,,,,,,,,,,,234,230,237,347.94320765091834,348.04329005844374,348.0266224437255,348.2267796743654,2,1,0.31214686916973733,348.0266224437255,None,None,None,False,None,None,None,None,None,None,None,None,None,None,None,None,,,,,,,,,,,,,,,,,,,,,,,,,,,,,,AM04EN20b,1,0xC010,G:\Experimente\CoScience\Tasks\Logfiles\,2022_Feb_16_1204,Flanker,2020.1.3,59.948324706098035,
HHH HHH,HHHSHHH,0,S,,,,,,,,,0,0,0,0,12,11,155,0,,,,,,,0.7834926459842667,349.5779293687283,None,2,,,,,,,,,,,,,,204,200,209,349.1942699787196,349.29435471990837,349.27767777053305,349.4778440441223,4,0,0.28306853534922993,349.27767777053305,None,None,None,False,None,None,None,None,None,None,None,None,None,None,None,None,,,,,,,,,,,,,,,,,,,,,,,,,,,,,,AM04EN20b,1,0xC010,G:\Experimente\CoScience\Tasks\Logfiles\,2022_Feb_16_1204,Flanker,2020.1.3,59.948324706098035,
SSS SSS,SSSSSSS,30,S,,,,,,,,,0,0,0,0,13,0,156,5,,,,,,,0.9465477888388576,350.7956313802006,None,2,,,,,,,,,,,,,,234,230,237,350.36193064057625,350.46201304809983,350.44533318164395,350.6455041225636,2,1,0.3213770953752828,350.44533318164395,None,None,None,False,None,None,None,None,None,None,None,None,None,None,None,None,,,,,,,,,,,,,,,,,,,,,,,,,,,,,,AM04EN20b,1,0xC010,G:\Experimente\CoScience\Tasks\Logfiles\,2022_Feb_16_1204,Flanker,2020.1.3,59.948324706098035,
SSS SSS,SSSSSSS,30,S,,,,,,,,,0,0,0,0,13,1,157,5,,,,,,,0.953474904164703,352.0800563579942,None,2,,,,,,,,,,,,,,234,230,237,351.7464071048398,351.8465169329229,351.82983444109414,352.03001354983826,2,1,0.23184110078909725,351.82983444109414,None,None,None,False,None,None,None,None,None,None,None,None,None,None,None,None,,,,,,,,,,,,,,,,,,,,,,,,,,,,,,AM04EN20b,1,0xC010,G:\Experimente\CoScience\Tasks\Logfiles\,2022_Feb_16_1204,Flanker,2020.1.3,59.948324706098035,
HSS SSH,HSSSSSH,20,S,,,,,,,,,0,0,0,0,13,2,158,2,,,,,,,0.765401904566786,353.5646528601228,None,2,,,,,,,,,,,,,,224,220,227,353.0475469540561,353.14763140353716,353.1309509536659,353.3311201443357,2,1,0.41069955966668203,353.1309509536659,None,None,None,False,None,None,None,None,None,None,None,None,None,None,None,None,,,,,,,,,,,,,,,,,,,,,,,,,,,,,,AM04EN20b,1,0xC010,G:\Experimente\CoScience\Tasks\Logfiles\,2022_Feb_16_1204,Flanker,2020.1.3,59.948324706098035,
HHS SHH,HHSSSHH,10,S,,,,,,,,,0,0,0,0,13,3,159,1,,,,,,,0.8875343923364856,354.6822710055312,None,2,,,,,,,,,,,,,,214,210,217,354.33197484893026,354.43205754816336,354.41540539397283,354.61554599725423,2,1,0.2432267577969469,354.41540539397283,None,None,None,False,None,None,None,None,None,None,None,None,None,None,None,None,,,,,,,,,,,,,,,,,,,,,,,,,,,,,,AM04EN20b,1,0xC010,G:\Experimente\CoScience\Tasks\Logfiles\,2022_Feb_16_1204,Flanker,2020.1.3,59.948324706098035,
HHH HHH,HHHHHHH,30,H,,,,,,,,,0,0,0,0,13,4,160,11,,,,,,,0.8655955796769229,355.9333342084574,None,4,,,,,,,,,,,,,,234,230,239,355.5830374684392,355.6831216262126,355.6664592622401,355.86661153384375,2,0,0.2491376380694419,355.6664592622401,None,None,None,False,None,None,None,None,None,None,None,None,None,None,None,None,,,,,,,,,,,,,,,,,,,,,,,,,,,,,,AM04EN20b,1,0xC010,G:\Experimente\CoScience\Tasks\Logfiles\,2022_Feb_16_1204,Flanker,2020.1.3,59.948324706098035,
HHH HHH,HHHSHHH,0,S,,,,,,,,,0,0,0,0,13,5,161,0,,,,,,,0.8860871391207583,357.13435752030637,None,2,,,,,,,,,,,,,,204,200,209,356.8007386047884,356.9008230542695,356.8841443546462,357.08431325360834,4,0,0.22644041790044867,356.8841443546462,None,None,None,False,None,None,None,None,None,None,None,None,None,None,None,None,,,,,,,,,,,,,,,,,,,,,,,,,,,,,,AM04EN20b,1,0xC010,G:\Experimente\CoScience\Tasks\Logfiles\,2022_Feb_16_1204,Flanker,2020.1.3,59.948324706098035,
HHH HHH,HHHHHHH,30,H,,,,,,,,,0,0,0,0,13,6,162,9,,,,,,,0.9263916901653522,358.45214281442713,None,4,,,,,,,,,,,,,,234,230,237,358.0351219412587,358.13520784928005,358.11855102775917,358.31869396470574,4,1,0.3150073583346966,358.11855102775917,None,None,None,False,None,None,None,None,None,None,None,None,None,None,None,None,,,,,,,,,,,,,,,,,,,,,,,,,,,,,,AM04EN20b,1,0xC010,G:\Experimente\CoScience\Tasks\Logfiles\,2022_Feb_16_1204,Flanker,2020.1.3,59.948324706098035,
SSS SSS,SSSHSSS,0,H,,,,,,,,,0,0,0,0,13,7,163,6,,,,,,,0.9732176407251791,359.7532502840495,None,4,,,,,,,,,,,,,,204,200,209,359.3862719273293,359.4863549182701,359.4696753435219,359.6698454093166,2,0,0.2618400652263517,359.4696753435219,None,None,None,False,None,None,None,None,None,None,None,None,None,None,None,None,,,,,,,,,,,,,,,,,,,,,,,,,,,,,,AM04EN20b,1,0xC010,G:\Experimente\CoScience\Tasks\Logfiles\,2022_Feb_16_1204,Flanker,2020.1.3,59.948324706098035,
SSS SSS,SSSHSSS,0,H,,,,,,,,,0,0,0,0,13,8,164,6,,,,,,,0.8827008599021147,362.38882408108293,None,4,,,,,,,,,,,,,,204,200,206,360.7374204548596,360.83750607117327,360.8208232876368,361.02099481197183,4,1,0.5206682448078936,360.8208232876368,None,361.38797346039973,None,False,None,None,None,None,None,None,None,None,None,None,None,None,,,,,,,,,,,,,,,,,,,,,,,,,,,,,,AM04EN20b,1,0xC010,G:\Experimente\CoScience\Tasks\Logfiles\,2022_Feb_16_1204,Flanker,2020.1.3,59.948324706098035,
HHH HHH,HHHHHHH,30,H,,,,,,,,,0,0,0,0,13,9,165,10,,,,,,,0.75729462548142,363.7566559755651,None,4,,,,,,,,,,,,,,234,230,237,363.27291038582734,363.3729951270161,363.35631292689504,363.55648532635496,4,1,0.36814868942747125,363.35631292689504,None,None,None,False,None,None,None,None,None,None,None,None,None,None,None,None,,,,,,,,,,,,,,,,,,,,,,,,,,,,,,AM04EN20b,1,0xC010,G:\Experimente\CoScience\Tasks\Logfiles\,2022_Feb_16_1204,Flanker,2020.1.3,59.948324706098035,
SSS SSS,SSSHSSS,0,H,,,,,,,,,0,0,0,0,13,10,166,6,,,,,,,0.9012761229936974,364.8409097207332,None,4,,,,,,,,,,,,,,204,200,209,364.5239756307092,364.62405862164997,364.6073778800692,364.8075485292793,2,0,0.2130262230966764,364.6073778800692,None,None,None,False,None,None,None,None,None,None,None,None,None,None,None,None,,,,,,,,,,,,,,,,,,,,,,,,,,,,,,AM04EN20b,1,0xC010,G:\Experimente\CoScience\Tasks\Logfiles\,2022_Feb_16_1204,Flanker,2020.1.3,59.948324706098035,
SSS SSS,SSSHSSS,0,H,,,,,,,,,0,0,0,0,13,11,167,6,,,,,,,0.8944814779704204,366.0919735070747,None,4,,,,,,,,,,,,,,204,200,207,365.7416761836412,365.84176150824715,365.82507989154146,366.0252502490457,4,1,0.24829051788219658,365.82507989154146,None,None,None,False,None,None,None,None,None,None,None,None,None,None,None,None,,,,,,,,,,,,,,,,,,,,,,,,,,,,,,AM04EN20b,1,0xC010,G:\Experimente\CoScience\Tasks\Logfiles\,2022_Feb_16_1204,Flanker,2020.1.3,59.948324706098035,
SSH HSS,SSHHHSS,10,H,,,,,,,,,0,0,0,0,14,0,168,7,,,,,,,0.8637267076293788,367.32635742695857,None,4,,,,,,,,,,,,,,214,210,217,366.9927420119384,367.0928250028792,367.0761463032559,367.27631403538544,4,1,0.22721023545273056,367.0761463032559,None,None,None,False,None,None,None,None,None,None,None,None,None,None,None,None,,,,,,,,,,,,,,,,,,,,,,,,,,,,,,AM04EN20b,1,0xC010,G:\Experimente\CoScience\Tasks\Logfiles\,2022_Feb_16_1204,Flanker,2020.1.3,59.948324706098035,
HHH HHH,HHHHHHH,30,H,,,,,,,,,0,0,0,0,14,1,169,11,,,,,,,0.7775922077797753,368.47733588869414,None,4,,,,,,,,,,,,,,234,230,237,368.1937632818317,368.2938459810648,368.2771661146089,None,4,1,0.17717209462352912,368.2771661146089,None,None,None,False,None,None,None,None,None,None,None,None,None,None,None,None,,,,,,,,,,,,,,,,,,,,,,,,,,,,,,AM04EN20b,1,0xC010,G:\Experimente\CoScience\Tasks\Logfiles\,2022_Feb_16_1204,Flanker,2020.1.3,59.948324706098035,
SSS SSS,SSSSSSS,30,S,,,,,,,,,0,0,0,0,14,2,170,4,,,,,,,0.8192599309403121,369.47818592596013,None,2,,,,,,,,,,,,,,234,230,239,369.2613368688344,369.3614213183155,369.3447411601519,None,4,0,0.10856936161144404,369.3447411601519,None,None,None,False,None,None,None,None,None,None,None,None,None,None,None,None,,,,,,,,,,,,,,,,,,,,,,,,,,,,,,AM04EN20b,1,0xC010,G:\Experimente\CoScience\Tasks\Logfiles\,2022_Feb_16_1204,Flanker,2020.1.3,59.948324706098035,
HHS SHH,HHSSSHH,10,S,,,,,,,,,0,0,0,0,14,3,171,1,,,,,,,0.9466759925783681,370.64584687952447,None,2,,,,,,,,,,,,,,214,210,217,370.312230005964,370.41231591398537,370.39563138020094,370.59580436307624,2,1,0.22765625706597348,370.39563138020094,None,None,None,False,None,None,None,None,None,None,None,None,None,None,None,None,,,,,,,,,,,,,,,,,,,,,,,,,,,,,,AM04EN20b,1,0xC010,G:\Experimente\CoScience\Tasks\Logfiles\,2022_Feb_16_1204,Flanker,2020.1.3,59.948324706098035,
SSS SSS,SSSSSSS,30,S,,,,,,,,,0,0,0,0,14,4,172,5,,,,,,,0.8875884842049405,371.8468684411255,None,2,,,,,,,,,,,,,,234,230,237,371.5966573174228,371.6967406000713,371.6800683180245,None,2,1,0.1451953495889029,371.6800683180245,None,None,None,False,None,None,None,None,None,None,None,None,None,None,None,None,,,,,,,,,,,,,,,,,,,,,,,,,,,,,,AM04EN20b,1,0xC010,G:\Experimente\CoScience\Tasks\Logfiles\,2022_Feb_16_1204,Flanker,2020.1.3,59.948324706098035,
HHH HHH,HHHSHHH,0,S,,,,,,,,,0,0,0,0,14,5,173,0,,,,,,,0.7938084764349497,372.9811734539835,None,2,,,,,,,,,,,,,,204,200,207,372.747635195743,372.84771877009916,372.8310389036433,None,2,1,0.1311974469699635,372.8310389036433,None,None,None,False,None,None,None,None,None,None,None,None,None,None,None,None,,,,,,,,,,,,,,,,,,,,,,,,,,,,,,AM04EN20b,1,0xC010,G:\Experimente\CoScience\Tasks\Logfiles\,2022_Feb_16_1204,Flanker,2020.1.3,59.948324706098035,
HHH HHH,HHHHHHH,30,H,,,,,,,,,0,0,0,0,14,6,174,10,,,,,,,0.8753556346245139,374.0987825564407,None,4,,,,,,,,,,,,,,234,230,237,373.7818472995841,373.8819311656498,373.8652536328591,374.06542078157327,4,1,0.2099667890379351,373.8652536328591,None,None,None,False,None,None,None,None,None,None,None,None,None,None,None,None,,,,,,,,,,,,,,,,,,,,,,,,,,,,,,AM04EN20b,1,0xC010,G:\Experimente\CoScience\Tasks\Logfiles\,2022_Feb_16_1204,Flanker,2020.1.3,59.948324706098035,
HHS SHH,HHSSSHH,10,S,,,,,,,,,0,0,0,0,14,7,175,1,,,,,,,0.8875529891233933,375.3498483847379,None,2,,,,,,,,,,,,,,214,210,217,374.9828691528928,375.0829524355431,375.0663078657617,375.26644380171274,2,1,0.25987774515488127,375.0663078657617,None,None,None,False,None,None,None,None,None,None,None,None,None,None,None,None,,,,,,,,,,,,,,,,,,,,,,,,,,,,,,AM04EN20b,1,0xC010,G:\Experimente\CoScience\Tasks\Logfiles\,2022_Feb_16_1204,Flanker,2020.1.3,59.948324706098035,
HHH HHH,HHHHHHH,30,H,,,,,,,,,0,0,0,0,14,8,176,10,,,,,,,0.9476535210369773,376.5175052543909,None,4,,,,,,,,,,,,,,234,230,237,376.25061455594005,376.3506995888365,376.33401797213264,None,4,1,0.15616648945433553,376.33401797213264,None,None,None,False,None,None,None,None,None,None,None,None,None,None,None,None,,,,,,,,,,,,,,,,,,,,,,,,,,,,,,AM04EN20b,1,0xC010,G:\Experimente\CoScience\Tasks\Logfiles\,2022_Feb_16_1204,Flanker,2020.1.3,59.948324706098035,
HHH HHH,HHHHHHH,30,H,,,,,,,,,0,0,0,0,14,9,177,9,,,,,,,0.8705998015288616,377.818613015721,None,4,,,,,,,,,,,,,,234,230,239,377.46832881915,377.56840655934684,377.55171969189723,377.7518845069462,2,0,0.23447843329449825,377.55171969189723,None,None,None,False,None,None,None,None,None,None,None,None,None,None,None,None,,,,,,,,,,,,,,,,,,,,,,,,,,,,,,AM04EN20b,1,0xC010,G:\Experimente\CoScience\Tasks\Logfiles\,2022_Feb_16_1204,Flanker,2020.1.3,59.948324706098035,
HHH HHH,HHHHHHH,30,H,,,,,,,,,0,0,0,0,14,10,178,11,,,,,,,0.8000897187345382,378.8528262863947,None,4,,,,,,,,,,,,,,234,230,237,378.7026993204654,378.8027837699465,378.7861036117829,None,4,1,0.041003359017850016,378.7861036117829,None,None,None,False,None,None,None,None,None,None,None,None,None,None,None,None,,,,,,,,,,,,,,,,,,,,,,,,,,,,,,AM04EN20b,1,0xC010,G:\Experimente\CoScience\Tasks\Logfiles\,2022_Feb_16_1204,Flanker,2020.1.3,59.948324706098035,
SHH HHS,SHHHHHS,20,H,,,,,,,,,0,0,0,0,14,11,179,8,,,,,,,0.7913914382118293,379.9704458903434,None,4,,,,,,,,,,,,,,224,220,229,379.6535100500714,379.75355803604543,379.7368877959543,379.93708119839357,2,0,0.20621834056146326,379.7368877959543,None,None,None,False,None,None,None,None,None,None,None,None,None,None,None,None,,,,,,,,,,,,,,,,,,,,,,,,,,,,,,AM04EN20b,1,0xC010,G:\Experimente\CoScience\Tasks\Logfiles\,2022_Feb_16_1204,Flanker,2020.1.3,59.948324706098035,
HHH HHH,HHHHHHH,30,H,,,,,,,,,0,0,0,0,15,0,180,11,,,,,,,0.9389399435428496,381.0046550771058,None,4,,,,,,,,,,,,,,234,230,237,380.77112498668976,380.8712103112957,380.8545386126643,None,4,1,0.12454883703321684,380.8545386126643,None,None,None,False,None,None,None,None,None,None,None,None,None,None,None,None,,,,,,,,,,,,,,,,,,,,,,,,,,,,,,AM04EN20b,1,0xC010,G:\Experimente\CoScience\Tasks\Logfiles\,2022_Feb_16_1204,Flanker,2020.1.3,59.948324706098035,
SHH HHS,SHHHHHS,20,H,,,,,,,,,0,0,0,0,15,1,181,8,,,,,,,0.894428678458568,384.0572514975556,None,4,,,,,,,,,,,,,,224,220,0,381.9554646398774,382.0555479225277,382.0388700980275,382.23903607990906,None,0,,382.0388700980275,None,383.05640087687425,None,False,None,None,None,None,None,None,None,None,None,None,None,None,,,,,,,,,,,,,,,,,,,,,,,,,,,,,,AM04EN20b,1,0xC010,G:\Experimente\CoScience\Tasks\Logfiles\,2022_Feb_16_1204,Flanker,2020.1.3,59.948324706098035,
HHS SHH,HHSSSHH,10,S,,,,,,,,,0,0,0,0,15,2,182,1,,,,,,,0.9697092821238706,385.2749543841528,None,2,,,,,,,,,,,,,,214,210,219,384.9580202941288,385.058103868485,385.0414228351965,385.24159085903557,4,0,0.21255103067596792,385.0414228351965,None,None,None,False,None,None,None,None,None,None,None,None,None,None,None,None,,,,,,,,,,,,,,,,,,,,,,,,,,,,,,AM04EN20b,1,0xC010,G:\Experimente\CoScience\Tasks\Logfiles\,2022_Feb_16_1204,Flanker,2020.1.3,59.948324706098035,
HHH HHH,HHHHHHH,30,H,,,,,,,,,0,0,0,0,15,3,183,9,,,,,,,0.8144241503306888,386.5927475543922,None,4,,,,,,,,,,,,,,234,230,237,386.2591265969186,386.35921075469196,386.3425300131112,386.542716122849,4,1,0.22743368382180051,386.3425300131112,None,None,None,False,None,None,None,None,None,None,None,None,None,None,None,None,,,,,,,,,,,,,,,,,,,,,,,,,,,,,,AM04EN20b,1,0xC010,G:\Experimente\CoScience\Tasks\Logfiles\,2022_Feb_16_1204,Flanker,2020.1.3,59.948324706098035,
SSS SSS,SSSSSSS,30,S,,,,,,,,,0,0,0,0,15,4,184,3,,,,,,,0.9762539999437592,387.81044431512055,None,2,,,,,,,,,,,,,,234,230,237,387.41010447523877,387.51019009155243,387.49350789143136,387.6936773738107,2,1,0.2864155935458257,387.49350789143136,None,None,None,False,None,None,None,None,None,None,None,None,None,None,None,None,,,,,,,,,,,,,,,,,,,,,,,,,,,,,,AM04EN20b,1,0xC010,G:\Experimente\CoScience\Tasks\Logfiles\,2022_Feb_16_1204,Flanker,2020.1.3,59.948324706098035,
HHS SHH,HHSSSHH,10,S,,,,,,,,,0,0,0,0,15,5,185,1,,,,,,,0.8337444886311718,389.1949560760586,None,2,,,,,,,,,,,,,,214,210,217,388.79461506934604,388.8946998105348,388.87801848553863,389.078187967918,2,1,0.28589051904964435,388.87801848553863,None,None,None,False,None,None,None,None,None,None,None,None,None,None,None,None,,,,,,,,,,,,,,,,,,,,,,,,,,,,,,AM04EN20b,1,0xC010,G:\Experimente\CoScience\Tasks\Logfiles\,2022_Feb_16_1204,Flanker,2020.1.3,59.948324706098035,
SSS SSS,SSSSSSS,30,S,,,,,,,,,0,0,0,0,15,6,186,3,,,,,,,0.9745493508806582,390.39597413716365,None,2,,,,,,,,,,,,,,234,230,237,390.0289989892299,390.12908285529556,390.11241961619817,390.31257217951133,2,1,0.2514818039799138,390.11241961619817,None,None,None,False,None,None,None,None,None,None,None,None,None,None,None,None,,,,,,,,,,,,,,,,,,,,,,,,,,,,,,AM04EN20b,1,0xC010,G:\Experimente\CoScience\Tasks\Logfiles\,2022_Feb_16_1204,Flanker,2020.1.3,59.948324706098035,
SSS SSS,SSSSSSS,30,S,,,,,,,,,0,0,0,0,15,7,187,4,,,,,,,0.9262071389950108,391.7471121632043,None,2,,,,,,,,,,,,,,234,230,239,391.3801466416371,391.4802307994105,391.4635500578297,391.6637224572896,4,0,0.25132661529823963,391.4635500578297,None,None,None,False,None,None,None,None,None,None,None,None,None,None,None,None,,,,,,,,,,,,,,,,,,,,,,,,,,,,,,AM04EN20b,1,0xC010,G:\Experimente\CoScience\Tasks\Logfiles\,2022_Feb_16_1204,Flanker,2020.1.3,59.948324706098035,
HHH HHH,HHHSHHH,0,S,,,,,,,,,0,0,0,0,15,8,188,0,,,,,,,0.7561853052742558,392.898104918635,None,2,,,,,,,,,,,,,,204,200,207,392.68125440296717,392.78133914415776,392.7646581108693,None,2,1,0.11215182820706104,392.7646581108693,None,None,None,False,None,None,None,None,None,None,None,None,None,None,None,None,,,,,,,,,,,,,,,,,,,,,,,,,,,,,,AM04EN20b,1,0xC010,G:\Experimente\CoScience\Tasks\Logfiles\,2022_Feb_16_1204,Flanker,2020.1.3,59.948324706098035,
SSS SSS,SSSSSSS,30,S,,,,,,,,,0,0,0,0,15,9,189,4,,,,,,,0.9899663977350739,393.93231731418564,None,2,,,,,,,,,,,,,,234,230,237,393.66542603231755,393.7655107735063,393.74882886509477,None,2,1,0.1659649629455089,393.74882886509477,None,None,None,False,None,None,None,None,None,None,None,None,None,None,None,None,,,,,,,,,,,,,,,,,,,,,,,,,,,,,,AM04EN20b,1,0xC010,G:\Experimente\CoScience\Tasks\Logfiles\,2022_Feb_16_1204,Flanker,2020.1.3,59.948324706098035,
HHH HHH,HHHHHHH,30,H,,,,,,,,,0,0,0,0,15,10,190,10,,,,,,,0.8102531989196032,395.1667009423618,None,4,,,,,,,,,,,,,,234,230,239,394.9331833953929,395.03325413459606,395.0165733930153,None,2,0,0.13321402473957278,395.0165733930153,None,None,None,False,None,None,None,None,None,None,None,None,None,None,None,None,,,,,,,,,,,,,,,,,,,,,,,,,,,,,,AM04EN20b,1,0xC010,G:\Experimente\CoScience\Tasks\Logfiles\,2022_Feb_16_1204,Flanker,2020.1.3,59.948324706098035,
HHH HHH,HHHHHHH,30,H,,,,,,,,,0,0,0,0,15,11,191,9,,,,,,,0.7783665835194331,404.55802204437714,None,4,,,,,,,,,,,,,,234,230,237,395.9840622388292,396.08415777321716,396.0674668218544,396.2676374710645,4,1,0.2282784703420475,396.0674668218544,None,None,None,False,None,None,None,None,None,396.33435897884556,None,space,398.31937918692165,None,404.4579358446463,None,6.113943207357806,,,,,,,,,,,,,,,,,,,,,,,,,,,,,AM04EN20b,1,0xC010,G:\Experimente\CoScience\Tasks\Logfiles\,2022_Feb_16_1204,Flanker,2020.1.3,59.948324706098035,
SHH HHS,SHHHHHS,20,H,,,,,,,,,0,0,0,0,16,0,192,8,,,,,,,0.9957735738907508,405.8090852473015,None,4,,,,,,,,,,,,,,224,220,227,405.3420227328079,405.44210630716407,405.42542760754077,405.62559475625494,4,1,0.3671052497229539,405.42542760754077,None,None,None,False,None,None,None,None,None,None,None,None,None,None,None,None,,,,,,,,,,,,,,,,,,,,,,,,,,,,,,AM04EN20b,1,0xC010,G:\Experimente\CoScience\Tasks\Logfiles\,2022_Feb_16_1204,Flanker,2020.1.3,59.948324706098035,
SSH HSS,SSHHHSS,10,H,,,,,,,,,0,0,0,0,16,1,193,7,,,,,,,0.9579991066354467,407.0267875504833,None,4,,,,,,,,,,,,,,214,210,217,406.80993703481545,406.910023526254,406.89334015930035,None,4,1,0.10717208003916312,406.89334015930035,None,None,None,False,None,None,None,None,None,None,None,None,None,None,None,None,,,,,,,,,,,,,,,,,,,,,,,,,,,,,,AM04EN20b,1,0xC010,G:\Experimente\CoScience\Tasks\Logfiles\,2022_Feb_16_1204,Flanker,2020.1.3,59.948324706098035,
SHH HHS,SHHHHHS,20,H,,,,,,,,,0,0,0,0,16,2,194,8,,,,,,,0.8187951409188249,408.32789326985767,None,4,,,,,,,,,,,,,,224,220,227,407.994277563128,408.09436201260905,408.0776978983886,408.2778516285325,4,1,0.22079470024800685,408.0776978983886,None,None,None,False,None,None,None,None,None,None,None,None,None,None,None,None,,,,,,,,,,,,,,,,,,,,,,,,,,,,,,AM04EN20b,1,0xC010,G:\Experimente\CoScience\Tasks\Logfiles\,2022_Feb_16_1204,Flanker,2020.1.3,59.948324706098035,
SSH HSS,SSHHHSS,10,H,,,,,,,,,0,0,0,0,16,3,195,7,,,,,,,0.8539265122270424,409.46219186513736,None,4,,,,,,,,,,,,,,214,210,217,409.16193676644434,409.2620220910503,409.24533930751386,409.44551345722175,4,1,0.19911466606026806,409.24533930751386,None,None,None,False,None,None,None,None,None,None,None,None,None,None,None,None,,,,,,,,,,,,,,,,,,,,,,,,,,,,,,AM04EN20b,1,0xC010,G:\Experimente\CoScience\Tasks\Logfiles\,2022_Feb_16_1204,Flanker,2020.1.3,59.948324706098035,
HHH HHH,HHHHHHH,30,H,,,,,,,,,0,0,0,0,16,4,196,11,,,,,,,0.9612331990844527,410.67989475173454,None,4,,,,,,,,,,,,,,234,230,237,410.3295962614684,410.42968216948975,410.4130002610782,410.6131720771209,4,1,0.23743226903752657,410.4130002610782,None,None,None,False,None,None,None,None,None,None,None,None,None,None,None,None,,,,,,,,,,,,,,,,,,,,,,,,,,,,,,AM04EN20b,1,0xC010,G:\Experimente\CoScience\Tasks\Logfiles\,2022_Feb_16_1204,Flanker,2020.1.3,59.948324706098035,
SSS SSS,SSSSSSS,30,S,,,,,,,,,0,0,0,0,16,5,197,5,,,,,,,0.9036764895579459,411.8475545384663,None,2,,,,,,,,,,,,,,234,230,239,411.64738388925434,411.7474680470277,411.73080159914207,None,4,0,0.09059839531437319,411.73080159914207,None,None,None,False,None,None,None,None,None,None,None,None,None,None,None,None,,,,,,,,,,,,,,,,,,,,,,,,,,,,,,AM04EN20b,1,0xC010,G:\Experimente\CoScience\Tasks\Logfiles\,2022_Feb_16_1204,Flanker,2020.1.3,59.948324706098035,
HHH HHH,HHHSHHH,0,S,,,,,,,,,0,0,0,0,16,6,198,0,,,,,,,0.9542063772191782,413.1319800996753,None,2,,,,,,,,,,,,,,204,200,207,412.76500115953786,412.86508560902075,412.8484089513531,413.0485749332347,2,1,0.2569624148763978,412.8484089513531,None,None,None,False,None,None,None,None,None,None,None,None,None,None,None,None,,,,,,,,,,,,,,,,,,,,,,,,,,,,,,AM04EN20b,1,0xC010,G:\Experimente\CoScience\Tasks\Logfiles\,2022_Feb_16_1204,Flanker,2020.1.3,59.948324706098035,
HSS SSH,HSSSSSH,20,S,,,,,,,,,0,0,0,0,16,7,199,2,,,,,,,0.7730560524529433,414.31631829432445,None,2,,,,,,,,,,,,,,224,220,227,414.0994686537815,414.199553686678,414.1828749870547,None,2,1,0.11751721442124108,414.1828749870547,None,None,None,False,None,None,None,None,None,None,None,None,None,None,None,None,,,,,,,,,,,,,,,,,,,,,,,,,,,,,,AM04EN20b,1,0xC010,G:\Experimente\CoScience\Tasks\Logfiles\,2022_Feb_16_1204,Flanker,2020.1.3,59.948324706098035,
