"Onset","Duration","Participant","date_time","Order_Experimenter","Response_Mapping","Running","Trial","Event","ExperimenterPresence","Congruency","Target","Response","Accuracy","RT","RT_Condition","Post_Trial","Cutoff","TaskPerf"
70.8404441546809,0.1,"AM04EN20b","2022_Feb_16_1204","Present_First","S_red","Practice",0,"PracFlankers",NA,0,"H","4",1,0.508790184607278,NA,NA,NA,69.7916666666667
70.9238277347249,0.2,"AM04EN20b","2022_Feb_16_1204","Present_First","S_red","Practice",0,"PracTarget",NA,0,"H","4",1,0.508790184607278,NA,NA,NA,69.7916666666667
71.4326179193322,0,"AM04EN20b","2022_Feb_16_1204","Present_First","S_red","Practice",0,"PracResponse",NA,0,"H","4",1,0.508790184607278,NA,NA,NA,69.7916666666667
72.2749946398635,0.1,"AM04EN20b","2022_Feb_16_1204","Present_First","S_red","Practice",1,"PracFlankers",NA,1,"S","2",1,0.45124406191826,NA,NA,NA,69.7916666666667
72.3583983477656,0.2,"AM04EN20b","2022_Feb_16_1204","Present_First","S_red","Practice",1,"PracTarget",NA,1,"S","2",1,0.45124406191826,NA,NA,NA,69.7916666666667
72.8096424096839,0,"AM04EN20b","2022_Feb_16_1204","Present_First","S_red","Practice",1,"PracResponse",NA,1,"S","2",1,0.45124406191826,NA,NA,NA,69.7916666666667
73.8263138166058,0.1,"AM04EN20b","2022_Feb_16_1204","Present_First","S_red","Practice",2,"PracFlankers",NA,0.33,"S","4",0,0.409858273642385,NA,NA,NA,69.7916666666667
73.909719274754,0.2,"AM04EN20b","2022_Feb_16_1204","Present_First","S_red","Practice",2,"PracTarget",NA,0.33,"S","4",0,0.409858273642385,NA,NA,NA,69.7916666666667
74.3195775483964,0,"AM04EN20b","2022_Feb_16_1204","Present_First","S_red","Practice",2,"PracResponse",NA,0.33,"S","4",0,0.409858273642385,NA,NA,NA,69.7916666666667
75.294230160569,0.1,"AM04EN20b","2022_Feb_16_1204","Present_First","S_red","Practice",3,"PracFlankers",NA,1,"S","4",0,0.426885564389522,NA,NA,NA,69.7916666666667
75.3776318265154,0.2,"AM04EN20b","2022_Feb_16_1204","Present_First","S_red","Practice",3,"PracTarget",NA,1,"S","4",0,0.426885564389522,NA,NA,NA,69.7916666666667
75.8045173909049,0,"AM04EN20b","2022_Feb_16_1204","Present_First","S_red","Practice",3,"PracResponse",NA,1,"S","4",0,0.426885564389522,NA,NA,NA,69.7916666666667
76.8288685957305,0.1,"AM04EN20b","2022_Feb_16_1204","Present_First","S_red","Practice",4,"PracFlankers",NA,0.66,"H","4",1,0.427239406257286,NA,NA,NA,69.7916666666667
76.9122711368,0.2,"AM04EN20b","2022_Feb_16_1204","Present_First","S_red","Practice",4,"PracTarget",NA,0.66,"H","4",1,0.427239406257286,NA,NA,NA,69.7916666666667
77.3395105430573,0,"AM04EN20b","2022_Feb_16_1204","Present_First","S_red","Practice",4,"PracResponse",NA,0.66,"H","4",1,0.427239406257286,NA,NA,NA,69.7916666666667
78.1299795658506,0.1,"AM04EN20b","2022_Feb_16_1204","Present_First","S_red","Practice",5,"PracFlankers",NA,1,"S","4",0,0.394718917414139,NA,NA,NA,69.7916666666667
78.21375636835,0.2,"AM04EN20b","2022_Feb_16_1204","Present_First","S_red","Practice",5,"PracTarget",NA,1,"S","4",0,0.394718917414139,NA,NA,NA,69.7916666666667
78.6084752857641,0,"AM04EN20b","2022_Feb_16_1204","Present_First","S_red","Practice",5,"PracResponse",NA,1,"S","4",0,0.394718917414139,NA,NA,NA,69.7916666666667
79.398100688868,0.1,"AM04EN20b","2022_Feb_16_1204","Present_First","S_red","Practice",6,"PracFlankers",NA,1,"H","4",1,0.385942588938633,NA,NA,NA,69.7916666666667
79.4815035216452,0.2,"AM04EN20b","2022_Feb_16_1204","Present_First","S_red","Practice",6,"PracTarget",NA,1,"H","4",1,0.385942588938633,NA,NA,NA,69.7916666666667
79.8674461105838,0,"AM04EN20b","2022_Feb_16_1204","Present_First","S_red","Practice",6,"PracResponse",NA,1,"H","4",1,0.385942588938633,NA,NA,NA,69.7916666666667
80.6992055331175,0.1,"AM04EN20b","2022_Feb_16_1204","Present_First","S_red","Practice",7,"PracFlankers",NA,1,"H","4",1,0.339796125241264,NA,NA,NA,69.7916666666667
80.7826223678803,0.2,"AM04EN20b","2022_Feb_16_1204","Present_First","S_red","Practice",7,"PracTarget",NA,1,"H","4",1,0.339796125241264,NA,NA,NA,69.7916666666667
81.1224184931216,0,"AM04EN20b","2022_Feb_16_1204","Present_First","S_red","Practice",7,"PracResponse",NA,1,"H","4",1,0.339796125241264,NA,NA,NA,69.7916666666667
81.9502722365396,0.1,"AM04EN20b","2022_Feb_16_1204","Present_First","S_red","Practice",8,"PracFlankers",NA,0.66,"S","2",1,0.410710061156351,NA,NA,NA,69.7916666666667
82.0336811951856,0.2,"AM04EN20b","2022_Feb_16_1204","Present_First","S_red","Practice",8,"PracTarget",NA,0.66,"S","2",1,0.410710061156351,NA,NA,NA,69.7916666666667
82.444391256342,0,"AM04EN20b","2022_Feb_16_1204","Present_First","S_red","Practice",8,"PracResponse",NA,0.66,"S","2",1,0.410710061156351,NA,NA,NA,69.7916666666667
83.2347155919397,0.1,"AM04EN20b","2022_Feb_16_1204","Present_First","S_red","Practice",9,"PracFlankers",NA,0.66,"S","2",1,0.307287888135761,NA,NA,NA,69.7916666666667
83.3181009222335,0.2,"AM04EN20b","2022_Feb_16_1204","Present_First","S_red","Practice",9,"PracTarget",NA,0.66,"S","2",1,0.307287888135761,NA,NA,NA,69.7916666666667
83.6253888103693,0,"AM04EN20b","2022_Feb_16_1204","Present_First","S_red","Practice",9,"PracResponse",NA,0.66,"S","2",1,0.307287888135761,NA,NA,NA,69.7916666666667
84.6525707501405,0.1,"AM04EN20b","2022_Feb_16_1204","Present_First","S_red","Practice",10,"PracFlankers",NA,1,"H","4",1,0.355317619019843,NA,NA,NA,69.7916666666667
84.735976791706,0.2,"AM04EN20b","2022_Feb_16_1204","Present_First","S_red","Practice",10,"PracTarget",NA,1,"H","4",1,0.355317619019843,NA,NA,NA,69.7916666666667
85.0912944107258,0,"AM04EN20b","2022_Feb_16_1204","Present_First","S_red","Practice",10,"PracResponse",NA,1,"H","4",1,0.355317619019843,NA,NA,NA,69.7916666666667
85.9203161531859,0.1,"AM04EN20b","2022_Feb_16_1204","Present_First","S_red","Practice",11,"PracFlankers",NA,0.33,"H","4",1,0.320602027079076,NA,NA,NA,69.7916666666667
86.0037186942554,0.2,"AM04EN20b","2022_Feb_16_1204","Present_First","S_red","Practice",11,"PracTarget",NA,0.33,"H","4",1,0.320602027079076,NA,NA,NA,69.7916666666667
86.3243207213345,0,"AM04EN20b","2022_Feb_16_1204","Present_First","S_red","Practice",11,"PracResponse",NA,0.33,"H","4",1,0.320602027079076,NA,NA,NA,69.7916666666667
87.288145422297,0.1,"AM04EN20b","2022_Feb_16_1204","Present_First","S_red","Practice",12,"PracFlankers",NA,1,"S","2",1,0.312736411146034,NA,NA,NA,69.7916666666667
87.3715491301991,0.2,"AM04EN20b","2022_Feb_16_1204","Present_First","S_red","Practice",12,"PracTarget",NA,1,"S","2",1,0.312736411146034,NA,NA,NA,69.7916666666667
87.6842855413452,0,"AM04EN20b","2022_Feb_16_1204","Present_First","S_red","Practice",12,"PracResponse",NA,1,"S","2",1,0.312736411146034,NA,NA,NA,69.7916666666667
88.472483033529,0.1,"AM04EN20b","2022_Feb_16_1204","Present_First","S_red","Practice",13,"PracFlankers",NA,1,"H","4",1,0.372366204454011,NA,NA,NA,69.7916666666667
88.5558925755922,0.2,"AM04EN20b","2022_Feb_16_1204","Present_First","S_red","Practice",13,"PracTarget",NA,1,"H","4",1,0.372366204454011,NA,NA,NA,69.7916666666667
88.9282587800462,0,"AM04EN20b","2022_Feb_16_1204","Present_First","S_red","Practice",13,"PracResponse",NA,1,"H","4",1,0.372366204454011,NA,NA,NA,69.7916666666667
89.8403187202184,0.1,"AM04EN20b","2022_Feb_16_1204","Present_First","S_red","Practice",14,"PracFlankers",NA,0,"S","2",1,0.322504255291278,NA,NA,NA,69.7916666666667
89.9237215529938,0.2,"AM04EN20b","2022_Feb_16_1204","Present_First","S_red","Practice",14,"PracTarget",NA,0,"S","2",1,0.322504255291278,NA,NA,NA,69.7916666666667
90.2462258082851,0,"AM04EN20b","2022_Feb_16_1204","Present_First","S_red","Practice",14,"PracResponse",NA,0,"S","2",1,0.322504255291278,NA,NA,NA,69.7916666666667
134.161413442198,0.1,"AM04EN20b","2022_Feb_16_1204","Present_First","S_red","MainTask",0,"Flanker","present",1,"S","2",1,0.420588462653541,"fast",NA,0.426956343650818,69.7916666666667
134.244765517773,0.2,"AM04EN20b","2022_Feb_16_1204","Present_First","S_red","MainTask",0,"Target","present",1,"S","2",1,0.420588462653541,"fast",NA,0.426956343650818,69.7916666666667
134.665353980427,0,"AM04EN20b","2022_Feb_16_1204","Present_First","S_red","MainTask",0,"Response","present",1,"S","2",1,0.420588462653541,"fast",NA,0.426956343650818,69.7916666666667
135.645965312995,0.1,"AM04EN20b","2022_Feb_16_1204","Present_First","S_red","MainTask",1,"Flanker","present",1,"H","4",1,0.251976832545552,"fast","post_correct",0.426956343650818,69.7916666666667
135.729363770151,0.2,"AM04EN20b","2022_Feb_16_1204","Present_First","S_red","MainTask",1,"Target","present",1,"H","4",1,0.251976832545552,"fast","post_correct",0.426956343650818,69.7916666666667
135.981340602697,0,"AM04EN20b","2022_Feb_16_1204","Present_First","S_red","MainTask",1,"Response","present",1,"H","4",1,0.251976832545552,"fast","post_correct",0.426956343650818,69.7916666666667
137.013788747945,0.1,"AM04EN20b","2022_Feb_16_1204","Present_First","S_red","MainTask",2,"Flanker","present",0.33,"S","2",1,0.292084939550477,"fast","post_correct",0.426956343650818,69.7916666666667
137.097193622678,0.2,"AM04EN20b","2022_Feb_16_1204","Present_First","S_red","MainTask",2,"Target","present",0.33,"S","2",1,0.292084939550477,"fast","post_correct",0.426956343650818,69.7916666666667
137.389278562228,0,"AM04EN20b","2022_Feb_16_1204","Present_First","S_red","MainTask",2,"Response","present",0.33,"S","2",1,0.292084939550477,"fast","post_correct",0.426956343650818,69.7916666666667
138.364940192556,0.1,"AM04EN20b","2022_Feb_16_1204","Present_First","S_red","MainTask",3,"Flanker","present",0,"S","4",0,0.223910142251043,"fast","post_correct",0.426956343650818,69.7916666666667
138.448343608748,0.2,"AM04EN20b","2022_Feb_16_1204","Present_First","S_red","MainTask",3,"Target","present",0,"S","4",0,0.223910142251043,"fast","post_correct",0.426956343650818,69.7916666666667
138.672253751,0,"AM04EN20b","2022_Feb_16_1204","Present_First","S_red","MainTask",3,"Response","present",0,"S","4",0,0.223910142251043,"fast","post_correct",0.426956343650818,69.7916666666667
139.532599395872,0.1,"AM04EN20b","2022_Feb_16_1204","Present_First","S_red","MainTask",4,"Flanker","present",0.66,"H","2",0,0.310221304314837,"fast","post_error",0.426956343650818,69.7916666666667
139.616002228649,0.2,"AM04EN20b","2022_Feb_16_1204","Present_First","S_red","MainTask",4,"Target","present",0.66,"H","2",0,0.310221304314837,"fast","post_error",0.426956343650818,69.7916666666667
139.926223532964,0,"AM04EN20b","2022_Feb_16_1204","Present_First","S_red","MainTask",4,"Response","present",0.66,"H","2",0,0.310221304314837,"fast","post_error",0.426956343650818,69.7916666666667
140.733620374056,0.1,"AM04EN20b","2022_Feb_16_1204","Present_First","S_red","MainTask",5,"Flanker","present",1,"S","2",1,0.643166665937315,"slow","post_error",0.426956343650818,69.7916666666667
140.817025832206,0.2,"AM04EN20b","2022_Feb_16_1204","Present_First","S_red","MainTask",5,"Target","present",1,"S","2",1,0.643166665937315,"slow","post_error",0.426956343650818,69.7916666666667
141.460192498143,0,"AM04EN20b","2022_Feb_16_1204","Present_First","S_red","MainTask",5,"Response","present",1,"S","2",1,0.643166665937315,"slow","post_error",0.426956343650818,69.7916666666667
141.500940612616,0.1,"AM04EN20b","2022_Feb_16_1204","Present_First","S_red","MainTask",5,"TooSlowFeedback","present",1,"S","2",1,0.643166665937315,"slow","post_error",0.426956343650818,69.7916666666667
143.385890373196,0.1,"AM04EN20b","2022_Feb_16_1204","Present_First","S_red","MainTask",6,"Flanker","present",0.33,"H","4",1,0.422845116150711,"fast","post_correct",0.426956343650818,69.7916666666667
143.469301665506,0.2,"AM04EN20b","2022_Feb_16_1204","Present_First","S_red","MainTask",6,"Target","present",0.33,"H","4",1,0.422845116150711,"fast","post_correct",0.426956343650818,69.7916666666667
143.892146781656,0,"AM04EN20b","2022_Feb_16_1204","Present_First","S_red","MainTask",6,"Response","present",0.33,"H","4",1,0.422845116150711,"fast","post_correct",0.426956343650818,69.7916666666667
144.820431232014,0.1,"AM04EN20b","2022_Feb_16_1204","Present_First","S_red","MainTask",7,"Flanker","present",1,"H","4",1,0.24227899833204,"fast","post_correct",0.426956343650818,69.7916666666667
144.903833773082,0.2,"AM04EN20b","2022_Feb_16_1204","Present_First","S_red","MainTask",7,"Target","present",1,"H","4",1,0.24227899833204,"fast","post_correct",0.426956343650818,69.7916666666667
145.146112771414,0,"AM04EN20b","2022_Feb_16_1204","Present_First","S_red","MainTask",7,"Response","present",1,"H","4",1,0.24227899833204,"fast","post_correct",0.426956343650818,69.7916666666667
146.004771760327,0.1,"AM04EN20b","2022_Feb_16_1204","Present_First","S_red","MainTask",8,"Flanker","present",1,"H","4",1,0.268949865596369,"fast","post_correct",0.426956343650818,69.7916666666667
146.088176635059,0.2,"AM04EN20b","2022_Feb_16_1204","Present_First","S_red","MainTask",8,"Target","present",1,"H","4",1,0.268949865596369,"fast","post_correct",0.426956343650818,69.7916666666667
146.357126500656,0,"AM04EN20b","2022_Feb_16_1204","Present_First","S_red","MainTask",8,"Response","present",1,"H","4",1,0.268949865596369,"fast","post_correct",0.426956343650818,69.7916666666667
147.339240713109,0.1,"AM04EN20b","2022_Feb_16_1204","Present_First","S_red","MainTask",9,"Flanker","present",0.33,"S","2",1,0.281434386837645,"fast","post_correct",0.426956343650818,69.7916666666667
147.422644129301,0.2,"AM04EN20b","2022_Feb_16_1204","Present_First","S_red","MainTask",9,"Target","present",0.33,"S","2",1,0.281434386837645,"fast","post_correct",0.426956343650818,69.7916666666667
147.704078516139,0,"AM04EN20b","2022_Feb_16_1204","Present_First","S_red","MainTask",9,"Response","present",0.33,"S","2",1,0.281434386837645,"fast","post_correct",0.426956343650818,69.7916666666667
148.523581824837,0.1,"AM04EN20b","2022_Feb_16_1204","Present_First","S_red","MainTask",10,"Flanker","present",1,"H","4",1,0.396044147095381,"fast","post_correct",0.426956343650818,69.7916666666667
148.606986116154,0.2,"AM04EN20b","2022_Feb_16_1204","Present_First","S_red","MainTask",10,"Target","present",1,"H","4",1,0.396044147095381,"fast","post_correct",0.426956343650818,69.7916666666667
149.003030263249,0,"AM04EN20b","2022_Feb_16_1204","Present_First","S_red","MainTask",10,"Response","present",1,"H","4",1,0.396044147095381,"fast","post_correct",0.426956343650818,69.7916666666667
149.874730060659,0.1,"AM04EN20b","2022_Feb_16_1204","Present_First","S_red","MainTask",11,"Flanker","present",1,"S","4",0,0.306865203167035,"fast","post_correct",0.426956343650818,69.7916666666667
149.958135227102,0.2,"AM04EN20b","2022_Feb_16_1204","Present_First","S_red","MainTask",11,"Target","present",1,"S","4",0,0.306865203167035,"fast","post_correct",0.426956343650818,69.7916666666667
150.265000430269,0,"AM04EN20b","2022_Feb_16_1204","Present_First","S_red","MainTask",11,"Response","present",1,"S","4",0,0.306865203167035,"fast","post_correct",0.426956343650818,69.7916666666667
151.059111136392,0.1,"AM04EN20b","2022_Feb_16_1204","Present_First","S_red","MainTask",12,"Flanker","present",0.33,"S","4",0,0.32649861365644,"fast","post_error",0.426956343650818,69.7916666666667
151.142475463706,0.2,"AM04EN20b","2022_Feb_16_1204","Present_First","S_red","MainTask",12,"Target","present",0.33,"S","4",0,0.32649861365644,"fast","post_error",0.426956343650818,69.7916666666667
151.468974077363,0,"AM04EN20b","2022_Feb_16_1204","Present_First","S_red","MainTask",12,"Response","present",0.33,"S","4",0,0.32649861365644,"fast","post_error",0.426956343650818,69.7916666666667
152.443582933327,0.1,"AM04EN20b","2022_Feb_16_1204","Present_First","S_red","MainTask",13,"Flanker","present",0,"H","4",1,0.538963882167081,"slow","post_error",0.426956343650818,69.7916666666667
152.526989266602,0.2,"AM04EN20b","2022_Feb_16_1204","Present_First","S_red","MainTask",13,"Target","present",0,"H","4",1,0.538963882167081,"slow","post_error",0.426956343650818,69.7916666666667
153.065953148769,0,"AM04EN20b","2022_Feb_16_1204","Present_First","S_red","MainTask",13,"Response","present",0,"H","4",1,0.538963882167081,"slow","post_error",0.426956343650818,69.7916666666667
153.110815221909,0.1,"AM04EN20b","2022_Feb_16_1204","Present_First","S_red","MainTask",13,"TooSlowFeedback","present",0,"H","4",1,0.538963882167081,"slow","post_error",0.426956343650818,69.7916666666667
155.095838055357,0.1,"AM04EN20b","2022_Feb_16_1204","Present_First","S_red","MainTask",14,"Flanker","present",0,"H","4",1,0.410647343924211,"fast","post_correct",0.426956343650818,69.7916666666667
155.179243221797,0.2,"AM04EN20b","2022_Feb_16_1204","Present_First","S_red","MainTask",14,"Target","present",0,"H","4",1,0.410647343924211,"fast","post_correct",0.426956343650818,69.7916666666667
155.589890565721,0,"AM04EN20b","2022_Feb_16_1204","Present_First","S_red","MainTask",14,"Response","present",0,"H","4",1,0.410647343924211,"fast","post_correct",0.426956343650818,69.7916666666667
156.597117341022,0.1,"AM04EN20b","2022_Feb_16_1204","Present_First","S_red","MainTask",15,"Flanker","present",0,"S","4",0,0.352330528559833,"fast","post_correct",0.426956343650818,69.7916666666667
156.680521632339,0.2,"AM04EN20b","2022_Feb_16_1204","Present_First","S_red","MainTask",15,"Target","present",0,"S","4",0,0.352330528559833,"fast","post_correct",0.426956343650818,69.7916666666667
157.032852160899,0,"AM04EN20b","2022_Feb_16_1204","Present_First","S_red","MainTask",15,"Response","present",0,"S","4",0,0.352330528559833,"fast","post_correct",0.426956343650818,69.7916666666667
157.864862160652,0.1,"AM04EN20b","2022_Feb_16_1204","Present_First","S_red","MainTask",16,"Flanker","present",0,"S","2",1,0.442559913188234,"slow","post_error",0.426956343650818,69.7916666666667
157.948264993429,0.2,"AM04EN20b","2022_Feb_16_1204","Present_First","S_red","MainTask",16,"Target","present",0,"S","2",1,0.442559913188234,"slow","post_error",0.426956343650818,69.7916666666667
158.390824906617,0,"AM04EN20b","2022_Feb_16_1204","Present_First","S_red","MainTask",16,"Response","present",0,"S","2",1,0.442559913188234,"slow","post_error",0.426956343650818,69.7916666666667
158.432010874876,0.1,"AM04EN20b","2022_Feb_16_1204","Present_First","S_red","MainTask",16,"TooSlowFeedback","present",0,"S","2",1,0.442559913188234,"slow","post_error",0.426956343650818,69.7916666666667
160.216862475696,0.1,"AM04EN20b","2022_Feb_16_1204","Present_First","S_red","MainTask",17,"Flanker","present",1,"H","4",1,0.431510887274271,"slow","post_correct",0.426956343650818,69.7916666666667
160.300267058721,0.2,"AM04EN20b","2022_Feb_16_1204","Present_First","S_red","MainTask",17,"Target","present",1,"H","4",1,0.431510887274271,"slow","post_correct",0.426956343650818,69.7916666666667
160.731777945995,0,"AM04EN20b","2022_Feb_16_1204","Present_First","S_red","MainTask",17,"Response","present",1,"H","4",1,0.431510887274271,"slow","post_correct",0.426956343650818,69.7916666666667
160.767329573217,0.1,"AM04EN20b","2022_Feb_16_1204","Present_First","S_red","MainTask",17,"TooSlowFeedback","present",1,"H","4",1,0.431510887274271,"slow","post_correct",0.426956343650818,69.7916666666667
162.702310181923,0.1,"AM04EN20b","2022_Feb_16_1204","Present_First","S_red","MainTask",18,"Flanker","present",0,"H","4",1,0.293039991716796,"fast","post_correct",0.426956343650818,69.7916666666667
162.785715348364,0.2,"AM04EN20b","2022_Feb_16_1204","Present_First","S_red","MainTask",18,"Target","present",0,"H","4",1,0.293039991716796,"fast","post_correct",0.426956343650818,69.7916666666667
163.078755340081,0,"AM04EN20b","2022_Feb_16_1204","Present_First","S_red","MainTask",18,"Response","present",0,"H","4",1,0.293039991716796,"fast","post_correct",0.426956343650818,69.7916666666667
164.070141201282,0.1,"AM04EN20b","2022_Feb_16_1204","Present_First","S_red","MainTask",19,"Flanker","present",1,"H","4",1,0.250150740137542,"fast","post_correct",0.426956343650818,69.7916666666667
164.153544909183,0.2,"AM04EN20b","2022_Feb_16_1204","Present_First","S_red","MainTask",19,"Target","present",1,"H","4",1,0.250150740137542,"fast","post_correct",0.426956343650818,69.7916666666667
164.40369564932,0,"AM04EN20b","2022_Feb_16_1204","Present_First","S_red","MainTask",19,"Response","present",1,"H","4",1,0.250150740137542,"fast","post_correct",0.426956343650818,69.7916666666667
165.421271642914,0.1,"AM04EN20b","2022_Feb_16_1204","Present_First","S_red","MainTask",20,"Flanker","present",0,"H","4",1,0.423968483863064,"fast","post_correct",0.426956343650818,69.7916666666667
165.504693145005,0.2,"AM04EN20b","2022_Feb_16_1204","Present_First","S_red","MainTask",20,"Target","present",0,"H","4",1,0.423968483863064,"fast","post_correct",0.426956343650818,69.7916666666667
165.928661628868,0,"AM04EN20b","2022_Feb_16_1204","Present_First","S_red","MainTask",20,"Response","present",0,"H","4",1,0.423968483863064,"fast","post_correct",0.426956343650818,69.7916666666667
166.789120164756,0.1,"AM04EN20b","2022_Feb_16_1204","Present_First","S_red","MainTask",21,"Flanker","present",1,"S","2",1,0.277118566196805,"fast","post_correct",0.426956343650818,69.7916666666667
166.872524747781,0.2,"AM04EN20b","2022_Feb_16_1204","Present_First","S_red","MainTask",21,"Target","present",1,"S","2",1,0.277118566196805,"fast","post_correct",0.426956343650818,69.7916666666667
167.149643313978,0,"AM04EN20b","2022_Feb_16_1204","Present_First","S_red","MainTask",21,"Response","present",1,"S","2",1,0.277118566196805,"fast","post_correct",0.426956343650818,69.7916666666667
168.156951184115,0.1,"AM04EN20b","2022_Feb_16_1204","Present_First","S_red","MainTask",22,"Flanker","present",1,"S","2",1,0.243259720806236,"fast","post_correct",0.426956343650818,69.7916666666667
168.240353141768,0.2,"AM04EN20b","2022_Feb_16_1204","Present_First","S_red","MainTask",22,"Target","present",1,"S","2",1,0.243259720806236,"fast","post_correct",0.426956343650818,69.7916666666667
168.483612862574,0,"AM04EN20b","2022_Feb_16_1204","Present_First","S_red","MainTask",22,"Response","present",1,"S","2",1,0.243259720806236,"fast","post_correct",0.426956343650818,69.7916666666667
169.341290837303,0.1,"AM04EN20b","2022_Feb_16_1204","Present_First","S_red","MainTask",23,"Flanker","present",0.66,"S","2",1,0.276882574382398,"fast","post_correct",0.426956343650818,69.7916666666667
169.424696587161,0.2,"AM04EN20b","2022_Feb_16_1204","Present_First","S_red","MainTask",23,"Target","present",0.66,"S","2",1,0.276882574382398,"fast","post_correct",0.426956343650818,69.7916666666667
169.701579161543,0,"AM04EN20b","2022_Feb_16_1204","Present_First","S_red","MainTask",23,"Response","present",0.66,"S","2",1,0.276882574382398,"fast","post_correct",0.426956343650818,69.7916666666667
170.642398890343,0.1,"AM04EN20b","2022_Feb_16_1204","Present_First","S_red","MainTask",24,"Flanker","present",1,"H","4",1,0.248757542476596,"fast","post_correct",0.426956343650818,69.7916666666667
170.725802889951,0.2,"AM04EN20b","2022_Feb_16_1204","Present_First","S_red","MainTask",24,"Target","present",1,"H","4",1,0.248757542476596,"fast","post_correct",0.426956343650818,69.7916666666667
170.974560432427,0,"AM04EN20b","2022_Feb_16_1204","Present_First","S_red","MainTask",24,"Response","present",1,"H","4",1,0.248757542476596,"fast","post_correct",0.426956343650818,69.7916666666667
171.960187684961,0.1,"AM04EN20b","2022_Feb_16_1204","Present_First","S_red","MainTask",25,"Flanker","present",1,"H","4",1,0.205906796360068,"fast","post_correct",0.426956343650818,69.7916666666667
172.043615312921,0.2,"AM04EN20b","2022_Feb_16_1204","Present_First","S_red","MainTask",25,"Target","present",1,"H","4",1,0.205906796360068,"fast","post_correct",0.426956343650818,69.7916666666667
172.249522109281,0,"AM04EN20b","2022_Feb_16_1204","Present_First","S_red","MainTask",25,"Response","present",1,"H","4",1,0.205906796360068,"fast","post_correct",0.426956343650818,69.7916666666667
173.07780408012,0.1,"AM04EN20b","2022_Feb_16_1204","Present_First","S_red","MainTask",26,"Flanker","present",0.33,"H","2",0,0.289302044726355,"fast","post_correct",0.426956343650818,69.7916666666667
173.16120778802,0.2,"AM04EN20b","2022_Feb_16_1204","Present_First","S_red","MainTask",26,"Target","present",0.33,"H","2",0,0.289302044726355,"fast","post_correct",0.426956343650818,69.7916666666667
173.450509832746,0,"AM04EN20b","2022_Feb_16_1204","Present_First","S_red","MainTask",26,"Response","present",0.33,"H","2",0,0.289302044726355,"fast","post_correct",0.426956343650818,69.7916666666667
174.262152776259,0.1,"AM04EN20b","2022_Feb_16_1204","Present_First","S_red","MainTask",27,"Flanker","present",0.33,"H","4",1,0.221926235784849,"fast","post_error",0.426956343650818,69.7916666666667
174.345547441209,0.2,"AM04EN20b","2022_Feb_16_1204","Present_First","S_red","MainTask",27,"Target","present",0.33,"H","4",1,0.221926235784849,"fast","post_error",0.426956343650818,69.7916666666667
174.567473676994,0,"AM04EN20b","2022_Feb_16_1204","Present_First","S_red","MainTask",27,"Response","present",0.33,"H","4",1,0.221926235784849,"fast","post_error",0.426956343650818,69.7916666666667
175.429804395164,0.1,"AM04EN20b","2022_Feb_16_1204","Present_First","S_red","MainTask",28,"Flanker","present",1,"H","4",1,0.249245278340823,"fast","post_correct",0.426956343650818,69.7916666666667
175.513208103066,0.2,"AM04EN20b","2022_Feb_16_1204","Present_First","S_red","MainTask",28,"Target","present",1,"H","4",1,0.249245278340823,"fast","post_correct",0.426956343650818,69.7916666666667
175.762453381407,0,"AM04EN20b","2022_Feb_16_1204","Present_First","S_red","MainTask",28,"Response","present",1,"H","4",1,0.249245278340823,"fast","post_correct",0.426956343650818,69.7916666666667
176.647506698346,0.1,"AM04EN20b","2022_Feb_16_1204","Present_First","S_red","MainTask",29,"Flanker","present",0.66,"S","2",1,0.248521842369883,"fast","post_correct",0.426956343650818,69.7916666666667
176.730909822831,0.2,"AM04EN20b","2022_Feb_16_1204","Present_First","S_red","MainTask",29,"Target","present",0.66,"S","2",1,0.248521842369883,"fast","post_correct",0.426956343650818,69.7916666666667
176.979431665201,0,"AM04EN20b","2022_Feb_16_1204","Present_First","S_red","MainTask",29,"Response","present",0.66,"S","2",1,0.248521842369883,"fast","post_correct",0.426956343650818,69.7916666666667
177.865210168358,0.1,"AM04EN20b","2022_Feb_16_1204","Present_First","S_red","MainTask",30,"Flanker","present",0,"S","2",1,0.297803000799831,"fast","post_correct",0.426956343650818,69.7916666666667
177.94861241772,0.2,"AM04EN20b","2022_Feb_16_1204","Present_First","S_red","MainTask",30,"Target","present",0,"S","2",1,0.297803000799831,"fast","post_correct",0.426956343650818,69.7916666666667
178.24641541852,0,"AM04EN20b","2022_Feb_16_1204","Present_First","S_red","MainTask",30,"Response","present",0,"S","2",1,0.297803000799831,"fast","post_correct",0.426956343650818,69.7916666666667
179.1162739547,0.1,"AM04EN20b","2022_Feb_16_1204","Present_First","S_red","MainTask",31,"Flanker","present",1,"S","2",1,0.248687532543045,"fast","post_correct",0.426956343650818,69.7916666666667
179.199678537725,0.2,"AM04EN20b","2022_Feb_16_1204","Present_First","S_red","MainTask",31,"Target","present",1,"S","2",1,0.248687532543045,"fast","post_correct",0.426956343650818,69.7916666666667
179.448366070268,0,"AM04EN20b","2022_Feb_16_1204","Present_First","S_red","MainTask",31,"Response","present",1,"S","2",1,0.248687532543045,"fast","post_correct",0.426956343650818,69.7916666666667
180.400700391034,0.1,"AM04EN20b","2022_Feb_16_1204","Present_First","S_red","MainTask",32,"Flanker","present",1,"S","2",1,0.207273448588239,"fast","post_correct",0.426956343650818,69.7916666666667
180.484103223811,0.2,"AM04EN20b","2022_Feb_16_1204","Present_First","S_red","MainTask",32,"Target","present",1,"S","2",1,0.207273448588239,"fast","post_correct",0.426956343650818,69.7916666666667
180.691376672399,0,"AM04EN20b","2022_Feb_16_1204","Present_First","S_red","MainTask",32,"Response","present",1,"S","2",1,0.207273448588239,"fast","post_correct",0.426956343650818,69.7916666666667
181.518316786192,0.1,"AM04EN20b","2022_Feb_16_1204","Present_First","S_red","MainTask",33,"Flanker","present",0,"H","4",1,0.357590608167811,"fast","post_correct",0.426956343650818,69.7916666666667
181.601722827758,0.2,"AM04EN20b","2022_Feb_16_1204","Present_First","S_red","MainTask",33,"Target","present",0,"H","4",1,0.357590608167811,"fast","post_correct",0.426956343650818,69.7916666666667
181.959313435926,0,"AM04EN20b","2022_Feb_16_1204","Present_First","S_red","MainTask",33,"Response","present",0,"H","4",1,0.357590608167811,"fast","post_correct",0.426956343650818,69.7916666666667
182.952870188457,0.1,"AM04EN20b","2022_Feb_16_1204","Present_First","S_red","MainTask",34,"Flanker","present",0,"H","4",1,0.260015431356805,"fast","post_correct",0.426956343650818,69.7916666666667
183.03627506319,0.2,"AM04EN20b","2022_Feb_16_1204","Present_First","S_red","MainTask",34,"Target","present",0,"H","4",1,0.260015431356805,"fast","post_correct",0.426956343650818,69.7916666666667
183.296290494547,0,"AM04EN20b","2022_Feb_16_1204","Present_First","S_red","MainTask",34,"Response","present",0,"H","4",1,0.260015431356805,"fast","post_correct",0.426956343650818,69.7916666666667
184.087170533985,0.1,"AM04EN20b","2022_Feb_16_1204","Present_First","S_red","MainTask",35,"Flanker","present",0.66,"H","4",1,0.276692964147514,"fast","post_correct",0.426956343650818,69.7916666666667
184.170572783347,0.2,"AM04EN20b","2022_Feb_16_1204","Present_First","S_red","MainTask",35,"Target","present",0.66,"H","4",1,0.276692964147514,"fast","post_correct",0.426956343650818,69.7916666666667
184.447265747494,0,"AM04EN20b","2022_Feb_16_1204","Present_First","S_red","MainTask",35,"Response","present",0.66,"H","4",1,0.276692964147514,"fast","post_correct",0.426956343650818,69.7916666666667
185.354915061907,0.1,"AM04EN20b","2022_Feb_16_1204","Present_First","S_red","MainTask",36,"Flanker","present",0.66,"S","2",1,0.307925853647248,"fast","post_correct",0.426956343650818,69.7916666666667
185.438317602975,0.2,"AM04EN20b","2022_Feb_16_1204","Present_First","S_red","MainTask",36,"Target","present",0.66,"S","2",1,0.307925853647248,"fast","post_correct",0.426956343650818,69.7916666666667
185.746243456622,0,"AM04EN20b","2022_Feb_16_1204","Present_First","S_red","MainTask",36,"Response","present",0.66,"S","2",1,0.307925853647248,"fast","post_correct",0.426956343650818,69.7916666666667
186.58929781496,0.1,"AM04EN20b","2022_Feb_16_1204","Present_First","S_red","MainTask",37,"Flanker","present",0.33,"H","4",1,0.250524418150235,"fast","post_correct",0.426956343650818,69.7916666666667
186.672704439941,0.2,"AM04EN20b","2022_Feb_16_1204","Present_First","S_red","MainTask",37,"Target","present",0.33,"H","4",1,0.250524418150235,"fast","post_correct",0.426956343650818,69.7916666666667
186.923228858092,0,"AM04EN20b","2022_Feb_16_1204","Present_First","S_red","MainTask",37,"Response","present",0.33,"H","4",1,0.250524418150235,"fast","post_correct",0.426956343650818,69.7916666666667
187.790319959977,0.1,"AM04EN20b","2022_Feb_16_1204","Present_First","S_red","MainTask",38,"Flanker","present",0,"H","4",1,0.398439070209861,"fast","post_correct",0.426956343650818,69.7916666666667
187.873723376169,0.2,"AM04EN20b","2022_Feb_16_1204","Present_First","S_red","MainTask",38,"Target","present",0,"H","4",1,0.398439070209861,"fast","post_correct",0.426956343650818,69.7916666666667
188.272162446379,0,"AM04EN20b","2022_Feb_16_1204","Present_First","S_red","MainTask",38,"Response","present",0,"H","4",1,0.398439070209861,"fast","post_correct",0.426956343650818,69.7916666666667
189.141469070924,0.1,"AM04EN20b","2022_Feb_16_1204","Present_First","S_red","MainTask",39,"Flanker","present",1,"H","4",1,0.226295730706624,"fast","post_correct",0.426956343650818,69.7916666666667
189.224871611992,0.2,"AM04EN20b","2022_Feb_16_1204","Present_First","S_red","MainTask",39,"Target","present",1,"H","4",1,0.226295730706624,"fast","post_correct",0.426956343650818,69.7916666666667
189.451167342699,0,"AM04EN20b","2022_Feb_16_1204","Present_First","S_red","MainTask",39,"Response","present",1,"H","4",1,0.226295730706624,"fast","post_correct",0.426956343650818,69.7916666666667
190.275767082787,0.1,"AM04EN20b","2022_Feb_16_1204","Present_First","S_red","MainTask",40,"Flanker","present",0.66,"S","4",0,0.248963780069971,"fast","post_correct",0.426956343650818,69.7916666666667
190.359170790689,0.2,"AM04EN20b","2022_Feb_16_1204","Present_First","S_red","MainTask",40,"Target","present",0.66,"S","4",0,0.248963780069971,"fast","post_correct",0.426956343650818,69.7916666666667
190.608134570759,0,"AM04EN20b","2022_Feb_16_1204","Present_First","S_red","MainTask",40,"Response","present",0.66,"S","4",0,0.248963780069971,"fast","post_correct",0.426956343650818,69.7916666666667
191.510151877797,0.1,"AM04EN20b","2022_Feb_16_1204","Present_First","S_red","MainTask",41,"Flanker","present",1,"H","4",1,0.237560620580552,"fast","post_error",0.426956343650818,69.7916666666667
191.593555585698,0.2,"AM04EN20b","2022_Feb_16_1204","Present_First","S_red","MainTask",41,"Target","present",1,"H","4",1,0.237560620580552,"fast","post_error",0.426956343650818,69.7916666666667
191.831116206278,0,"AM04EN20b","2022_Feb_16_1204","Present_First","S_red","MainTask",41,"Response","present",1,"H","4",1,0.237560620580552,"fast","post_error",0.426956343650818,69.7916666666667
192.861300405328,0.1,"AM04EN20b","2022_Feb_16_1204","Present_First","S_red","MainTask",42,"Flanker","present",0.66,"S","2",1,0.272380644004443,"fast","post_correct",0.426956343650818,69.7916666666667
192.94470236298,0.2,"AM04EN20b","2022_Feb_16_1204","Present_First","S_red","MainTask",42,"Target","present",0.66,"S","2",1,0.272380644004443,"fast","post_correct",0.426956343650818,69.7916666666667
193.217083006984,0,"AM04EN20b","2022_Feb_16_1204","Present_First","S_red","MainTask",42,"Response","present",0.66,"S","2",1,0.272380644004443,"fast","post_correct",0.426956343650818,69.7916666666667
194.179085991158,0.1,"AM04EN20b","2022_Feb_16_1204","Present_First","S_red","MainTask",43,"Flanker","present",0.66,"S","2",1,0.2895450375363,"fast","post_correct",0.426956343650818,69.7916666666667
194.262491157599,0.2,"AM04EN20b","2022_Feb_16_1204","Present_First","S_red","MainTask",43,"Target","present",0.66,"S","2",1,0.2895450375363,"fast","post_correct",0.426956343650818,69.7916666666667
194.552036195135,0,"AM04EN20b","2022_Feb_16_1204","Present_First","S_red","MainTask",43,"Response","present",0.66,"S","2",1,0.2895450375363,"fast","post_correct",0.426956343650818,69.7916666666667
195.363429728259,0.1,"AM04EN20b","2022_Feb_16_1204","Present_First","S_red","MainTask",44,"Flanker","present",0,"H","4",1,0.326194070450583,"fast","post_correct",0.426956343650818,69.7916666666667
195.446831394203,0.2,"AM04EN20b","2022_Feb_16_1204","Present_First","S_red","MainTask",44,"Target","present",0,"H","4",1,0.326194070450583,"fast","post_correct",0.426956343650818,69.7916666666667
195.773025464654,0,"AM04EN20b","2022_Feb_16_1204","Present_First","S_red","MainTask",44,"Response","present",0,"H","4",1,0.326194070450583,"fast","post_correct",0.426956343650818,69.7916666666667
196.681215314089,0.1,"AM04EN20b","2022_Feb_16_1204","Present_First","S_red","MainTask",45,"Flanker","present",0,"S","2",1,0.299349928603988,"fast","post_correct",0.426956343650818,69.7916666666667
196.764649359628,0.2,"AM04EN20b","2022_Feb_16_1204","Present_First","S_red","MainTask",45,"Target","present",0,"S","2",1,0.299349928603988,"fast","post_correct",0.426956343650818,69.7916666666667
197.063999288232,0,"AM04EN20b","2022_Feb_16_1204","Present_First","S_red","MainTask",45,"Response","present",0,"S","2",1,0.299349928603988,"fast","post_correct",0.426956343650818,69.7916666666667
198.015703227895,0.1,"AM04EN20b","2022_Feb_16_1204","Present_First","S_red","MainTask",46,"Flanker","present",0,"S","4",0,0.113882823790846,"fast","post_correct",0.426956343650818,69.7916666666667
198.099087974771,0.2,"AM04EN20b","2022_Feb_16_1204","Present_First","S_red","MainTask",46,"Target","present",0,"S","4",0,0.113882823790846,"fast","post_correct",0.426956343650818,69.7916666666667
198.212970798562,0,"AM04EN20b","2022_Feb_16_1204","Present_First","S_red","MainTask",46,"Response","present",0,"S","4",0,0.113882823790846,"fast","post_correct",0.426956343650818,69.7916666666667
199.216706995305,0.1,"AM04EN20b","2022_Feb_16_1204","Present_First","S_red","MainTask",47,"Flanker","present",1,"H","4",1,0.323837652800648,"fast","post_error",0.426956343650818,69.7916666666667
199.300110994913,0.2,"AM04EN20b","2022_Feb_16_1204","Present_First","S_red","MainTask",47,"Target","present",1,"H","4",1,0.323837652800648,"fast","post_error",0.426956343650818,69.7916666666667
199.623948647713,0,"AM04EN20b","2022_Feb_16_1204","Present_First","S_red","MainTask",47,"Response","present",1,"H","4",1,0.323837652800648,"fast","post_error",0.426956343650818,69.7916666666667
200.567853480878,0.1,"AM04EN20b","2022_Feb_16_1204","Present_First","S_red","MainTask",48,"Flanker","present",0,"S","4",0,0.234727260261934,"fast","post_correct",0.426956343650818,69.7916666666667
200.651259814153,0.2,"AM04EN20b","2022_Feb_16_1204","Present_First","S_red","MainTask",48,"Target","present",0,"S","4",0,0.234727260261934,"fast","post_correct",0.426956343650818,69.7916666666667
200.885987074415,0,"AM04EN20b","2022_Feb_16_1204","Present_First","S_red","MainTask",48,"Response","present",0,"S","4",0,0.234727260261934,"fast","post_correct",0.426956343650818,69.7916666666667
201.852282542584,0.1,"AM04EN20b","2022_Feb_16_1204","Present_First","S_red","MainTask",49,"Flanker","present",1,"H","2",0,0.278193218662636,"fast","post_error",0.426956343650818,69.7916666666667
201.935685375362,0.2,"AM04EN20b","2022_Feb_16_1204","Present_First","S_red","MainTask",49,"Target","present",1,"H","2",0,0.278193218662636,"fast","post_error",0.426956343650818,69.7916666666667
202.213878594024,0,"AM04EN20b","2022_Feb_16_1204","Present_First","S_red","MainTask",49,"Response","present",1,"H","2",0,0.278193218662636,"fast","post_error",0.426956343650818,69.7916666666667
203.236791678151,0.1,"AM04EN20b","2022_Feb_16_1204","Present_First","S_red","MainTask",50,"Flanker","present",0.33,"H","4",1,0.383667557834997,"fast","post_error",0.426956343650818,69.7916666666667
203.320195677761,0.2,"AM04EN20b","2022_Feb_16_1204","Present_First","S_red","MainTask",50,"Target","present",0.33,"H","4",1,0.383667557834997,"fast","post_error",0.426956343650818,69.7916666666667
203.703863235596,0,"AM04EN20b","2022_Feb_16_1204","Present_First","S_red","MainTask",50,"Response","present",0.33,"H","4",1,0.383667557834997,"fast","post_error",0.426956343650818,69.7916666666667
204.587941664222,0.1,"AM04EN20b","2022_Feb_16_1204","Present_First","S_red","MainTask",51,"Flanker","present",1,"S","2",1,0.370478269936939,"fast","post_correct",0.426956343650818,69.7916666666667
204.671345955539,0.2,"AM04EN20b","2022_Feb_16_1204","Present_First","S_red","MainTask",51,"Target","present",1,"S","2",1,0.370478269936939,"fast","post_correct",0.426956343650818,69.7916666666667
205.041824225476,0,"AM04EN20b","2022_Feb_16_1204","Present_First","S_red","MainTask",51,"Response","present",1,"S","2",1,0.370478269936939,"fast","post_correct",0.426956343650818,69.7916666666667
205.872367225433,0.1,"AM04EN20b","2022_Feb_16_1204","Present_First","S_red","MainTask",52,"Flanker","present",0.66,"H","4",1,0.264023500001713,"fast","post_correct",0.426956343650818,69.7916666666667
205.955772391873,0.2,"AM04EN20b","2022_Feb_16_1204","Present_First","S_red","MainTask",52,"Target","present",0.66,"H","4",1,0.264023500001713,"fast","post_correct",0.426956343650818,69.7916666666667
206.219795891875,0,"AM04EN20b","2022_Feb_16_1204","Present_First","S_red","MainTask",52,"Response","present",0.66,"H","4",1,0.264023500001713,"fast","post_correct",0.426956343650818,69.7916666666667
207.040037805364,0.1,"AM04EN20b","2022_Feb_16_1204","Present_First","S_red","MainTask",53,"Flanker","present",0.66,"H","2",0,0.385341378640078,"fast","post_correct",0.426956343650818,69.7916666666667
207.123433637147,0.2,"AM04EN20b","2022_Feb_16_1204","Present_First","S_red","MainTask",53,"Target","present",0.66,"H","2",0,0.385341378640078,"fast","post_correct",0.426956343650818,69.7916666666667
207.508775015787,0,"AM04EN20b","2022_Feb_16_1204","Present_First","S_red","MainTask",53,"Response","present",0.66,"H","2",0,0.385341378640078,"fast","post_correct",0.426956343650818,69.7916666666667
208.35781493166,0.1,"AM04EN20b","2022_Feb_16_1204","Present_First","S_red","MainTask",54,"Flanker","present",0.66,"H","4",1,0.352538808110694,"fast","post_error",0.426956343650818,69.7916666666667
208.44121863956,0.2,"AM04EN20b","2022_Feb_16_1204","Present_First","S_red","MainTask",54,"Target","present",0.66,"H","4",1,0.352538808110694,"fast","post_error",0.426956343650818,69.7916666666667
208.793757447671,0,"AM04EN20b","2022_Feb_16_1204","Present_First","S_red","MainTask",54,"Response","present",0.66,"H","4",1,0.352538808110694,"fast","post_error",0.426956343650818,69.7916666666667
209.742322608687,0.1,"AM04EN20b","2022_Feb_16_1204","Present_First","S_red","MainTask",55,"Flanker","present",1,"H","4",1,0.194992831275158,"fast","post_correct",0.426956343650818,69.7916666666667
209.825732150748,0.2,"AM04EN20b","2022_Feb_16_1204","Present_First","S_red","MainTask",55,"Target","present",1,"H","4",1,0.194992831275158,"fast","post_correct",0.426956343650818,69.7916666666667
210.020724982023,0,"AM04EN20b","2022_Feb_16_1204","Present_First","S_red","MainTask",55,"Response","present",1,"H","4",1,0.194992831275158,"fast","post_correct",0.426956343650818,69.7916666666667
210.909986187622,0.1,"AM04EN20b","2022_Feb_16_1204","Present_First","S_red","MainTask",56,"Flanker","present",1,"H","4",1,0.259296371004893,"fast","post_correct",0.426956343650818,69.7916666666667
210.993391062357,0.2,"AM04EN20b","2022_Feb_16_1204","Present_First","S_red","MainTask",56,"Target","present",1,"H","4",1,0.259296371004893,"fast","post_correct",0.426956343650818,69.7916666666667
211.252687433362,0,"AM04EN20b","2022_Feb_16_1204","Present_First","S_red","MainTask",56,"Response","present",1,"H","4",1,0.259296371004893,"fast","post_correct",0.426956343650818,69.7916666666667
212.044299951722,0.1,"AM04EN20b","2022_Feb_16_1204","Present_First","S_red","MainTask",57,"Flanker","present",1,"S","4",0,0.237985347504946,"fast","post_correct",0.426956343650818,69.7916666666667
212.127692283009,0.2,"AM04EN20b","2022_Feb_16_1204","Present_First","S_red","MainTask",57,"Target","present",1,"S","4",0,0.237985347504946,"fast","post_correct",0.426956343650818,69.7916666666667
212.365677630514,0,"AM04EN20b","2022_Feb_16_1204","Present_First","S_red","MainTask",57,"Response","present",1,"S","4",0,0.237985347504946,"fast","post_correct",0.426956343650818,69.7916666666667
213.228621810718,0.1,"AM04EN20b","2022_Feb_16_1204","Present_First","S_red","MainTask",58,"Flanker","present",1,"S","2",1,0.30460796625448,"fast","post_error",0.426956343650818,69.7916666666667
213.312026977161,0.2,"AM04EN20b","2022_Feb_16_1204","Present_First","S_red","MainTask",58,"Target","present",1,"S","2",1,0.30460796625448,"fast","post_error",0.426956343650818,69.7916666666667
213.616634943415,0,"AM04EN20b","2022_Feb_16_1204","Present_First","S_red","MainTask",58,"Response","present",1,"S","2",1,0.30460796625448,"fast","post_error",0.426956343650818,69.7916666666667
214.59645545545,0.1,"AM04EN20b","2022_Feb_16_1204","Present_First","S_red","MainTask",59,"Flanker","present",1,"S","2",1,0.268753837783152,"fast","post_correct",0.426956343650818,69.7916666666667
214.67985799652,0.2,"AM04EN20b","2022_Feb_16_1204","Present_First","S_red","MainTask",59,"Target","present",1,"S","2",1,0.268753837783152,"fast","post_correct",0.426956343650818,69.7916666666667
214.948611834303,0,"AM04EN20b","2022_Feb_16_1204","Present_First","S_red","MainTask",59,"Response","present",1,"S","2",1,0.268753837783152,"fast","post_correct",0.426956343650818,69.7916666666667
215.764115242182,0.1,"AM04EN20b","2022_Feb_16_1204","Present_First","S_red","MainTask",60,"Flanker","present",0.33,"H","4",1,0.230069266077408,"fast","post_correct",0.426956343650818,69.7916666666667
215.847519241792,0.2,"AM04EN20b","2022_Feb_16_1204","Present_First","S_red","MainTask",60,"Target","present",0.33,"H","4",1,0.230069266077408,"fast","post_correct",0.426956343650818,69.7916666666667
216.077588507869,0,"AM04EN20b","2022_Feb_16_1204","Present_First","S_red","MainTask",60,"Response","present",0.33,"H","4",1,0.230069266077408,"fast","post_correct",0.426956343650818,69.7916666666667
216.931774153791,0.1,"AM04EN20b","2022_Feb_16_1204","Present_First","S_red","MainTask",61,"Flanker","present",0.66,"S","4",0,0.261396960693673,"fast","post_correct",0.426956343650818,69.7916666666667
217.015177278276,0.2,"AM04EN20b","2022_Feb_16_1204","Present_First","S_red","MainTask",61,"Target","present",0.66,"S","4",0,0.261396960693673,"fast","post_correct",0.426956343650818,69.7916666666667
217.276574238969,0,"AM04EN20b","2022_Feb_16_1204","Present_First","S_red","MainTask",61,"Response","present",0.66,"S","4",0,0.261396960693673,"fast","post_correct",0.426956343650818,69.7916666666667
218.066074207611,0.1,"AM04EN20b","2022_Feb_16_1204","Present_First","S_red","MainTask",62,"Flanker","present",0,"S","2",1,0.381048602936062,"fast","post_error",0.426956343650818,69.7916666666667
218.149485208212,0.2,"AM04EN20b","2022_Feb_16_1204","Present_First","S_red","MainTask",62,"Target","present",0,"S","2",1,0.381048602936062,"fast","post_error",0.426956343650818,69.7916666666667
218.530533811148,0,"AM04EN20b","2022_Feb_16_1204","Present_First","S_red","MainTask",62,"Response","present",0,"S","2",1,0.381048602936062,"fast","post_error",0.426956343650818,69.7916666666667
219.367180802108,0.1,"AM04EN20b","2022_Feb_16_1204","Present_First","S_red","MainTask",63,"Flanker","present",1,"H","4",1,0.22293700418777,"fast","post_correct",0.426956343650818,69.7916666666667
219.450580717805,0.2,"AM04EN20b","2022_Feb_16_1204","Present_First","S_red","MainTask",63,"Target","present",1,"H","4",1,0.22293700418777,"fast","post_correct",0.426956343650818,69.7916666666667
219.673517721993,0,"AM04EN20b","2022_Feb_16_1204","Present_First","S_red","MainTask",63,"Response","present",1,"H","4",1,0.22293700418777,"fast","post_correct",0.426956343650818,69.7916666666667
220.58488310529,0.1,"AM04EN20b","2022_Feb_16_1204","Present_First","S_red","MainTask",64,"Flanker","present",0.33,"S","2",1,0.2731924675154,"fast","post_correct",0.426956343650818,69.7916666666667
220.668286521483,0.2,"AM04EN20b","2022_Feb_16_1204","Present_First","S_red","MainTask",64,"Target","present",0.33,"S","2",1,0.2731924675154,"fast","post_correct",0.426956343650818,69.7916666666667
220.941478988998,0,"AM04EN20b","2022_Feb_16_1204","Present_First","S_red","MainTask",64,"Response","present",0.33,"S","2",1,0.2731924675154,"fast","post_correct",0.426956343650818,69.7916666666667
221.85263842641,0.1,"AM04EN20b","2022_Feb_16_1204","Present_First","S_red","MainTask",65,"Flanker","present",1,"H","4",1,0.134478870855673,"fast","post_correct",0.426956343650818,69.7916666666667
221.936032507945,0.2,"AM04EN20b","2022_Feb_16_1204","Present_First","S_red","MainTask",65,"Target","present",1,"H","4",1,0.134478870855673,"fast","post_correct",0.426956343650818,69.7916666666667
222.070511378801,0,"AM04EN20b","2022_Feb_16_1204","Present_First","S_red","MainTask",65,"Response","present",1,"H","4",1,0.134478870855673,"fast","post_correct",0.426956343650818,69.7916666666667
222.986925936782,0.1,"AM04EN20b","2022_Feb_16_1204","Present_First","S_red","MainTask",66,"Flanker","present",1,"S","2",1,0.131108184306868,"fast","post_correct",0.426956343650818,69.7916666666667
223.07032876956,0.2,"AM04EN20b","2022_Feb_16_1204","Present_First","S_red","MainTask",66,"Target","present",1,"S","2",1,0.131108184306868,"fast","post_correct",0.426956343650818,69.7916666666667
223.201436953867,0,"AM04EN20b","2022_Feb_16_1204","Present_First","S_red","MainTask",66,"Response","present",1,"S","2",1,0.131108184306868,"fast","post_correct",0.426956343650818,69.7916666666667
224.021139207458,0.1,"AM04EN20b","2022_Feb_16_1204","Present_First","S_red","MainTask",67,"Flanker","present",1,"H","4",1,0.227889040090304,"fast","post_correct",0.426956343650818,69.7916666666667
224.104543498775,0.2,"AM04EN20b","2022_Feb_16_1204","Present_First","S_red","MainTask",67,"Target","present",1,"H","4",1,0.227889040090304,"fast","post_correct",0.426956343650818,69.7916666666667
224.332432538866,0,"AM04EN20b","2022_Feb_16_1204","Present_First","S_red","MainTask",67,"Response","present",1,"H","4",1,0.227889040090304,"fast","post_correct",0.426956343650818,69.7916666666667
225.138757061157,0.1,"AM04EN20b","2022_Feb_16_1204","Present_First","S_red","MainTask",68,"Flanker","present",0.33,"S","2",1,0.224247356760316,"fast","post_correct",0.426956343650818,69.7916666666667
225.222159602226,0.2,"AM04EN20b","2022_Feb_16_1204","Present_First","S_red","MainTask",68,"Target","present",0.33,"S","2",1,0.224247356760316,"fast","post_correct",0.426956343650818,69.7916666666667
225.446406958987,0,"AM04EN20b","2022_Feb_16_1204","Present_First","S_red","MainTask",68,"Response","present",0.33,"S","2",1,0.224247356760316,"fast","post_correct",0.426956343650818,69.7916666666667
226.373139522502,0.1,"AM04EN20b","2022_Feb_16_1204","Present_First","S_red","MainTask",69,"Flanker","present",0.33,"S","4",0,0.113820106560524,"fast","post_correct",0.426956343650818,69.7916666666667
226.456543230403,0.2,"AM04EN20b","2022_Feb_16_1204","Present_First","S_red","MainTask",69,"Target","present",0.33,"S","4",0,0.113820106560524,"fast","post_correct",0.426956343650818,69.7916666666667
226.570363336963,0,"AM04EN20b","2022_Feb_16_1204","Present_First","S_red","MainTask",69,"Response","present",0.33,"S","4",0,0.113820106560524,"fast","post_correct",0.426956343650818,69.7916666666667
227.507437534367,0.1,"AM04EN20b","2022_Feb_16_1204","Present_First","S_red","MainTask",70,"Flanker","present",0.33,"H","4",1,0.200528866700552,"fast","post_error",0.426956343650818,69.7916666666667
227.590844159347,0.2,"AM04EN20b","2022_Feb_16_1204","Present_First","S_red","MainTask",70,"Target","present",0.33,"H","4",1,0.200528866700552,"fast","post_error",0.426956343650818,69.7916666666667
227.791373026048,0,"AM04EN20b","2022_Feb_16_1204","Present_First","S_red","MainTask",70,"Response","present",0.33,"H","4",1,0.200528866700552,"fast","post_error",0.426956343650818,69.7916666666667
228.62505480465,0.1,"AM04EN20b","2022_Feb_16_1204","Present_First","S_red","MainTask",71,"Flanker","present",0.66,"S","2",1,0.202861655996458,"fast","post_correct",0.426956343650818,69.7916666666667
228.708459095968,0.2,"AM04EN20b","2022_Feb_16_1204","Present_First","S_red","MainTask",71,"Target","present",0.66,"S","2",1,0.202861655996458,"fast","post_correct",0.426956343650818,69.7916666666667
228.911320751964,0,"AM04EN20b","2022_Feb_16_1204","Present_First","S_red","MainTask",71,"Response","present",0.66,"S","2",1,0.202861655996458,"fast","post_correct",0.426956343650818,69.7916666666667
229.792715758214,0.1,"AM04EN20b","2022_Feb_16_1204","Present_First","S_red","MainTask",72,"Flanker","present",1,"S","2",1,0.298192722759268,"fast","post_correct",0.426956343650818,69.7916666666667
229.876118882699,0.2,"AM04EN20b","2022_Feb_16_1204","Present_First","S_red","MainTask",72,"Target","present",1,"S","2",1,0.298192722759268,"fast","post_correct",0.426956343650818,69.7916666666667
230.174311605459,0,"AM04EN20b","2022_Feb_16_1204","Present_First","S_red","MainTask",72,"Response","present",1,"S","2",1,0.298192722759268,"fast","post_correct",0.426956343650818,69.7916666666667
231.077147445292,0.1,"AM04EN20b","2022_Feb_16_1204","Present_First","S_red","MainTask",73,"Flanker","present",1,"H","4",1,0.202728345417199,"fast","post_correct",0.426956343650818,69.7916666666667
231.160544152201,0.2,"AM04EN20b","2022_Feb_16_1204","Present_First","S_red","MainTask",73,"Target","present",1,"H","4",1,0.202728345417199,"fast","post_correct",0.426956343650818,69.7916666666667
231.363272497618,0,"AM04EN20b","2022_Feb_16_1204","Present_First","S_red","MainTask",73,"Response","present",1,"H","4",1,0.202728345417199,"fast","post_correct",0.426956343650818,69.7916666666667
232.228105779173,0.1,"AM04EN20b","2022_Feb_16_1204","Present_First","S_red","MainTask",74,"Flanker","present",0.33,"S","2",1,0.255717696614738,"fast","post_correct",0.426956343650818,69.7916666666667
232.311520571981,0.2,"AM04EN20b","2022_Feb_16_1204","Present_First","S_red","MainTask",74,"Target","present",0.33,"S","2",1,0.255717696614738,"fast","post_correct",0.426956343650818,69.7916666666667
232.567238268595,0,"AM04EN20b","2022_Feb_16_1204","Present_First","S_red","MainTask",74,"Response","present",0.33,"S","2",1,0.255717696614738,"fast","post_correct",0.426956343650818,69.7916666666667
233.579269475522,0.1,"AM04EN20b","2022_Feb_16_1204","Present_First","S_red","MainTask",75,"Flanker","present",1,"H","4",1,0.257542330484284,"fast","post_correct",0.426956343650818,69.7916666666667
233.662672600007,0.2,"AM04EN20b","2022_Feb_16_1204","Present_First","S_red","MainTask",75,"Target","present",1,"H","4",1,0.257542330484284,"fast","post_correct",0.426956343650818,69.7916666666667
233.920214930491,0,"AM04EN20b","2022_Feb_16_1204","Present_First","S_red","MainTask",75,"Response","present",1,"H","4",1,0.257542330484284,"fast","post_correct",0.426956343650818,69.7916666666667
234.930418586469,0.1,"AM04EN20b","2022_Feb_16_1204","Present_First","S_red","MainTask",76,"Flanker","present",1,"S","2",1,0.105355613994107,"fast","post_correct",0.426956343650818,69.7916666666667
235.013822586079,0.2,"AM04EN20b","2022_Feb_16_1204","Present_First","S_red","MainTask",76,"Target","present",1,"S","2",1,0.105355613994107,"fast","post_correct",0.426956343650818,69.7916666666667
235.119178200073,0,"AM04EN20b","2022_Feb_16_1204","Present_First","S_red","MainTask",76,"Response","present",1,"S","2",1,0.105355613994107,"fast","post_correct",0.426956343650818,69.7916666666667
235.931265998363,0.1,"AM04EN20b","2022_Feb_16_1204","Present_First","S_red","MainTask",77,"Flanker","present",1,"S","4",0,0.172488721836999,"fast","post_correct",0.426956343650818,69.7916666666667
236.01467174822,0.2,"AM04EN20b","2022_Feb_16_1204","Present_First","S_red","MainTask",77,"Target","present",1,"S","4",0,0.172488721836999,"fast","post_correct",0.426956343650818,69.7916666666667
236.187160470057,0,"AM04EN20b","2022_Feb_16_1204","Present_First","S_red","MainTask",77,"Response","present",1,"S","4",0,0.172488721836999,"fast","post_correct",0.426956343650818,69.7916666666667
237.015524994275,0.1,"AM04EN20b","2022_Feb_16_1204","Present_First","S_red","MainTask",78,"Flanker","present",1,"H","2",0,0.0932158916712069,"fast","post_error",0.426956343650818,69.7916666666667
237.098928993884,0.2,"AM04EN20b","2022_Feb_16_1204","Present_First","S_red","MainTask",78,"Target","present",1,"H","2",0,0.0932158916712069,"fast","post_error",0.426956343650818,69.7916666666667
237.192144885556,0,"AM04EN20b","2022_Feb_16_1204","Present_First","S_red","MainTask",78,"Response","present",1,"H","2",0,0.0932158916712069,"fast","post_error",0.426956343650818,69.7916666666667
238.199864647462,0.1,"AM04EN20b","2022_Feb_16_1204","Present_First","S_red","MainTask",79,"Flanker","present",1,"H","4",1,0.351840750739939,"fast","post_error",0.426956343650818,69.7916666666667
238.283270689028,0.2,"AM04EN20b","2022_Feb_16_1204","Present_First","S_red","MainTask",79,"Target","present",1,"H","4",1,0.351840750739939,"fast","post_error",0.426956343650818,69.7916666666667
238.635111439768,0,"AM04EN20b","2022_Feb_16_1204","Present_First","S_red","MainTask",79,"Response","present",1,"H","4",1,0.351840750739939,"fast","post_error",0.426956343650818,69.7916666666667
239.58437815865,0.1,"AM04EN20b","2022_Feb_16_1204","Present_First","S_red","MainTask",80,"Flanker","present",0.33,"S","2",1,0.256295570266957,"fast","post_correct",0.426956343650818,69.7916666666667
239.667780991427,0.2,"AM04EN20b","2022_Feb_16_1204","Present_First","S_red","MainTask",80,"Target","present",0.33,"S","2",1,0.256295570266957,"fast","post_correct",0.426956343650818,69.7916666666667
239.924076561694,0,"AM04EN20b","2022_Feb_16_1204","Present_First","S_red","MainTask",80,"Response","present",0.33,"S","2",1,0.256295570266957,"fast","post_correct",0.426956343650818,69.7916666666667
240.735360704299,0.1,"AM04EN20b","2022_Feb_16_1204","Present_First","S_red","MainTask",81,"Flanker","present",0,"S","4",0,0.295265724158526,"fast","post_correct",0.426956343650818,69.7916666666667
240.818760328288,0.2,"AM04EN20b","2022_Feb_16_1204","Present_First","S_red","MainTask",81,"Target","present",0,"S","4",0,0.295265724158526,"fast","post_correct",0.426956343650818,69.7916666666667
241.114026052446,0,"AM04EN20b","2022_Feb_16_1204","Present_First","S_red","MainTask",81,"Response","present",0,"S","4",0,0.295265724158526,"fast","post_correct",0.426956343650818,69.7916666666667
241.969738498316,0.1,"AM04EN20b","2022_Feb_16_1204","Present_First","S_red","MainTask",82,"Flanker","present",0,"H","4",1,0.299897172910278,"fast","post_error",0.426956343650818,69.7916666666667
242.053142497924,0.2,"AM04EN20b","2022_Feb_16_1204","Present_First","S_red","MainTask",82,"Target","present",0,"H","4",1,0.299897172910278,"fast","post_error",0.426956343650818,69.7916666666667
242.353039670834,0,"AM04EN20b","2022_Feb_16_1204","Present_First","S_red","MainTask",82,"Response","present",0,"H","4",1,0.299897172910278,"fast","post_error",0.426956343650818,69.7916666666667
243.354250550963,0.1,"AM04EN20b","2022_Feb_16_1204","Present_First","S_red","MainTask",83,"Flanker","present",1,"S","2",1,0.265353397013314,"fast","post_correct",0.426956343650818,69.7916666666667
243.43765338374,0.2,"AM04EN20b","2022_Feb_16_1204","Present_First","S_red","MainTask",83,"Target","present",1,"S","2",1,0.265353397013314,"fast","post_correct",0.426956343650818,69.7916666666667
243.703006780754,0,"AM04EN20b","2022_Feb_16_1204","Present_First","S_red","MainTask",83,"Response","present",1,"S","2",1,0.265353397013314,"fast","post_correct",0.426956343650818,69.7916666666667
244.72208040349,0.1,"AM04EN20b","2022_Feb_16_1204","Present_First","S_red","MainTask",84,"Flanker","present",0.33,"H","4",1,0.137483755508583,"fast","post_correct",0.426956343650818,69.7916666666667
244.805485278222,0.2,"AM04EN20b","2022_Feb_16_1204","Present_First","S_red","MainTask",84,"Target","present",0.33,"H","4",1,0.137483755508583,"fast","post_correct",0.426956343650818,69.7916666666667
244.942969033731,0,"AM04EN20b","2022_Feb_16_1204","Present_First","S_red","MainTask",84,"Response","present",0.33,"H","4",1,0.137483755508583,"fast","post_correct",0.426956343650818,69.7916666666667
245.772974415744,0.1,"AM04EN20b","2022_Feb_16_1204","Present_First","S_red","MainTask",85,"Flanker","present",1,"H","2",0,0.224576111735587,"fast","post_correct",0.426956343650818,69.7916666666667
245.856379582186,0.2,"AM04EN20b","2022_Feb_16_1204","Present_First","S_red","MainTask",85,"Target","present",1,"H","2",0,0.224576111735587,"fast","post_correct",0.426956343650818,69.7916666666667
246.080955693922,0,"AM04EN20b","2022_Feb_16_1204","Present_First","S_red","MainTask",85,"Response","present",1,"H","2",0,0.224576111735587,"fast","post_correct",0.426956343650818,69.7916666666667
246.873911819572,0.1,"AM04EN20b","2022_Feb_16_1204","Present_First","S_red","MainTask",86,"Flanker","present",0.66,"S","2",1,0.237627421724028,"fast","post_error",0.426956343650818,69.7916666666667
246.957315235764,0.2,"AM04EN20b","2022_Feb_16_1204","Present_First","S_red","MainTask",86,"Target","present",0.66,"S","2",1,0.237627421724028,"fast","post_error",0.426956343650818,69.7916666666667
247.194942657488,0,"AM04EN20b","2022_Feb_16_1204","Present_First","S_red","MainTask",86,"Response","present",0.66,"S","2",1,0.237627421724028,"fast","post_error",0.426956343650818,69.7916666666667
248.124984357155,0.1,"AM04EN20b","2022_Feb_16_1204","Present_First","S_red","MainTask",87,"Flanker","present",1,"H","4",1,0.187521896335966,"fast","post_correct",0.426956343650818,69.7916666666667
248.208379605523,0.2,"AM04EN20b","2022_Feb_16_1204","Present_First","S_red","MainTask",87,"Target","present",1,"H","4",1,0.187521896335966,"fast","post_correct",0.426956343650818,69.7916666666667
248.395901501859,0,"AM04EN20b","2022_Feb_16_1204","Present_First","S_red","MainTask",87,"Response","present",1,"H","4",1,0.187521896335966,"fast","post_correct",0.426956343650818,69.7916666666667
249.275955234481,0.1,"AM04EN20b","2022_Feb_16_1204","Present_First","S_red","MainTask",88,"Flanker","present",0,"H","2",0,0.260536421938014,"fast","post_correct",0.426956343650818,69.7916666666667
249.359357775551,0.2,"AM04EN20b","2022_Feb_16_1204","Present_First","S_red","MainTask",88,"Target","present",0,"H","2",0,0.260536421938014,"fast","post_correct",0.426956343650818,69.7916666666667
249.619894197489,0,"AM04EN20b","2022_Feb_16_1204","Present_First","S_red","MainTask",88,"Response","present",0,"H","2",0,0.260536421938014,"fast","post_correct",0.426956343650818,69.7916666666667
250.610424187264,0.1,"AM04EN20b","2022_Feb_16_1204","Present_First","S_red","MainTask",89,"Flanker","present",1,"S","4",0,0.403025012506987,"fast","post_error",0.426956343650818,69.7916666666667
250.6938255615,0.2,"AM04EN20b","2022_Feb_16_1204","Present_First","S_red","MainTask",89,"Target","present",1,"S","4",0,0.403025012506987,"fast","post_error",0.426956343650818,69.7916666666667
251.096850574007,0,"AM04EN20b","2022_Feb_16_1204","Present_First","S_red","MainTask",89,"Response","present",1,"S","4",0,0.403025012506987,"fast","post_error",0.426956343650818,69.7916666666667
251.94489109809,0.1,"AM04EN20b","2022_Feb_16_1204","Present_First","S_red","MainTask",90,"Flanker","present",1,"H","2",0,0.288515599817401,"fast","post_error",0.426956343650818,69.7916666666667
252.028295972823,0.2,"AM04EN20b","2022_Feb_16_1204","Present_First","S_red","MainTask",90,"Target","present",1,"H","2",0,0.288515599817401,"fast","post_error",0.426956343650818,69.7916666666667
252.31681157264,0,"AM04EN20b","2022_Feb_16_1204","Present_First","S_red","MainTask",90,"Response","present",1,"H","2",0,0.288515599817401,"fast","post_error",0.426956343650818,69.7916666666667
253.262680184416,0.1,"AM04EN20b","2022_Feb_16_1204","Present_First","S_red","MainTask",91,"Flanker","present",0.66,"S","2",1,0.327700742544039,"fast","post_error",0.426956343650818,69.7916666666667
253.346084184026,0.2,"AM04EN20b","2022_Feb_16_1204","Present_First","S_red","MainTask",91,"Target","present",0.66,"S","2",1,0.327700742544039,"fast","post_error",0.426956343650818,69.7916666666667
253.67378492657,0,"AM04EN20b","2022_Feb_16_1204","Present_First","S_red","MainTask",91,"Response","present",0.66,"S","2",1,0.327700742544039,"fast","post_error",0.426956343650818,69.7916666666667
254.563785320375,0.1,"AM04EN20b","2022_Feb_16_1204","Present_First","S_red","MainTask",92,"Flanker","present",1,"H","4",1,0.225575795233453,"fast","post_correct",0.426956343650818,69.7916666666667
254.6471899034,0.2,"AM04EN20b","2022_Feb_16_1204","Present_First","S_red","MainTask",92,"Target","present",1,"H","4",1,0.225575795233453,"fast","post_correct",0.426956343650818,69.7916666666667
254.872765698634,0,"AM04EN20b","2022_Feb_16_1204","Present_First","S_red","MainTask",92,"Response","present",1,"H","4",1,0.225575795233453,"fast","post_correct",0.426956343650818,69.7916666666667
255.881572073036,0.1,"AM04EN20b","2022_Feb_16_1204","Present_First","S_red","MainTask",93,"Flanker","present",0.66,"S","2",1,0.236765424426267,"fast","post_correct",0.426956343650818,69.7916666666667
255.964976364354,0.2,"AM04EN20b","2022_Feb_16_1204","Present_First","S_red","MainTask",93,"Target","present",0.66,"S","2",1,0.236765424426267,"fast","post_correct",0.426956343650818,69.7916666666667
256.20174178878,0,"AM04EN20b","2022_Feb_16_1204","Present_First","S_red","MainTask",93,"Response","present",0.66,"S","2",1,0.236765424426267,"fast","post_correct",0.426956343650818,69.7916666666667
257.082593634637,0.1,"AM04EN20b","2022_Feb_16_1204","Present_First","S_red","MainTask",94,"Flanker","present",1,"S","2",1,0.202733304453432,"fast","post_correct",0.426956343650818,69.7916666666667
257.1659850908,0.2,"AM04EN20b","2022_Feb_16_1204","Present_First","S_red","MainTask",94,"Target","present",1,"S","2",1,0.202733304453432,"fast","post_correct",0.426956343650818,69.7916666666667
257.368718395253,0,"AM04EN20b","2022_Feb_16_1204","Present_First","S_red","MainTask",94,"Response","present",1,"S","2",1,0.202733304453432,"fast","post_correct",0.426956343650818,69.7916666666667
258.233573846623,0.1,"AM04EN20b","2022_Feb_16_1204","Present_First","S_red","MainTask",95,"Flanker","present",0.66,"H","4",1,0.219718880949586,"fast","post_correct",0.426956343650818,69.7916666666667
258.316974345735,0.2,"AM04EN20b","2022_Feb_16_1204","Present_First","S_red","MainTask",95,"Target","present",0.66,"H","4",1,0.219718880949586,"fast","post_correct",0.426956343650818,69.7916666666667
258.536693226684,0,"AM04EN20b","2022_Feb_16_1204","Present_First","S_red","MainTask",95,"Response","present",0.66,"H","4",1,0.219718880949586,"fast","post_correct",0.426956343650818,69.7916666666667
258.583868836391,12.2912474457316,"AM04EN20b","2022_Feb_16_1204","Present_First","S_red","MainTask",95,"Break","present",0.66,"H","4",1,12.2912474457316,"fast","post_correct",NA,69.7916666666667
273.880213880344,0.1,"AM04EN20b","2022_Feb_16_1204","Present_First","S_red","MainTask",96,"Flanker","present",1,"S","2",1,0.428734701736175,"slow","post_break",0.426956343650818,69.7916666666667
273.963618463369,0.2,"AM04EN20b","2022_Feb_16_1204","Present_First","S_red","MainTask",96,"Target","present",1,"S","2",1,0.428734701736175,"slow","post_break",0.426956343650818,69.7916666666667
274.392353165105,0,"AM04EN20b","2022_Feb_16_1204","Present_First","S_red","MainTask",96,"Response","present",1,"S","2",1,0.428734701736175,"slow","post_break",0.426956343650818,69.7916666666667
274.430679519322,0.1,"AM04EN20b","2022_Feb_16_1204","Present_First","S_red","MainTask",96,"TooSlowFeedback","present",1,"S","2",1,0.428734701736175,"slow","post_break",0.426956343650818,69.7916666666667
276.248895812092,0.1,"AM04EN20b","2022_Feb_16_1204","Present_First","S_red","MainTask",97,"Flanker","present",0.33,"S","2",1,0.251066411714419,"fast","post_correct",0.426956343650818,69.7916666666667
276.332298936577,0.2,"AM04EN20b","2022_Feb_16_1204","Present_First","S_red","MainTask",97,"Target","present",0.33,"S","2",1,0.251066411714419,"fast","post_correct",0.426956343650818,69.7916666666667
276.583365348291,0,"AM04EN20b","2022_Feb_16_1204","Present_First","S_red","MainTask",97,"Response","present",0.33,"S","2",1,0.251066411714419,"fast","post_correct",0.426956343650818,69.7916666666667
277.433236340405,0.1,"AM04EN20b","2022_Feb_16_1204","Present_First","S_red","MainTask",98,"Flanker","present",1,"S","2",1,0.119637931964462,"fast","post_correct",0.426956343650818,69.7916666666667
277.516640048307,0.2,"AM04EN20b","2022_Feb_16_1204","Present_First","S_red","MainTask",98,"Target","present",1,"S","2",1,0.119637931964462,"fast","post_correct",0.426956343650818,69.7916666666667
277.636277980271,0,"AM04EN20b","2022_Feb_16_1204","Present_First","S_red","MainTask",98,"Response","present",1,"S","2",1,0.119637931964462,"fast","post_correct",0.426956343650818,69.7916666666667
278.634257902006,0.1,"AM04EN20b","2022_Feb_16_1204","Present_First","S_red","MainTask",99,"Flanker","present",0,"H","2",0,0.261581611892325,"fast","post_correct",0.426956343650818,69.7916666666667
278.717669486025,0.2,"AM04EN20b","2022_Feb_16_1204","Present_First","S_red","MainTask",99,"Target","present",0,"H","2",0,0.261581611892325,"fast","post_correct",0.426956343650818,69.7916666666667
278.979251097917,0,"AM04EN20b","2022_Feb_16_1204","Present_First","S_red","MainTask",99,"Response","present",0,"H","2",0,0.261581611892325,"fast","post_correct",0.426956343650818,69.7916666666667
279.968730646993,0.1,"AM04EN20b","2022_Feb_16_1204","Present_First","S_red","MainTask",100,"Flanker","present",0.33,"H","4",1,0.260081940790769,"fast","post_error",0.426956343650818,69.7916666666667
280.052138730514,0.2,"AM04EN20b","2022_Feb_16_1204","Present_First","S_red","MainTask",100,"Target","present",0.33,"H","4",1,0.260081940790769,"fast","post_error",0.426956343650818,69.7916666666667
280.312220671305,0,"AM04EN20b","2022_Feb_16_1204","Present_First","S_red","MainTask",100,"Response","present",0.33,"H","4",1,0.260081940790769,"fast","post_error",0.426956343650818,69.7916666666667
281.153067966517,0.1,"AM04EN20b","2022_Feb_16_1204","Present_First","S_red","MainTask",101,"Flanker","present",1,"S","2",1,0.243734329807921,"fast","post_correct",0.426956343650818,69.7916666666667
281.236470799295,0.2,"AM04EN20b","2022_Feb_16_1204","Present_First","S_red","MainTask",101,"Target","present",1,"S","2",1,0.243734329807921,"fast","post_correct",0.426956343650818,69.7916666666667
281.480205129103,0,"AM04EN20b","2022_Feb_16_1204","Present_First","S_red","MainTask",101,"Response","present",1,"S","2",1,0.243734329807921,"fast","post_correct",0.426956343650818,69.7916666666667
282.454173102475,0.1,"AM04EN20b","2022_Feb_16_1204","Present_First","S_red","MainTask",102,"Flanker","present",1,"S","2",1,0.255578843582043,"fast","post_correct",0.426956343650818,69.7916666666667
282.537577102084,0.2,"AM04EN20b","2022_Feb_16_1204","Present_First","S_red","MainTask",102,"Target","present",1,"S","2",1,0.255578843582043,"fast","post_correct",0.426956343650818,69.7916666666667
282.793155945667,0,"AM04EN20b","2022_Feb_16_1204","Present_First","S_red","MainTask",102,"Response","present",1,"S","2",1,0.255578843582043,"fast","post_correct",0.426956343650818,69.7916666666667
283.771961021968,0.1,"AM04EN20b","2022_Feb_16_1204","Present_First","S_red","MainTask",103,"Flanker","present",1,"H","4",1,0.225772989877441,"fast","post_correct",0.426956343650818,69.7916666666667
283.855365313286,0.2,"AM04EN20b","2022_Feb_16_1204","Present_First","S_red","MainTask",103,"Target","present",1,"H","4",1,0.225772989877441,"fast","post_correct",0.426956343650818,69.7916666666667
284.081138303163,0,"AM04EN20b","2022_Feb_16_1204","Present_First","S_red","MainTask",103,"Response","present",1,"H","4",1,0.225772989877441,"fast","post_correct",0.426956343650818,69.7916666666667
284.872897842381,0.1,"AM04EN20b","2022_Feb_16_1204","Present_First","S_red","MainTask",104,"Flanker","present",0.33,"H","2",0,0.318809772803434,"fast","post_correct",0.426956343650818,69.7916666666667
284.95630184199,0.2,"AM04EN20b","2022_Feb_16_1204","Present_First","S_red","MainTask",104,"Target","present",0.33,"H","2",0,0.318809772803434,"fast","post_correct",0.426956343650818,69.7916666666667
285.275111614794,0,"AM04EN20b","2022_Feb_16_1204","Present_First","S_red","MainTask",104,"Response","present",0.33,"H","2",0,0.318809772803434,"fast","post_correct",0.426956343650818,69.7916666666667
286.17400414517,0.1,"AM04EN20b","2022_Feb_16_1204","Present_First","S_red","MainTask",105,"Flanker","present",1,"H","4",1,0.284692474078838,"fast","post_error",0.426956343650818,69.7916666666667
286.257427105804,0.2,"AM04EN20b","2022_Feb_16_1204","Present_First","S_red","MainTask",105,"Target","present",1,"H","4",1,0.284692474078838,"fast","post_error",0.426956343650818,69.7916666666667
286.542119579883,0,"AM04EN20b","2022_Feb_16_1204","Present_First","S_red","MainTask",105,"Response","present",1,"H","4",1,0.284692474078838,"fast","post_error",0.426956343650818,69.7916666666667
287.42506822322,0.1,"AM04EN20b","2022_Feb_16_1204","Present_First","S_red","MainTask",106,"Flanker","present",0.33,"S","2",1,0.255605097305306,"fast","post_correct",0.426956343650818,69.7916666666667
287.508478640406,0.2,"AM04EN20b","2022_Feb_16_1204","Present_First","S_red","MainTask",106,"Target","present",0.33,"S","2",1,0.255605097305306,"fast","post_correct",0.426956343650818,69.7916666666667
287.764083737711,0,"AM04EN20b","2022_Feb_16_1204","Present_First","S_red","MainTask",106,"Response","present",0.33,"S","2",1,0.255605097305306,"fast","post_correct",0.426956343650818,69.7916666666667
288.692812167725,0.1,"AM04EN20b","2022_Feb_16_1204","Present_First","S_red","MainTask",107,"Flanker","present",1,"H","4",1,0.228840591758853,"fast","post_correct",0.426956343650818,69.7916666666667
288.77621675075,0.2,"AM04EN20b","2022_Feb_16_1204","Present_First","S_red","MainTask",107,"Target","present",1,"H","4",1,0.228840591758853,"fast","post_correct",0.426956343650818,69.7916666666667
289.005057342509,0,"AM04EN20b","2022_Feb_16_1204","Present_First","S_red","MainTask",107,"Response","present",1,"H","4",1,0.228840591758853,"fast","post_correct",0.426956343650818,69.7916666666667
289.943876245776,0.1,"AM04EN20b","2022_Feb_16_1204","Present_First","S_red","MainTask",108,"Flanker","present",1,"S","2",1,0.207722095572535,"fast","post_correct",0.426956343650818,69.7916666666667
290.027280537091,0.2,"AM04EN20b","2022_Feb_16_1204","Present_First","S_red","MainTask",108,"Target","present",1,"S","2",1,0.207722095572535,"fast","post_correct",0.426956343650818,69.7916666666667
290.235002632664,0,"AM04EN20b","2022_Feb_16_1204","Present_First","S_red","MainTask",108,"Response","present",1,"S","2",1,0.207722095572535,"fast","post_correct",0.426956343650818,69.7916666666667
291.161579132371,0.1,"AM04EN20b","2022_Feb_16_1204","Present_First","S_red","MainTask",109,"Flanker","present",0,"H","2",0,0.232989555393942,"fast","post_correct",0.426956343650818,69.7916666666667
291.244984007106,0.2,"AM04EN20b","2022_Feb_16_1204","Present_First","S_red","MainTask",109,"Target","present",0,"H","2",0,0.232989555393942,"fast","post_correct",0.426956343650818,69.7916666666667
291.4779735625,0,"AM04EN20b","2022_Feb_16_1204","Present_First","S_red","MainTask",109,"Response","present",0,"H","2",0,0.232989555393942,"fast","post_correct",0.426956343650818,69.7916666666667
292.279197569487,0.1,"AM04EN20b","2022_Feb_16_1204","Present_First","S_red","MainTask",110,"Flanker","present",0.33,"S","2",1,0.285389364617004,"fast","post_error",0.426956343650818,69.7916666666667
292.362600693972,0.2,"AM04EN20b","2022_Feb_16_1204","Present_First","S_red","MainTask",110,"Target","present",0.33,"S","2",1,0.285389364617004,"fast","post_error",0.426956343650818,69.7916666666667
292.647990058589,0,"AM04EN20b","2022_Feb_16_1204","Present_First","S_red","MainTask",110,"Response","present",0.33,"S","2",1,0.285389364617004,"fast","post_error",0.426956343650818,69.7916666666667
293.446858814761,0.1,"AM04EN20b","2022_Feb_16_1204","Present_First","S_red","MainTask",111,"Flanker","present",1,"S","4",0,0.117712658817254,"fast","post_correct",0.426956343650818,69.7916666666667
293.530260772413,0.2,"AM04EN20b","2022_Feb_16_1204","Present_First","S_red","MainTask",111,"Target","present",1,"S","4",0,0.117712658817254,"fast","post_correct",0.426956343650818,69.7916666666667
293.647973431231,0,"AM04EN20b","2022_Feb_16_1204","Present_First","S_red","MainTask",111,"Response","present",1,"S","4",0,0.117712658817254,"fast","post_correct",0.426956343650818,69.7916666666667
294.514431526639,0.1,"AM04EN20b","2022_Feb_16_1204","Present_First","S_red","MainTask",112,"Flanker","present",1,"S","2",1,0.199041447338459,"fast","post_error",0.426956343650818,69.7916666666667
294.597857112643,0.2,"AM04EN20b","2022_Feb_16_1204","Present_First","S_red","MainTask",112,"Target","present",1,"S","2",1,0.199041447338459,"fast","post_error",0.426956343650818,69.7916666666667
294.796898559982,0,"AM04EN20b","2022_Feb_16_1204","Present_First","S_red","MainTask",112,"Response","present",1,"S","2",1,0.199041447338459,"fast","post_error",0.426956343650818,69.7916666666667
295.798855045892,0.1,"AM04EN20b","2022_Feb_16_1204","Present_First","S_red","MainTask",113,"Flanker","present",0.66,"S","2",1,0.204621238972322,"fast","post_correct",0.426956343650818,69.7916666666667
295.88226079575,0.2,"AM04EN20b","2022_Feb_16_1204","Present_First","S_red","MainTask",113,"Target","present",0.66,"S","2",1,0.204621238972322,"fast","post_correct",0.426956343650818,69.7916666666667
296.086882034722,0,"AM04EN20b","2022_Feb_16_1204","Present_First","S_red","MainTask",113,"Response","present",0.66,"S","2",1,0.204621238972322,"fast","post_correct",0.426956343650818,69.7916666666667
297.03324013261,0.1,"AM04EN20b","2022_Feb_16_1204","Present_First","S_red","MainTask",114,"Flanker","present",1,"H","4",1,0.261219018781048,"fast","post_correct",0.426956343650818,69.7916666666667
297.116644715636,0.2,"AM04EN20b","2022_Feb_16_1204","Present_First","S_red","MainTask",114,"Target","present",1,"H","4",1,0.261219018781048,"fast","post_correct",0.426956343650818,69.7916666666667
297.377863734417,0,"AM04EN20b","2022_Feb_16_1204","Present_First","S_red","MainTask",114,"Response","present",1,"H","4",1,0.261219018781048,"fast","post_correct",0.426956343650818,69.7916666666667
298.351035053098,0.1,"AM04EN20b","2022_Feb_16_1204","Present_First","S_red","MainTask",115,"Flanker","present",1,"S","2",1,0.350530106457882,"fast","post_correct",0.426956343650818,69.7916666666667
298.434430593174,0.2,"AM04EN20b","2022_Feb_16_1204","Present_First","S_red","MainTask",115,"Target","present",1,"S","2",1,0.350530106457882,"fast","post_correct",0.426956343650818,69.7916666666667
298.784960699631,0,"AM04EN20b","2022_Feb_16_1204","Present_First","S_red","MainTask",115,"Response","present",1,"S","2",1,0.350530106457882,"fast","post_correct",0.426956343650818,69.7916666666667
299.702177454759,0.1,"AM04EN20b","2022_Feb_16_1204","Present_First","S_red","MainTask",116,"Flanker","present",0,"S","4",0,0.193222163394239,"fast","post_correct",0.426956343650818,69.7916666666667
299.785580579244,0.2,"AM04EN20b","2022_Feb_16_1204","Present_First","S_red","MainTask",116,"Target","present",0,"S","4",0,0.193222163394239,"fast","post_correct",0.426956343650818,69.7916666666667
299.978802742638,0,"AM04EN20b","2022_Feb_16_1204","Present_First","S_red","MainTask",116,"Response","present",0,"S","4",0,0.193222163394239,"fast","post_correct",0.426956343650818,69.7916666666667
300.96992052414,0.1,"AM04EN20b","2022_Feb_16_1204","Present_First","S_red","MainTask",117,"Flanker","present",0.66,"H","2",0,0.246454507399903,"fast","post_error",0.426956343650818,69.7916666666667
301.053326273997,0.2,"AM04EN20b","2022_Feb_16_1204","Present_First","S_red","MainTask",117,"Target","present",0.66,"H","2",0,0.246454507399903,"fast","post_error",0.426956343650818,69.7916666666667
301.299780781397,0,"AM04EN20b","2022_Feb_16_1204","Present_First","S_red","MainTask",117,"Response","present",0.66,"H","2",0,0.246454507399903,"fast","post_error",0.426956343650818,69.7916666666667
302.154260760744,0.1,"AM04EN20b","2022_Feb_16_1204","Present_First","S_red","MainTask",118,"Flanker","present",0,"H","2",0,0.290073612528431,"fast","post_error",0.426956343650818,69.7916666666667
302.237663885229,0.2,"AM04EN20b","2022_Feb_16_1204","Present_First","S_red","MainTask",118,"Target","present",0,"H","2",0,0.290073612528431,"fast","post_error",0.426956343650818,69.7916666666667
302.527737497758,0,"AM04EN20b","2022_Feb_16_1204","Present_First","S_red","MainTask",118,"Response","present",0,"H","2",0,0.290073612528431,"fast","post_error",0.426956343650818,69.7916666666667
303.355283780886,0.1,"AM04EN20b","2022_Feb_16_1204","Present_First","S_red","MainTask",119,"Flanker","present",1,"S","2",1,0.310022942838259,"fast","post_error",0.426956343650818,69.7916666666667
303.438686321955,0.2,"AM04EN20b","2022_Feb_16_1204","Present_First","S_red","MainTask",119,"Target","present",1,"S","2",1,0.310022942838259,"fast","post_error",0.426956343650818,69.7916666666667
303.748709264793,0,"AM04EN20b","2022_Feb_16_1204","Present_First","S_red","MainTask",119,"Response","present",1,"S","2",1,0.310022942838259,"fast","post_error",0.426956343650818,69.7916666666667
304.606346400395,0.1,"AM04EN20b","2022_Feb_16_1204","Present_First","S_red","MainTask",120,"Flanker","present",1,"S","2",1,0.276936540371025,"fast","post_correct",0.426956343650818,69.7916666666667
304.689751858545,0.2,"AM04EN20b","2022_Feb_16_1204","Present_First","S_red","MainTask",120,"Target","present",1,"S","2",1,0.276936540371025,"fast","post_correct",0.426956343650818,69.7916666666667
304.966688398916,0,"AM04EN20b","2022_Feb_16_1204","Present_First","S_red","MainTask",120,"Response","present",1,"S","2",1,0.276936540371025,"fast","post_correct",0.426956343650818,69.7916666666667
305.990859328167,0.1,"AM04EN20b","2022_Feb_16_1204","Present_First","S_red","MainTask",121,"Flanker","present",1,"S","2",1,0.240362476424707,"fast","post_correct",0.426956343650818,69.7916666666667
306.074290164916,0.2,"AM04EN20b","2022_Feb_16_1204","Present_First","S_red","MainTask",121,"Target","present",1,"S","2",1,0.240362476424707,"fast","post_correct",0.426956343650818,69.7916666666667
306.31465264134,0,"AM04EN20b","2022_Feb_16_1204","Present_First","S_red","MainTask",121,"Response","present",1,"S","2",1,0.240362476424707,"fast","post_correct",0.426956343650818,69.7916666666667
307.191880014643,0.1,"AM04EN20b","2022_Feb_16_1204","Present_First","S_red","MainTask",122,"Flanker","present",0.33,"H","4",1,0.312353981888009,"fast","post_correct",0.426956343650818,69.7916666666667
307.275285181084,0.2,"AM04EN20b","2022_Feb_16_1204","Present_First","S_red","MainTask",122,"Target","present",0.33,"H","4",1,0.312353981888009,"fast","post_correct",0.426956343650818,69.7916666666667
307.587639162972,0,"AM04EN20b","2022_Feb_16_1204","Present_First","S_red","MainTask",122,"Response","present",0.33,"H","4",1,0.312353981888009,"fast","post_correct",0.426956343650818,69.7916666666667
308.442944676108,0.1,"AM04EN20b","2022_Feb_16_1204","Present_First","S_red","MainTask",123,"Flanker","present",0.66,"H","2",0,0.236267478781883,"fast","post_correct",0.426956343650818,69.7916666666667
308.526356551834,0.2,"AM04EN20b","2022_Feb_16_1204","Present_First","S_red","MainTask",123,"Target","present",0.66,"H","2",0,0.236267478781883,"fast","post_correct",0.426956343650818,69.7916666666667
308.762624030616,0,"AM04EN20b","2022_Feb_16_1204","Present_First","S_red","MainTask",123,"Response","present",0.66,"H","2",0,0.236267478781883,"fast","post_correct",0.426956343650818,69.7916666666667
309.71068920403,0.1,"AM04EN20b","2022_Feb_16_1204","Present_First","S_red","MainTask",124,"Flanker","present",1,"S","2",1,0.253492255878882,"fast","post_error",0.426956343650818,69.7916666666667
309.794091161682,0.2,"AM04EN20b","2022_Feb_16_1204","Present_First","S_red","MainTask",124,"Target","present",1,"S","2",1,0.253492255878882,"fast","post_error",0.426956343650818,69.7916666666667
310.047583417561,0,"AM04EN20b","2022_Feb_16_1204","Present_First","S_red","MainTask",124,"Response","present",1,"S","2",1,0.253492255878882,"fast","post_error",0.426956343650818,69.7916666666667
310.961754448912,0.1,"AM04EN20b","2022_Feb_16_1204","Present_First","S_red","MainTask",125,"Flanker","present",1,"H","4",1,0.203452364803525,"fast","post_correct",0.426956343650818,69.7916666666667
311.045118776226,0.2,"AM04EN20b","2022_Feb_16_1204","Present_First","S_red","MainTask",125,"Target","present",1,"H","4",1,0.203452364803525,"fast","post_correct",0.426956343650818,69.7916666666667
311.24857114103,0,"AM04EN20b","2022_Feb_16_1204","Present_First","S_red","MainTask",125,"Response","present",1,"H","4",1,0.203452364803525,"fast","post_correct",0.426956343650818,69.7916666666667
312.146094685517,0.1,"AM04EN20b","2022_Feb_16_1204","Present_First","S_red","MainTask",126,"Flanker","present",0,"H","2",0,0.209031281312491,"fast","post_correct",0.426956343650818,69.7916666666667
312.229494892921,0.2,"AM04EN20b","2022_Feb_16_1204","Present_First","S_red","MainTask",126,"Target","present",0,"H","2",0,0.209031281312491,"fast","post_correct",0.426956343650818,69.7916666666667
312.438526174234,0,"AM04EN20b","2022_Feb_16_1204","Present_First","S_red","MainTask",126,"Response","present",0,"H","2",0,0.209031281312491,"fast","post_correct",0.426956343650818,69.7916666666667
313.330435505537,0.1,"AM04EN20b","2022_Feb_16_1204","Present_First","S_red","MainTask",127,"Flanker","present",0,"S","2",1,0.328665712781003,"fast","post_error",0.426956343650818,69.7916666666667
313.41383892173,0.2,"AM04EN20b","2022_Feb_16_1204","Present_First","S_red","MainTask",127,"Target","present",0,"S","2",1,0.328665712781003,"fast","post_error",0.426956343650818,69.7916666666667
313.742504634511,0,"AM04EN20b","2022_Feb_16_1204","Present_First","S_red","MainTask",127,"Response","present",0,"S","2",1,0.328665712781003,"fast","post_error",0.426956343650818,69.7916666666667
314.598179158334,0.1,"AM04EN20b","2022_Feb_16_1204","Present_First","S_red","MainTask",128,"Flanker","present",0.66,"H","2",0,0.26089055551347,"fast","post_correct",0.426956343650818,69.7916666666667
314.681583449652,0.2,"AM04EN20b","2022_Feb_16_1204","Present_First","S_red","MainTask",128,"Target","present",0.66,"H","2",0,0.26089055551347,"fast","post_correct",0.426956343650818,69.7916666666667
314.942474005165,0,"AM04EN20b","2022_Feb_16_1204","Present_First","S_red","MainTask",128,"Response","present",0.66,"H","2",0,0.26089055551347,"fast","post_correct",0.426956343650818,69.7916666666667
315.73247979557,0.1,"AM04EN20b","2022_Feb_16_1204","Present_First","S_red","MainTask",129,"Flanker","present",1,"H","4",1,0.316567704709087,"fast","post_error",0.426956343650818,69.7916666666667
315.815880294682,0.2,"AM04EN20b","2022_Feb_16_1204","Present_First","S_red","MainTask",129,"Target","present",1,"H","4",1,0.316567704709087,"fast","post_error",0.426956343650818,69.7916666666667
316.132447999391,0,"AM04EN20b","2022_Feb_16_1204","Present_First","S_red","MainTask",129,"Response","present",1,"H","4",1,0.316567704709087,"fast","post_error",0.426956343650818,69.7916666666667
317.150349830881,0.1,"AM04EN20b","2022_Feb_16_1204","Present_First","S_red","MainTask",130,"Flanker","present",0.33,"H","4",1,0.250685440996676,"fast","post_correct",0.426956343650818,69.7916666666667
317.233755289031,0.2,"AM04EN20b","2022_Feb_16_1204","Present_First","S_red","MainTask",130,"Target","present",0.33,"H","4",1,0.250685440996676,"fast","post_correct",0.426956343650818,69.7916666666667
317.484440730028,0,"AM04EN20b","2022_Feb_16_1204","Present_First","S_red","MainTask",130,"Response","present",0.33,"H","4",1,0.250685440996676,"fast","post_correct",0.426956343650818,69.7916666666667
318.451456717088,0.1,"AM04EN20b","2022_Feb_16_1204","Present_First","S_red","MainTask",131,"Flanker","present",1,"S","4",0,0.392529940185341,"fast","post_correct",0.426956343650818,69.7916666666667
318.534873260143,0.2,"AM04EN20b","2022_Feb_16_1204","Present_First","S_red","MainTask",131,"Target","present",1,"S","4",0,0.392529940185341,"fast","post_correct",0.426956343650818,69.7916666666667
318.927403200329,0,"AM04EN20b","2022_Feb_16_1204","Present_First","S_red","MainTask",131,"Response","present",1,"S","4",0,0.392529940185341,"fast","post_correct",0.426956343650818,69.7916666666667
319.919371310803,0.1,"AM04EN20b","2022_Feb_16_1204","Present_First","S_red","MainTask",132,"Flanker","present",1,"H","4",1,0.313585573285309,"fast","post_error",0.426956343650818,69.7916666666667
320.002775893829,0.2,"AM04EN20b","2022_Feb_16_1204","Present_First","S_red","MainTask",132,"Target","present",1,"H","4",1,0.313585573285309,"fast","post_error",0.426956343650818,69.7916666666667
320.316361467114,0,"AM04EN20b","2022_Feb_16_1204","Present_First","S_red","MainTask",132,"Response","present",1,"H","4",1,0.313585573285309,"fast","post_error",0.426956343650818,69.7916666666667
321.270520713459,0.1,"AM04EN20b","2022_Feb_16_1204","Present_First","S_red","MainTask",133,"Flanker","present",0.66,"H","2",0,0.337393034304114,"fast","post_correct",0.426956343650818,69.7916666666667
321.353935506266,0.2,"AM04EN20b","2022_Feb_16_1204","Present_First","S_red","MainTask",133,"Target","present",0.66,"H","2",0,0.337393034304114,"fast","post_correct",0.426956343650818,69.7916666666667
321.69132854057,0,"AM04EN20b","2022_Feb_16_1204","Present_First","S_red","MainTask",133,"Response","present",0.66,"H","2",0,0.337393034304114,"fast","post_correct",0.426956343650818,69.7916666666667
322.671712632562,0.1,"AM04EN20b","2022_Feb_16_1204","Present_First","S_red","MainTask",134,"Flanker","present",1,"H","4",1,0.237190734769683,"fast","post_error",0.426956343650818,69.7916666666667
322.755115173632,0.2,"AM04EN20b","2022_Feb_16_1204","Present_First","S_red","MainTask",134,"Target","present",1,"H","4",1,0.237190734769683,"fast","post_error",0.426956343650818,69.7916666666667
322.992305908401,0,"AM04EN20b","2022_Feb_16_1204","Present_First","S_red","MainTask",134,"Response","present",1,"H","4",1,0.237190734769683,"fast","post_error",0.426956343650818,69.7916666666667
323.789331069678,0.1,"AM04EN20b","2022_Feb_16_1204","Present_First","S_red","MainTask",135,"Flanker","present",0.66,"S","2",1,0.268589606150272,"fast","post_correct",0.426956343650818,69.7916666666667
323.87273156879,0.2,"AM04EN20b","2022_Feb_16_1204","Present_First","S_red","MainTask",135,"Target","present",0.66,"S","2",1,0.268589606150272,"fast","post_correct",0.426956343650818,69.7916666666667
324.14132117494,0,"AM04EN20b","2022_Feb_16_1204","Present_First","S_red","MainTask",135,"Response","present",0.66,"S","2",1,0.268589606150272,"fast","post_correct",0.426956343650818,69.7916666666667
324.990350589322,0.1,"AM04EN20b","2022_Feb_16_1204","Present_First","S_red","MainTask",136,"Flanker","present",1,"S","4",0,0.209497430781994,"fast","post_correct",0.426956343650818,69.7916666666667
325.073754880639,0.2,"AM04EN20b","2022_Feb_16_1204","Present_First","S_red","MainTask",136,"Target","present",1,"S","4",0,0.209497430781994,"fast","post_correct",0.426956343650818,69.7916666666667
325.283252311421,0,"AM04EN20b","2022_Feb_16_1204","Present_First","S_red","MainTask",136,"Response","present",1,"S","4",0,0.209497430781994,"fast","post_correct",0.426956343650818,69.7916666666667
326.308151343972,0.1,"AM04EN20b","2022_Feb_16_1204","Present_First","S_red","MainTask",137,"Flanker","present",1,"S","2",1,0.0936840830945584,"fast","post_error",0.426956343650818,69.7916666666667
326.391540466469,0.2,"AM04EN20b","2022_Feb_16_1204","Present_First","S_red","MainTask",137,"Target","present",1,"S","2",1,0.0936840830945584,"fast","post_error",0.426956343650818,69.7916666666667
326.485224549564,0,"AM04EN20b","2022_Feb_16_1204","Present_First","S_red","MainTask",137,"Response","present",1,"S","2",1,0.0936840830945584,"fast","post_error",0.426956343650818,69.7916666666667
327.342352946323,0.1,"AM04EN20b","2022_Feb_16_1204","Present_First","S_red","MainTask",138,"Flanker","present",0.66,"H","4",1,0.269472314717859,"fast","post_correct",0.426956343650818,69.7916666666667
327.425754903976,0.2,"AM04EN20b","2022_Feb_16_1204","Present_First","S_red","MainTask",138,"Target","present",0.66,"H","4",1,0.269472314717859,"fast","post_correct",0.426956343650818,69.7916666666667
327.695227218694,0,"AM04EN20b","2022_Feb_16_1204","Present_First","S_red","MainTask",138,"Response","present",0.66,"H","4",1,0.269472314717859,"fast","post_correct",0.426956343650818,69.7916666666667
328.693501182146,0.1,"AM04EN20b","2022_Feb_16_1204","Present_First","S_red","MainTask",139,"Flanker","present",1,"S","2",1,0.213274174939215,"fast","post_correct",0.426956343650818,69.7916666666667
328.776906056879,0.2,"AM04EN20b","2022_Feb_16_1204","Present_First","S_red","MainTask",139,"Target","present",1,"S","2",1,0.213274174939215,"fast","post_correct",0.426956343650818,69.7916666666667
328.990180231818,0,"AM04EN20b","2022_Feb_16_1204","Present_First","S_red","MainTask",139,"Response","present",1,"S","2",1,0.213274174939215,"fast","post_correct",0.426956343650818,69.7916666666667
329.977926451647,0.1,"AM04EN20b","2022_Feb_16_1204","Present_First","S_red","MainTask",140,"Flanker","present",0,"S","4",0,0.119814123629112,"fast","post_correct",0.426956343650818,69.7916666666667
330.061344453243,0.2,"AM04EN20b","2022_Feb_16_1204","Present_First","S_red","MainTask",140,"Target","present",0,"S","4",0,0.119814123629112,"fast","post_correct",0.426956343650818,69.7916666666667
330.181158576872,0,"AM04EN20b","2022_Feb_16_1204","Present_First","S_red","MainTask",140,"Response","present",0,"S","4",0,0.119814123629112,"fast","post_correct",0.426956343650818,69.7916666666667
331.062181655356,0.1,"AM04EN20b","2022_Feb_16_1204","Present_First","S_red","MainTask",141,"Flanker","present",0.33,"S","2",1,0.239548902665774,"fast","post_error",0.426956343650818,69.7916666666667
331.145586238381,0.2,"AM04EN20b","2022_Feb_16_1204","Present_First","S_red","MainTask",141,"Target","present",0.33,"S","2",1,0.239548902665774,"fast","post_error",0.426956343650818,69.7916666666667
331.385135141047,0,"AM04EN20b","2022_Feb_16_1204","Present_First","S_red","MainTask",141,"Response","present",0.33,"S","2",1,0.239548902665774,"fast","post_error",0.426956343650818,69.7916666666667
332.213160700507,0.1,"AM04EN20b","2022_Feb_16_1204","Present_First","S_red","MainTask",142,"Flanker","present",0.33,"S","2",1,0.360533650711659,"fast","post_correct",0.426956343650818,69.7916666666667
332.296563241576,0.2,"AM04EN20b","2022_Feb_16_1204","Present_First","S_red","MainTask",142,"Target","present",0.33,"S","2",1,0.360533650711659,"fast","post_correct",0.426956343650818,69.7916666666667
332.657096892288,0,"AM04EN20b","2022_Feb_16_1204","Present_First","S_red","MainTask",142,"Response","present",0.33,"S","2",1,0.360533650711659,"fast","post_correct",0.426956343650818,69.7916666666667
333.631033069483,0.1,"AM04EN20b","2022_Feb_16_1204","Present_First","S_red","MainTask",143,"Flanker","present",1,"H","4",1,0.200670928519685,"fast","post_correct",0.426956343650818,69.7916666666667
333.714446112041,0.2,"AM04EN20b","2022_Feb_16_1204","Present_First","S_red","MainTask",143,"Target","present",1,"H","4",1,0.200670928519685,"fast","post_correct",0.426956343650818,69.7916666666667
333.91511704056,0,"AM04EN20b","2022_Feb_16_1204","Present_First","S_red","MainTask",143,"Response","present",1,"H","4",1,0.200670928519685,"fast","post_correct",0.426956343650818,69.7916666666667
334.832055506207,0.1,"AM04EN20b","2022_Feb_16_1204","Present_First","S_red","MainTask",144,"Flanker","present",0.33,"H","2",0,0.246586067731187,"fast","post_correct",0.426956343650818,69.7916666666667
334.915459505817,0.2,"AM04EN20b","2022_Feb_16_1204","Present_First","S_red","MainTask",144,"Target","present",0.33,"H","2",0,0.246586067731187,"fast","post_correct",0.426956343650818,69.7916666666667
335.162045573548,0,"AM04EN20b","2022_Feb_16_1204","Present_First","S_red","MainTask",144,"Response","present",0.33,"H","2",0,0.246586067731187,"fast","post_correct",0.426956343650818,69.7916666666667
336.116481067418,0.1,"AM04EN20b","2022_Feb_16_1204","Present_First","S_red","MainTask",145,"Flanker","present",1,"H","2",0,0.261133256613903,"fast","post_error",0.426956343650818,69.7916666666667
336.199884191903,0.2,"AM04EN20b","2022_Feb_16_1204","Present_First","S_red","MainTask",145,"Target","present",1,"H","2",0,0.261133256613903,"fast","post_error",0.426956343650818,69.7916666666667
336.461017448517,0,"AM04EN20b","2022_Feb_16_1204","Present_First","S_red","MainTask",145,"Response","present",1,"H","2",0,0.261133256613903,"fast","post_error",0.426956343650818,69.7916666666667
337.284141729273,0.1,"AM04EN20b","2022_Feb_16_1204","Present_First","S_red","MainTask",146,"Flanker","present",1,"H","4",1,0.22243935024926,"fast","post_error",0.426956343650818,69.7916666666667
337.367544853758,0.2,"AM04EN20b","2022_Feb_16_1204","Present_First","S_red","MainTask",146,"Target","present",1,"H","4",1,0.22243935024926,"fast","post_error",0.426956343650818,69.7916666666667
337.589984204007,0,"AM04EN20b","2022_Feb_16_1204","Present_First","S_red","MainTask",146,"Response","present",1,"H","4",1,0.22243935024926,"fast","post_error",0.426956343650818,69.7916666666667
338.58524715694,0.1,"AM04EN20b","2022_Feb_16_1204","Present_First","S_red","MainTask",147,"Flanker","present",1,"H","4",1,0.250328098632963,"fast","post_correct",0.426956343650818,69.7916666666667
338.668660199499,0.2,"AM04EN20b","2022_Feb_16_1204","Present_First","S_red","MainTask",147,"Target","present",1,"H","4",1,0.250328098632963,"fast","post_correct",0.426956343650818,69.7916666666667
338.918988298132,0,"AM04EN20b","2022_Feb_16_1204","Present_First","S_red","MainTask",147,"Response","present",1,"H","4",1,0.250328098632963,"fast","post_correct",0.426956343650818,69.7916666666667
339.903034784726,0.1,"AM04EN20b","2022_Feb_16_1204","Present_First","S_red","MainTask",148,"Flanker","present",1,"H","4",1,0.242495737415084,"fast","post_correct",0.426956343650818,69.7916666666667
339.986436742378,0.2,"AM04EN20b","2022_Feb_16_1204","Present_First","S_red","MainTask",148,"Target","present",1,"H","4",1,0.242495737415084,"fast","post_correct",0.426956343650818,69.7916666666667
340.228932479793,0,"AM04EN20b","2022_Feb_16_1204","Present_First","S_red","MainTask",148,"Response","present",1,"H","4",1,0.242495737415084,"fast","post_correct",0.426956343650818,69.7916666666667
341.2041405041,0.1,"AM04EN20b","2022_Feb_16_1204","Present_First","S_red","MainTask",149,"Flanker","present",0,"H","2",0,0.252372096958425,"fast","post_correct",0.426956343650818,69.7916666666667
341.287546545665,0.2,"AM04EN20b","2022_Feb_16_1204","Present_First","S_red","MainTask",149,"Target","present",0,"H","2",0,0.252372096958425,"fast","post_correct",0.426956343650818,69.7916666666667
341.539918642624,0,"AM04EN20b","2022_Feb_16_1204","Present_First","S_red","MainTask",149,"Response","present",0,"H","2",0,0.252372096958425,"fast","post_correct",0.426956343650818,69.7916666666667
342.53860974859,0.1,"AM04EN20b","2022_Feb_16_1204","Present_First","S_red","MainTask",150,"Flanker","present",1,"H","4",1,0.270864928961601,"fast","post_error",0.426956343650818,69.7916666666667
342.622012873075,0.2,"AM04EN20b","2022_Feb_16_1204","Present_First","S_red","MainTask",150,"Target","present",1,"H","4",1,0.270864928961601,"fast","post_error",0.426956343650818,69.7916666666667
342.892877802036,0,"AM04EN20b","2022_Feb_16_1204","Present_First","S_red","MainTask",150,"Response","present",1,"H","4",1,0.270864928961601,"fast","post_error",0.426956343650818,69.7916666666667
343.906446310402,0.1,"AM04EN20b","2022_Feb_16_1204","Present_First","S_red","MainTask",151,"Flanker","present",1,"S","2",1,0.329012553655048,"fast","post_correct",0.426956343650818,69.7916666666667
343.989842725603,0.2,"AM04EN20b","2022_Feb_16_1204","Present_First","S_red","MainTask",151,"Target","present",1,"S","2",1,0.329012553655048,"fast","post_correct",0.426956343650818,69.7916666666667
344.318855279258,0,"AM04EN20b","2022_Feb_16_1204","Present_First","S_red","MainTask",151,"Response","present",1,"S","2",1,0.329012553655048,"fast","post_correct",0.426956343650818,69.7916666666667
345.290972365037,0.1,"AM04EN20b","2022_Feb_16_1204","Present_First","S_red","MainTask",152,"Flanker","present",1,"H","4",1,0.25547324526633,"fast","post_correct",0.426956343650818,69.7916666666667
345.37435331971,0.2,"AM04EN20b","2022_Feb_16_1204","Present_First","S_red","MainTask",152,"Target","present",1,"H","4",1,0.25547324526633,"fast","post_correct",0.426956343650818,69.7916666666667
345.629826564977,0,"AM04EN20b","2022_Feb_16_1204","Present_First","S_red","MainTask",152,"Response","present",1,"H","4",1,0.25547324526633,"fast","post_correct",0.426956343650818,69.7916666666667
346.608736947886,0.1,"AM04EN20b","2022_Feb_16_1204","Present_First","S_red","MainTask",153,"Flanker","present",1,"H","4",1,0.221682076144134,"fast","post_correct",0.426956343650818,69.7916666666667
346.692141822621,0.2,"AM04EN20b","2022_Feb_16_1204","Present_First","S_red","MainTask",153,"Target","present",1,"H","4",1,0.221682076144134,"fast","post_correct",0.426956343650818,69.7916666666667
346.913823898765,0,"AM04EN20b","2022_Feb_16_1204","Present_First","S_red","MainTask",153,"Response","present",1,"H","4",1,0.221682076144134,"fast","post_correct",0.426956343650818,69.7916666666667
347.943207650918,0.1,"AM04EN20b","2022_Feb_16_1204","Present_First","S_red","MainTask",154,"Flanker","present",1,"S","2",1,0.312146869169737,"fast","post_correct",0.426956343650818,69.7916666666667
