Flanker,FlankerAndTarget,Congruency,Target,Item,Anchors,NASA_Item,NASA_Anchor,Practiceloop.thisRepN,Practiceloop.thisTrialN,Practiceloop.thisN,Practiceloop.thisIndex,Conditions.thisRepN,Conditions.thisTrialN,Conditions.thisN,Conditions.thisIndex,TrialLoop.thisRepN,TrialLoop.thisTrialN,TrialLoop.thisN,TrialLoop.thisIndex,NASAtrials.thisRepN,NASAtrials.thisTrialN,NASAtrials.thisN,NASAtrials.thisIndex,OrderExperimenter,ResponseMapping,ITI_jitter,IntTrInt.started,IntTrInt.stopped,CorrAns,PracFlankers.started,PracFlankers.stopped,PracTarget.started,PracTarget.stopped,PracResp.keys,PracResp.corr,PracResp.rt,PracFeedbackSlide.started,PracFeedbackSlide.stopped,cutoff,cond_marker,Experimenter_Resp.keys,TargetTrigger,FlankerTrigger,ResponseTrigger,FlankerSlide.started,FlankerSlide.stopped,TargetSlide.started,TargetSlide.stopped,TargetResponse.keys,TargetResponse.corr,TargetResponse.rt,TargetResponse.started,TargetResponse.stopped,FeedbackSlide.started,FeedbackSlide.stopped,showReminder,ReminderErrors.started,ReminderErrors.stopped,key_resp_3.keys,key_resp_3.started,key_resp_3.stopped,break_slide.started,break_slide.stopped,break_resp.keys,break_resp.started,break_resp.stopped,text.started,text.stopped,break_resp.rt,ExperimenterPresence,SelfReport.started,SelfReport.stopped,anxious.response,anxious.rt,peppy.response,peppy.rt,peeved.response,peeved.rt,happy.response,happy.rt,tired.response,tired.rt,relaxed.response,relaxed.rt,sad.response,sad.rt,calm.response,calm.rt,exhausted.response,exhausted.rt,irritated.response,irritated.rt,ItemSlide.started,ItemSlide.stopped,rating.response,rating.rt,Experimenter_Resp.rt,key_resp_3.rt,participant,session,EEGPort,LogFilesFolder,date,expName,psychopyVersion,frameRate,
SSS SSS,SSSHSSS,0,H,,,,,0,0,0,6,,,,,,,,,,,,,NotPresent_First,S_blue,0.914078514399511,148.7781903212781,None,2,147.79402232635584,147.8940979960662,147.8940979960662,148.09426742153664,2,1,0.8640197242984868,None,None,,,,,,,,,,,,,,,,,,,,,,,,,,,,,,,,,,,,,,,,,,,,,,,,,,,,,,,,,,,,,AU06EL20,1,0xC010,G:\Experimente\CoScience\Tasks\Logfiles\,2022_Mar_01_1148,Flanker,2020.1.3,59.94834174175183,
SSS SSS,SSSSSSS,30,S,,,,,0,1,1,14,,,,,,,,,,,,,,,0.8064820519376812,150.4963334904678,None,4,149.69564703727156,149.7957323334267,149.77905086731334,149.9792229181785,4,1,0.6910683489404619,None,None,,,,,,,,,,,,,,,,,,,,,,,,,,,,,,,,,,,,,,,,,,,,,,,,,,,,,,,,,,,,,AU06EL20,1,0xC010,G:\Experimente\CoScience\Tasks\Logfiles\,2022_Mar_01_1148,Flanker,2020.1.3,59.94834174175183,
HSS SSH,HSSSSSH,20,S,,,,,0,2,2,2,,,,,,,,,,,,,,,0.8786155398612803,152.04767366694068,None,4,151.31370286833044,151.4137907898821,151.3971072817949,151.5972787492392,4,1,0.6259778136645764,None,None,,,,,,,,,,,,,,,,,,,,,,,,,,,,,,,,,,,,,,,,,,,,,,,,,,,,,,,,,,,,,AU06EL20,1,0xC010,G:\Experimente\CoScience\Tasks\Logfiles\,2022_Mar_01_1148,Flanker,2020.1.3,59.94834174175183,
SHH HHS,SHHHHHS,20,H,,,,,0,3,3,8,,,,,,,,,,,,,,,0.8413710096835852,153.61568626650296,None,2,152.93176015794415,153.03184312041594,153.01516953048667,153.21533691398326,2,1,0.5799126385336422,None,None,,,,,,,,,,,,,,,,,,,,,,,,,,,,,,,,,,,,,,,,,,,,,,,,,,,,,,,,,,,,,AU06EL20,1,0xC010,G:\Experimente\CoScience\Tasks\Logfiles\,2022_Mar_01_1148,Flanker,2020.1.3,59.94834174175183,
HHH HHH,HHHHHHH,30,H,,,,,0,4,4,11,,,,,,,,,,,,,,,0.937771874658447,154.9839019549272,None,2,154.46641186724992,154.56649687169738,154.54981890610907,154.75000875131627,2,1,0.40524250479029433,None,None,,,,,,,,,,,,,,,,,,,,,,,,,,,,,,,,,,,,,,,,,,,,,,,,,,,,,,,,,,,,,AU06EL20,1,0xC010,G:\Experimente\CoScience\Tasks\Logfiles\,2022_Mar_01_1148,Flanker,2020.1.3,59.94834174175183,
HHS SHH,HHSSSHH,10,S,,,,,0,5,5,1,,,,,,,,,,,,,,,0.8206378793832991,156.451828091489,None,4,155.93472831248982,156.03480223193583,156.01812047411113,156.2182942752388,4,1,0.400932773560271,None,None,,,,,,,,,,,,,,,,,,,,,,,,,,,,,,,,,,,,,,,,,,,,,,,,,,,,,,,,,,,,,AU06EL20,1,0xC010,G:\Experimente\CoScience\Tasks\Logfiles\,2022_Mar_01_1148,Flanker,2020.1.3,59.94834174175183,
HHH HHH,HHHSHHH,0,S,,,,,0,6,6,0,,,,,,,,,,,,,,,0.7522390545941281,157.83635360682638,None,4,157.2858760183608,157.38596393991247,157.36930026814116,157.5694539412434,4,1,0.4497178575838916,None,None,,,,,,,,,,,,,,,,,,,,,,,,,,,,,,,,,,,,,,,,,,,,,,,,,,,,,,,,,,,,,AU06EL20,1,0xC010,G:\Experimente\CoScience\Tasks\Logfiles\,2022_Mar_01_1148,Flanker,2020.1.3,59.94834174175183,
SSH HSS,SSHHHSS,10,H,,,,,0,7,7,7,,,,,,,,,,,,,,,0.9623054799093591,159.2041918218365,None,2,158.60367654437323,158.70376154881887,158.68708212467936,158.8872527169915,2,1,0.4859343021234963,None,None,,,,,,,,,,,,,,,,,,,,,,,,,,,,,,,,,,,,,,,,,,,,,,,,,,,,,,,,,,,,,AU06EL20,1,0xC010,G:\Experimente\CoScience\Tasks\Logfiles\,2022_Mar_01_1148,Flanker,2020.1.3,59.94834174175183,
HHH HHH,HHHHHHH,30,H,,,,,0,8,8,10,,,,,,,,,,,,,,,0.7965737147950833,160.53867585593798,None,2,160.1716903107772,160.27177414838116,160.25509355739814,160.4552670668163,2,1,0.25689428644182044,None,None,,,,,,,,,,,,,,,,,,,,,,,,,,,,,,,,,,,,,,,,,,,,,,,,,,,,,,,,,,,,,AU06EL20,1,0xC010,G:\Experimente\CoScience\Tasks\Logfiles\,2022_Mar_01_1148,Flanker,2020.1.3,59.94834174175183,
SSS SSS,SSSSSSS,30,S,,,,,0,9,9,5,,,,,,,,,,,,,,,0.7973121544596036,162.03996142420146,None,4,161.33936055886988,161.4394461467382,161.42276526404567,161.62293702319948,2,0,0.5882007178406639,None,None,,,,,,,,,,,,,,,,,,,,,,,,,,,,,,,,,,,,,,,,,,,,,,,,,,,,,,,,,,,,,AU06EL20,1,0xC010,G:\Experimente\CoScience\Tasks\Logfiles\,2022_Mar_01_1148,Flanker,2020.1.3,59.94834174175183,
HHH HHH,HHHHHHH,30,H,,,,,0,10,10,9,,,,,,,,,,,,,,,0.9242002028557652,163.5579319591052,None,2,162.8406505027924,162.94073550723806,162.9240540411247,163.12422667541068,2,1,0.6059011288034526,None,None,,,,,,,,,,,,,,,,,,,,,,,,,,,,,,,,,,,,,,,,,,,,,,,,,,,,,,,,,,,,,AU06EL20,1,0xC010,G:\Experimente\CoScience\Tasks\Logfiles\,2022_Mar_01_1148,Flanker,2020.1.3,59.94834174175183,
SSS SSS,SSSSSSS,30,S,,,,,0,11,11,3,,,,,,,,,,,,,,,0.9990862026675063,164.9758166144311,None,4,164.49206809923817,164.59215339539332,164.57547309612164,164.77565506514475,4,1,0.3704472739063931,None,None,,,,,,,,,,,,,,,,,,,,,,,,,,,,,,,,,,,,,,,,,,,,,,,,,,,,,,,,,,,,,AU06EL20,1,0xC010,G:\Experimente\CoScience\Tasks\Logfiles\,2022_Mar_01_1148,Flanker,2020.1.3,59.94834174175183,
HSS SSH,HSSSSSH,20,S,,,,,0,12,12,13,,,,,,,,,,,,,,,0.9253438588980902,166.47710539151012,None,4,165.97670720664973,166.07676187320249,166.06008128221947,166.26025274966378,4,1,0.39281972056414816,None,None,,,,,,,,,,,,,,,,,,,,,,,,,,,,,,,,,,,,,,,,,,,,,,,,,,,,,,,,,,,,,AU06EL20,1,0xC010,G:\Experimente\CoScience\Tasks\Logfiles\,2022_Mar_01_1148,Flanker,2020.1.3,59.94834174175183,
SSS SSS,SSSSSSS,30,S,,,,,0,13,13,4,,,,,,,,,,,,,,,0.8836906554161845,167.76153773450642,None,4,167.41124328190745,167.51133062003646,167.4946494456326,167.6948509592603,4,1,0.24823690161429113,None,None,,,,,,,,,,,,,,,,,,,,,,,,,,,,,,,,,,,,,,,,,,,,,,,,,,,,,,,,,,,,,AU06EL20,1,0xC010,G:\Experimente\CoScience\Tasks\Logfiles\,2022_Mar_01_1148,Flanker,2020.1.3,59.94834174175183,
HHH HHH,HHHHHHH,30,H,,,,,0,14,14,12,,,,,,,,,,,,,,,0.9914467762827393,169.1460702508939,None,2,168.64563647735122,168.74572148179686,168.72904176594602,168.92921264996767,2,1,0.3928421822747623,None,None,,,,,,,,,,,,,,,,,,,,,,,,,,,,,,,,,,,,,,,,,,,,,,,,,,,,,,,,,,,,,AU06EL20,1,0xC010,G:\Experimente\CoScience\Tasks\Logfiles\,2022_Mar_01_1148,Flanker,2020.1.3,59.94834174175183,
SSS SSS,SSSSSSS,30,S,,,,,,,,,0,0,0,0,0,0,0,4,,,,,,,0.8728959398792275,184.54263320085738,None,4,,,,,,,,,,0.6099164605140686,100,None,134,130,137,183.9921684476576,184.09223799144456,184.05887855974288,184.25904973547767,4,1,0.4428652857477573,184.05887855974288,None,None,None,False,None,None,None,None,None,None,None,None,None,None,None,None,,,,,,,,,,,,,,,,,,,,,,,,,,,,,,,AU06EL20,1,0xC010,G:\Experimente\CoScience\Tasks\Logfiles\,2022_Mar_01_1148,Flanker,2020.1.3,59.94834174175183,
HHS SHH,HHSSSHH,10,S,,,,,,,,,0,0,0,0,0,1,1,1,,,,,,,0.7803082770168581,185.89379140830897,None,4,,,,,,,,,,,,,114,110,117,185.42671706646615,185.52680440459517,185.51012935611288,185.71029615618863,4,1,0.35160160744271707,185.51012935611288,None,None,None,False,None,None,None,None,None,None,None,None,None,None,None,None,,,,,,,,,,,,,,,,,,,,,,,,,,,,,,,AU06EL20,1,0xC010,G:\Experimente\CoScience\Tasks\Logfiles\,2022_Mar_01_1148,Flanker,2020.1.3,59.94834174175183,
SSH HSS,SSHHHSS,10,H,,,,,,,,,0,0,0,0,0,2,2,7,,,,,,,0.7724663217555333,187.1281816866467,None,2,,,,,,,,,,,,,114,110,117,186.6778168151286,186.7778802329958,186.76117163780327,186.96137023432493,2,1,0.34652759464916016,186.76117163780327,None,None,None,False,None,None,None,None,None,None,None,None,None,None,None,None,,,,,,,,,,,,,,,,,,,,,,,,,,,,,,,AU06EL20,1,0xC010,G:\Experimente\CoScience\Tasks\Logfiles\,2022_Mar_01_1148,Flanker,2020.1.3,59.94834174175183,
HHH HHH,HHHSHHH,0,S,,,,,,,,,0,0,0,0,0,3,3,0,,,,,,,0.9553910442663601,188.34590275071423,None,4,,,,,,,,,,,,,104,100,107,187.91218725715044,188.01227226159608,187.99559225403573,188.19576401318955,4,1,0.3330905329439702,187.99559225403573,None,None,None,False,None,None,None,None,None,None,None,None,None,None,None,None,,,,,,,,,,,,,,,,,,,,,,,,,,,,,,,AU06EL20,1,0xC010,G:\Experimente\CoScience\Tasks\Logfiles\,2022_Mar_01_1148,Flanker,2020.1.3,59.94834174175183,
SSS SSS,SSSSSSS,30,S,,,,,,,,,0,0,0,0,0,4,4,4,,,,,,,0.9592116512991109,189.66369248343653,None,4,,,,,,,,,,,,,134,130,139,189.31339248833683,189.41347807620332,189.3967957349596,189.59696691069257,2,0,0.24986464631911076,189.3967957349596,None,None,None,False,None,None,None,None,None,None,None,None,None,None,None,None,,,,,,,,,,,,,,,,,,,,,,,,,,,,,,,AU06EL20,1,0xC010,G:\Experimente\CoScience\Tasks\Logfiles\,2022_Mar_01_1148,Flanker,2020.1.3,59.94834174175183,
HHS SHH,HHSSSHH,10,S,,,,,,,,,0,0,0,0,0,5,5,1,,,,,,,0.8322158781946043,191.24838742424254,None,4,,,,,,,,,,,,,114,110,117,190.63119038895456,190.73127568511154,190.71459655268154,190.91476510301982,4,1,0.5080503352346568,190.71459655268154,None,None,None,False,None,None,None,None,None,None,None,None,None,None,None,None,,,,,,,,,,,,,,,,,,,,,,,,,,,,,,,AU06EL20,1,0xC010,G:\Experimente\CoScience\Tasks\Logfiles\,2022_Mar_01_1148,Flanker,2020.1.3,59.94834174175183,
SHH HHS,SHHHHHS,20,H,,,,,,,,,0,0,0,0,0,6,6,8,,,,,,,0.7925715141926876,192.5328244346074,None,2,,,,,,,,,,,,,124,120,127,192.08243710137685,192.18252268924516,192.1658415148413,192.36601502425947,2,1,0.3377961153491924,192.1658415148413,None,None,None,False,None,None,None,None,None,None,None,None,None,None,None,None,,,,,,,,,,,,,,,,,,,,,,,,,,,,,,,AU06EL20,1,0xC010,G:\Experimente\CoScience\Tasks\Logfiles\,2022_Mar_01_1148,Flanker,2020.1.3,59.94834174175183,
HHH HHH,HHHHHHH,30,H,,,,,,,,,0,0,0,0,0,7,7,10,,,,,,,0.9156958357420668,193.70049380756973,None,2,,,,,,,,,,,,,134,130,137,193.33351205464533,193.4335973508023,193.4169167598193,193.61709727028938,2,1,0.2666945930868678,193.4169167598193,None,None,None,False,None,None,None,None,None,None,None,None,None,None,None,None,,,,,,,,,,,,,,,,,,,,,,,,,,,,,,,AU06EL20,1,0xC010,G:\Experimente\CoScience\Tasks\Logfiles\,2022_Mar_01_1148,Flanker,2020.1.3,59.94834174175183,
HHH HHH,HHHHHHH,30,H,,,,,,,,,0,0,0,0,0,8,8,10,,,,,,,0.8220689840731702,194.9682732720812,None,2,,,,,,,,,,,,,134,130,137,194.61794789816668,194.71803348603498,194.7013534784728,194.9015246542058,2,1,0.2352589922684274,194.7013534784728,None,None,None,False,None,None,None,None,None,None,None,None,None,None,None,None,,,,,,,,,,,,,,,,,,,,,,,,,,,,,,,AU06EL20,1,0xC010,G:\Experimente\CoScience\Tasks\Logfiles\,2022_Mar_01_1148,Flanker,2020.1.3,59.94834174175183,
SSS SSS,SSSSSSS,30,S,,,,,,,,,0,0,0,0,0,9,9,5,,,,,,,0.9429366431118502,196.2526857787616,None,4,,,,,,,,,,,,,134,130,137,195.8023001957954,195.90238549195237,195.88570460925985,196.08587490986065,4,1,0.34087716186695616,195.88570460925985,None,None,None,False,None,None,None,None,None,None,None,None,None,None,None,None,,,,,,,,,,,,,,,,,,,,,,,,,,,,,,,AU06EL20,1,0xC010,G:\Experimente\CoScience\Tasks\Logfiles\,2022_Mar_01_1148,Flanker,2020.1.3,59.94834174175183,
SSS SSS,SSSSSSS,30,S,,,,,,,,,0,0,0,0,0,10,10,3,,,,,,,0.8536604202731887,197.55380250497728,None,4,,,,,,,,,,,,,134,130,137,197.2035028015871,197.3035872226119,197.28690575649853,197.48708043275838,4,1,0.24164978635235457,197.28690575649853,None,None,None,False,None,None,None,None,None,None,None,None,None,None,None,None,,,,,,,,,,,,,,,,,,,,,,,,,,,,,,,AU06EL20,1,0xC010,G:\Experimente\CoScience\Tasks\Logfiles\,2022_Mar_01_1148,Flanker,2020.1.3,59.94834174175183,
HSS SSH,HSSSSSH,20,S,,,,,,,,,0,0,0,0,0,11,11,2,,,,,,,0.9368278092989458,198.7548353935872,None,4,,,,,,,,,,,,,124,120,127,198.42121686460268,198.52130216075784,198.50462156977665,198.70479157866794,4,1,0.23191803167719627,198.50462156977665,None,None,None,False,None,None,None,None,None,None,None,None,None,None,None,None,,,,,,,,,,,,,,,,,,,,,,,,,,,,,,,AU06EL20,1,0xC010,G:\Experimente\CoScience\Tasks\Logfiles\,2022_Mar_01_1148,Flanker,2020.1.3,59.94834174175183,
SSH HSS,SSHHHSS,10,H,,,,,,,,,0,0,0,0,1,0,12,7,,,,,,,0.7740949499223877,200.05595270322374,None,2,,,,,,,,,,,,,114,110,119,199.7056535832562,199.80573712914884,199.78905712158667,199.98922858903097,4,0,0.2404715675602347,199.78905712158667,None,None,None,False,None,None,None,None,None,None,None,None,None,None,None,None,,,,,,,,,,,,,,,,,,,,,,,,,,,,,,,AU06EL20,1,0xC010,G:\Experimente\CoScience\Tasks\Logfiles\,2022_Mar_01_1148,Flanker,2020.1.3,59.94834174175183,
SSH HSS,SSHHHSS,10,H,,,,,,,,,0,0,0,0,1,1,13,7,,,,,,,0.9459552843974885,201.30702736478088,None,2,,,,,,,,,,,,,114,110,117,200.83996031570132,200.94004736212082,200.92336472916395,201.12355953344922,2,1,0.36114404198633565,200.92336472916395,None,None,None,False,None,None,None,None,None,None,None,None,None,None,None,None,,,,,,,,,,,,,,,,,,,,,,,,,,,,,,,AU06EL20,1,0xC010,G:\Experimente\CoScience\Tasks\Logfiles\,2022_Mar_01_1148,Flanker,2020.1.3,59.94834174175183,
HSS SSH,HSSSSSH,20,S,,,,,,,,,0,0,0,0,1,2,14,2,,,,,,,0.9219976736359182,202.691559006038,None,4,,,,,,,,,,,,,124,120,127,202.25784642958024,202.3579288086312,202.34124763422733,202.54142172706634,4,1,0.32026081254298333,202.34124763422733,None,None,None,False,None,None,None,None,None,None,None,None,None,None,None,None,,,,,,,,,,,,,,,,,,,,,,,,,,,,,,,AU06EL20,1,0xC010,G:\Experimente\CoScience\Tasks\Logfiles\,2022_Mar_01_1148,Flanker,2020.1.3,59.94834174175183,
SSH HSS,SSHHHSS,10,H,,,,,,,,,0,0,0,0,1,3,15,7,,,,,,,0.9236283152085665,204.00934932218115,None,2,,,,,,,,,,,,,114,110,119,203.6256968964335,203.72577314956288,203.70909080831916,203.9092614006313,4,0,0.26939058171774377,203.70909080831916,None,None,None,False,None,None,None,None,None,None,None,None,None,None,None,None,,,,,,,,,,,,,,,,,,,,,,,,,,,,,,,AU06EL20,1,0xC010,G:\Experimente\CoScience\Tasks\Logfiles\,2022_Mar_01_1148,Flanker,2020.1.3,59.94834174175183,
SSS SSS,SSSSSSS,30,S,,,,,,,,,0,0,0,0,1,4,16,5,,,,,,,0.9477243829158786,205.46059603460344,None,4,,,,,,,,,,,,,134,130,137,204.94348546231413,205.0435707584711,205.02689045919942,205.22706017637938,4,1,0.4055689288634312,205.02689045919942,None,None,None,False,None,None,None,None,None,None,None,None,None,None,None,None,,,,,,,,,,,,,,,,,,,,,,,,,,,,,,,AU06EL20,1,0xC010,G:\Experimente\CoScience\Tasks\Logfiles\,2022_Mar_01_1148,Flanker,2020.1.3,59.94834174175183,
HHH HHH,HHHSHHH,0,S,,,,,,,,,0,0,0,0,1,5,17,0,,,,,,,0.8563691628599801,206.94520392898994,None,4,,,,,,,,,,,,,104,100,107,206.41141305742894,206.5114980618746,206.49485276786618,206.69498864662637,4,1,0.422614157994758,206.49485276786618,None,None,None,False,None,None,None,None,None,None,None,None,None,None,None,None,,,,,,,,,,,,,,,,,,,,,,,,,,,,,,,AU06EL20,1,0xC010,G:\Experimente\CoScience\Tasks\Logfiles\,2022_Mar_01_1148,Flanker,2020.1.3,59.94834174175183,
HHH HHH,HHHSHHH,0,S,,,,,,,,,0,0,0,0,1,6,18,0,,,,,,,0.8822712577630388,208.37977034214236,None,4,,,,,,,,,,,,,104,100,107,207.812617413485,207.91270270964014,207.89602095181726,208.09619066899722,4,1,0.45642136534479505,207.89602095181726,None,None,None,False,None,None,None,None,None,None,None,None,None,None,None,None,,,,,,,,,,,,,,,,,,,,,,,,,,,,,,,AU06EL20,1,0xC010,G:\Experimente\CoScience\Tasks\Logfiles\,2022_Mar_01_1148,Flanker,2020.1.3,59.94834174175183,
HHH HHH,HHHHHHH,30,H,,,,,,,,,0,0,0,0,1,7,19,11,,,,,,,0.9663902577398257,209.6475255946807,None,2,,,,,,,,,,,,,134,130,137,209.26386354248643,209.36394562982605,209.34726678910738,209.54744029852554,2,1,0.2691397106700606,209.34726678910738,None,None,None,False,None,None,None,None,None,None,None,None,None,None,None,None,,,,,,,,,,,,,,,,,,,,,,,,,,,,,,,AU06EL20,1,0xC010,G:\Experimente\CoScience\Tasks\Logfiles\,2022_Mar_01_1148,Flanker,2020.1.3,59.94834174175183,
HHH HHH,HHHSHHH,0,S,,,,,,,,,0,0,0,0,1,8,20,0,,,,,,,0.8942923875968813,211.08209025756878,None,4,,,,,,,,,,,,,104,100,107,210.6150465453302,210.71510792122353,210.69842791366318,210.89859879768665,4,1,0.36598585320643906,210.69842791366318,None,None,None,False,None,None,None,None,None,None,None,None,None,None,None,None,,,,,,,,,,,,,,,,,,,,,,,,,,,,,,,AU06EL20,1,0xC010,G:\Experimente\CoScience\Tasks\Logfiles\,2022_Mar_01_1148,Flanker,2020.1.3,59.94834174175183,
SSH HSS,SSHHHSS,10,H,,,,,,,,,0,0,0,0,1,9,21,7,,,,,,,0.8701302870033619,212.48329373849265,None,2,,,,,,,,,,,,,114,110,117,211.9828657991584,212.08295051189452,212.06626875406982,212.26644138835582,2,1,0.39010477075134986,212.06626875406982,None,None,None,False,None,None,None,None,None,None,None,None,None,None,None,None,,,,,,,,,,,,,,,,,,,,,,,,,,,,,,,AU06EL20,1,0xC010,G:\Experimente\CoScience\Tasks\Logfiles\,2022_Mar_01_1148,Flanker,2020.1.3,59.94834174175183,
SSS SSS,SSSSSSS,30,S,,,,,,,,,0,0,0,0,1,10,22,4,,,,,,,0.8525349935943912,213.86781750356567,None,4,,,,,,,,,,,,,134,130,137,213.3673881056784,213.46747223499187,213.4507931025637,213.65096281974365,4,1,0.3875613467225776,213.4507931025637,None,None,None,False,None,None,None,None,None,None,None,None,None,None,None,None,,,,,,,,,,,,,,,,,,,,,,,,,,,,,,,AU06EL20,1,0xC010,G:\Experimente\CoScience\Tasks\Logfiles\,2022_Mar_01_1148,Flanker,2020.1.3,59.94834174175183,
HHH HHH,HHHHHHH,30,H,,,,,,,,,0,0,0,0,1,11,23,11,,,,,,,0.753197458341128,215.06884893362258,None,2,,,,,,,,,,,,,134,130,137,214.73525840884759,214.83531570079322,214.81863335954768,215.018806285545,2,1,0.21772164748836076,214.81863335954768,None,None,None,False,None,None,None,None,None,None,None,None,None,None,None,None,,,,,,,,,,,,,,,,,,,,,,,,,,,,,,,AU06EL20,1,0xC010,G:\Experimente\CoScience\Tasks\Logfiles\,2022_Mar_01_1148,Flanker,2020.1.3,59.94834174175183,
SHH HHS,SHHHHHS,20,H,,,,,,,,,0,0,0,0,2,0,24,8,,,,,,,0.9819481436015259,216.50341709703753,None,2,,,,,,,,,,,,,124,120,127,215.83617420485643,215.93626329324798,215.91954682187315,216.11975125260506,2,1,0.559767693408503,215.91954682187315,None,None,None,False,None,None,None,None,None,None,None,None,None,None,None,None,,,,,,,,,,,,,,,,,,,,,,,,,,,,,,,AU06EL20,1,0xC010,G:\Experimente\CoScience\Tasks\Logfiles\,2022_Mar_01_1148,Flanker,2020.1.3,59.94834174175183,
SSH HSS,SSHHHSS,10,H,,,,,,,,,0,0,0,0,2,1,25,7,,,,,,,0.7956414517573506,217.93798088479343,None,2,,,,,,,,,,,,,114,110,117,217.48759442669507,217.58768001456156,217.5709985484482,217.77117089102467,2,1,0.3393004665031185,217.5709985484482,None,None,None,False,None,None,None,None,None,None,None,None,None,None,None,None,,,,,,,,,,,,,,,,,,,,,,,,,,,,,,,AU06EL20,1,0xC010,G:\Experimente\CoScience\Tasks\Logfiles\,2022_Mar_01_1148,Flanker,2020.1.3,59.94834174175183,
SSS SSS,SSSSSSS,30,S,,,,,,,,,0,0,0,0,2,2,26,4,,,,,,,0.9164493308280937,219.25577849369984,None,4,,,,,,,,,,,,,134,130,137,218.73866821312185,218.83875409269785,218.82207321000533,219.0222467194235,4,1,0.4142061856637156,218.82207321000533,None,None,None,False,None,None,None,None,None,None,None,None,None,None,None,None,,,,,,,,,,,,,,,,,,,,,,,,,,,,,,,AU06EL20,1,0xC010,G:\Experimente\CoScience\Tasks\Logfiles\,2022_Mar_01_1148,Flanker,2020.1.3,59.94834174175183,
HHH HHH,HHHHHHH,30,H,,,,,,,,,0,0,0,0,2,3,27,10,,,,,,,0.8928680577434841,220.623621084369,None,2,,,,,,,,,,,,,134,130,137,220.1732352096933,220.27332021413895,220.25663962315593,220.45681138231157,2,1,0.3476261764699302,220.25663962315593,None,None,None,False,None,None,None,None,None,None,None,None,None,None,None,None,,,,,,,,,,,,,,,,,,,,,,,,,,,,,,,AU06EL20,1,0xC010,G:\Experimente\CoScience\Tasks\Logfiles\,2022_Mar_01_1148,Flanker,2020.1.3,59.94834174175183,
HHH HHH,HHHHHHH,30,H,,,,,,,,,0,0,0,0,2,4,28,10,,,,,,,0.9070107814341717,222.19165031142984,None,2,,,,,,,,,,,,,134,130,137,221.5243963342491,221.62447900501138,221.60779783060752,221.8079713400257,2,1,0.5664490311701229,221.60779783060752,None,None,None,False,None,None,None,None,None,None,None,None,None,None,None,None,,,,,,,,,,,,,,,,,,,,,,,,,,,,,,,AU06EL20,1,0xC010,G:\Experimente\CoScience\Tasks\Logfiles\,2022_Mar_01_1148,Flanker,2020.1.3,59.94834174175183,
SSS SSS,SSSSSSS,30,S,,,,,,,,,0,0,0,0,2,5,29,5,,,,,,,0.8993687205901808,223.59283599801165,None,4,,,,,,,,,,,,,134,130,137,223.10909039992293,223.20917482094774,223.19249189628135,223.3926902010935,4,1,0.3797621742469346,223.19249189628135,None,None,None,False,None,None,None,None,None,None,None,None,None,None,None,None,,,,,,,,,,,,,,,,,,,,,,,,,,,,,,,AU06EL20,1,0xC010,G:\Experimente\CoScience\Tasks\Logfiles\,2022_Mar_01_1148,Flanker,2020.1.3,59.94834174175183,
HSS SSH,HSSSSSH,20,S,,,,,,,,,0,0,0,0,2,6,30,2,,,,,,,0.9061400477271675,224.92731799013745,None,4,,,,,,,,,,,,,124,120,127,224.49361241473343,224.5937070456257,224.57701653648655,224.77718771221953,4,1,0.321194869628016,224.57701653648655,None,None,None,False,None,None,None,None,None,None,None,None,None,None,None,None,,,,,,,,,,,,,,,,,,,,,,,,,,,,,,,AU06EL20,1,0xC010,G:\Experimente\CoScience\Tasks\Logfiles\,2022_Mar_01_1148,Flanker,2020.1.3,59.94834174175183,
HHH HHH,HHHHHHH,30,H,,,,,,,,,0,0,0,0,2,7,31,10,,,,,,,0.9574451633817973,226.27847794785157,None,2,,,,,,,,,,,,,134,130,137,225.84478316573586,225.9448573768932,225.9281770776215,226.12834942019617,2,1,0.3240057922048436,225.9281770776215,None,None,None,False,None,None,None,None,None,None,None,None,None,None,None,None,,,,,,,,,,,,,,,,,,,,,,,,,,,,,,,AU06EL20,1,0xC010,G:\Experimente\CoScience\Tasks\Logfiles\,2022_Mar_01_1148,Flanker,2020.1.3,59.94834174175183,
HHH HHH,HHHHHHH,30,H,,,,,,,,,0,0,0,0,2,8,32,10,,,,,,,0.9490643401032711,227.57959554919762,None,2,,,,,,,,,,,,,134,130,137,227.24597468652792,227.3460628997891,227.3293875595973,227.5295523176992,2,1,0.22877718450399698,227.3293875595973,None,None,None,False,None,None,None,None,None,None,None,None,None,None,None,None,,,,,,,,,,,,,,,,,,,,,,,,,,,,,,,AU06EL20,1,0xC010,G:\Experimente\CoScience\Tasks\Logfiles\,2022_Mar_01_1148,Flanker,2020.1.3,59.94834174175183,
SSS SSS,SSSHSSS,0,H,,,,,,,,,0,0,0,0,2,9,33,6,,,,,,,0.8260353377802645,229.0308422616199,None,2,,,,,,,,,,,,,104,100,107,228.53041198860228,228.63049845160094,228.61381727719709,228.81398845293006,2,1,0.400335350414025,228.61381727719709,None,None,None,False,None,None,None,None,None,None,None,None,None,None,None,None,,,,,,,,,,,,,,,,,,,,,,,,,,,,,,,AU06EL20,1,0xC010,G:\Experimente\CoScience\Tasks\Logfiles\,2022_Mar_01_1148,Flanker,2020.1.3,59.94834174175183,
HSS SSH,HSSSSSH,20,S,,,,,,,,,0,0,0,0,2,10,34,2,,,,,,,0.9207126349038012,230.38199230117607,None,4,,,,,,,,,,,,,124,120,127,229.8648928138864,229.96497227583313,229.94829751906036,230.1484681113725,4,1,0.40783260250100284,229.94829751906036,None,None,None,False,None,None,None,None,None,None,None,None,None,None,None,None,,,,,,,,,,,,,,,,,,,,,,,,,,,,,,,AU06EL20,1,0xC010,G:\Experimente\CoScience\Tasks\Logfiles\,2022_Mar_01_1148,Flanker,2020.1.3,59.94834174175183,
SHH HHS,SHHHHHS,20,H,,,,,,,,,0,0,0,0,2,11,35,8,,,,,,,0.8290954868232375,231.7665254009862,None,2,,,,,,,,,,,,,124,120,127,231.31613981802002,231.41622336391265,231.3995436480618,231.59971482379478,2,1,0.3375898760114069,231.3995436480618,None,None,None,False,None,None,None,None,None,None,None,None,None,None,None,None,,,,,,,,,,,,,,,,,,,,,,,,,,,,,,,AU06EL20,1,0xC010,G:\Experimente\CoScience\Tasks\Logfiles\,2022_Mar_01_1148,Flanker,2020.1.3,59.94834174175183,
HHS SHH,HHSSSHH,10,S,,,,,,,,,0,0,0,0,3,0,36,1,,,,,,,0.7633901010381484,233.0676435857531,None,4,,,,,,,,,,,,,114,110,117,232.60057595325088,232.70066037427569,232.683980075004,232.8841489170536,4,1,0.35712018706726667,232.683980075004,None,None,None,False,None,None,None,None,None,None,None,None,None,None,None,None,,,,,,,,,,,,,,,,,,,,,,,,,,,,,,,AU06EL20,1,0xC010,G:\Experimente\CoScience\Tasks\Logfiles\,2022_Mar_01_1148,Flanker,2020.1.3,59.94834174175183,
HSS SSH,HSSSSSH,20,S,,,,,,,,,0,0,0,0,3,1,37,2,,,,,,,0.9076954146269602,234.2353123752946,None,4,,,,,,,,,,,,,124,120,127,233.83496973211732,233.9350538614308,233.9183735621591,234.11854561302425,4,1,0.29672006525106553,233.9183735621591,None,None,None,False,None,None,None,None,None,None,None,None,None,None,None,None,,,,,,,,,,,,,,,,,,,,,,,,,,,,,,,AU06EL20,1,0xC010,G:\Experimente\CoScience\Tasks\Logfiles\,2022_Mar_01_1148,Flanker,2020.1.3,59.94834174175183,
SSH HSS,SSHHHSS,10,H,,,,,,,,,0,0,0,0,3,2,38,7,,,,,,,0.9907816654513053,235.60315438254293,None,2,,,,,,,,,,,,,114,110,117,235.15276734102372,235.2528526371807,235.23617321303936,235.4363426385098,2,1,0.3469082768788212,235.23617321303936,None,None,None,False,None,None,None,None,None,None,None,None,None,None,None,None,,,,,,,,,,,,,,,,,,,,,,,,,,,,,,,AU06EL20,1,0xC010,G:\Experimente\CoScience\Tasks\Logfiles\,2022_Mar_01_1148,Flanker,2020.1.3,59.94834174175183,
SHH HHS,SHHHHHS,20,H,,,,,,,,,0,0,0,0,3,3,39,8,,,,,,,0.9368932473326828,237.00436690649258,None,2,,,,,,,,,,,,,124,120,127,236.60401463686685,236.7040996413125,236.68741759177828,236.8875905177738,2,1,0.2906379008982185,236.68741759177828,None,None,None,False,None,None,None,None,None,None,None,None,None,None,None,None,,,,,,,,,,,,,,,,,,,,,,,,,,,,,,,AU06EL20,1,0xC010,G:\Experimente\CoScience\Tasks\Logfiles\,2022_Mar_01_1148,Flanker,2020.1.3,59.94834174175183,
HHH HHH,HHHHHHH,30,H,,,,,,,,,0,0,0,0,3,4,40,9,,,,,,,0.7962750177839913,238.3388372301979,None,2,,,,,,,,,,,,,134,130,137,237.9551751780018,238.05526105757963,238.03857929975493,238.2387516423296,2,1,0.2714526833860873,238.03857929975493,None,None,None,False,None,None,None,None,None,None,None,None,None,None,None,None,,,,,,,,,,,,,,,,,,,,,,,,,,,,,,,AU06EL20,1,0xC010,G:\Experimente\CoScience\Tasks\Logfiles\,2022_Mar_01_1148,Flanker,2020.1.3,59.94834174175183,
HHH HHH,HHHHHHH,30,H,,,,,,,,,0,0,0,0,3,5,41,9,,,,,,,0.9233641733194649,239.6232724902984,None,2,,,,,,,,,,,,,134,130,137,239.13952397510366,239.23961072981365,239.22293043054196,239.42310306482796,2,1,0.3791142851805489,239.22293043054196,None,None,None,False,None,None,None,None,None,None,None,None,None,None,None,None,,,,,,,,,,,,,,,,,,,,,,,,,,,,,,,AU06EL20,1,0xC010,G:\Experimente\CoScience\Tasks\Logfiles\,2022_Mar_01_1148,Flanker,2020.1.3,59.94834174175183,
HHH HHH,HHHHHHH,30,H,,,,,,,,,0,0,0,0,3,6,42,11,,,,,,,0.7712248619709313,240.9577518570295,None,2,,,,,,,,,,,,,134,130,137,240.55740921385222,240.6575038447445,240.6408142107357,240.84098596989134,2,1,0.30121357410644123,240.6408142107357,None,None,None,False,None,None,None,None,None,None,None,None,None,None,None,None,,,,,,,,,,,,,,,,,,,,,,,,,,,,,,,AU06EL20,1,0xC010,G:\Experimente\CoScience\Tasks\Logfiles\,2022_Mar_01_1148,Flanker,2020.1.3,59.94834174175183,
SHH HHS,SHHHHHS,20,H,,,,,,,,,0,0,0,0,3,7,43,8,,,,,,,0.8923646786076528,242.12542210512402,None,2,,,,,,,,,,,,,124,120,127,241.7417609280601,241.84184564079442,241.82516388296972,242.0253365172557,2,1,0.2818232841018471,241.82516388296972,None,None,None,False,None,None,None,None,None,None,None,None,None,None,None,None,,,,,,,,,,,,,,,,,,,,,,,,,,,,,,,AU06EL20,1,0xC010,G:\Experimente\CoScience\Tasks\Logfiles\,2022_Mar_01_1148,Flanker,2020.1.3,59.94834174175183,
HHS SHH,HHSSSHH,10,S,,,,,,,,,0,0,0,0,3,8,44,1,,,,,,,0.8060874337508801,243.45990088843428,None,4,,,,,,,,,,,,,114,110,117,243.02620348092387,243.12628352628963,243.10960030991373,243.3097726524884,4,1,0.326375940183425,243.10960030991373,None,None,None,False,None,None,None,None,None,None,None,None,None,None,None,None,,,,,,,,,,,,,,,,,,,,,,,,,,,,,,,AU06EL20,1,0xC010,G:\Experimente\CoScience\Tasks\Logfiles\,2022_Mar_01_1148,Flanker,2020.1.3,59.94834174175183,
SSH HSS,SSHHHSS,10,H,,,,,,,,,0,0,0,0,3,9,45,7,,,,,,,0.7849144217959881,244.56084848088904,None,2,,,,,,,,,,,,,114,110,119,244.2772714331386,244.37735643758424,244.3606755548917,None,4,0,0.1822756104338623,244.3606755548917,None,None,None,False,None,None,None,None,None,None,None,None,None,None,None,None,,,,,,,,,,,,,,,,,,,,,,,,,,,,,,,AU06EL20,1,0xC010,G:\Experimente\CoScience\Tasks\Logfiles\,2022_Mar_01_1148,Flanker,2020.1.3,59.94834174175183,
HHH HHH,HHHHHHH,30,H,,,,,,,,,0,0,0,0,3,10,46,10,,,,,,,0.7983061462550132,245.811920808761,None,2,,,,,,,,,,,,,134,130,137,245.3448546348136,245.44493934754792,245.42825933998756,245.62843168256222,2,1,0.3616758302650851,245.42825933998756,None,None,None,False,None,None,None,None,None,None,None,None,None,None,None,None,,,,,,,,,,,,,,,,,,,,,,,,,,,,,,,AU06EL20,1,0xC010,G:\Experimente\CoScience\Tasks\Logfiles\,2022_Mar_01_1148,Flanker,2020.1.3,59.94834174175183,
HHS SHH,HHSSSHH,10,S,,,,,,,,,0,0,0,0,3,11,47,1,,,,,,,0.7790077827266563,246.9962716478385,None,4,,,,,,,,,,,,,114,110,117,246.61261105419544,246.7126960586411,246.6960160510789,246.89618635168154,4,1,0.2749077027929161,246.6960160510789,None,None,None,False,None,None,None,None,None,None,None,None,None,None,None,None,,,,,,,,,,,,,,,,,,,,,,,,,,,,,,,AU06EL20,1,0xC010,G:\Experimente\CoScience\Tasks\Logfiles\,2022_Mar_01_1148,Flanker,2020.1.3,59.94834174175183,
SSS SSS,SSSSSSS,30,S,,,,,,,,,0,0,0,0,4,0,48,5,,,,,,,0.9752299091176965,248.14726130495,None,4,,,,,,,,,,,,,134,130,137,247.78028159399946,247.8803665984451,247.86368571575258,248.06385630806471,4,1,0.25522191002710315,247.86368571575258,None,None,None,False,None,None,None,None,None,None,None,None,None,None,None,None,,,,,,,,,,,,,,,,,,,,,,,,,,,,,,,AU06EL20,1,0xC010,G:\Experimente\CoScience\Tasks\Logfiles\,2022_Mar_01_1148,Flanker,2020.1.3,59.94834174175183,
HHH HHH,HHHHHHH,30,H,,,,,,,,,0,0,0,0,4,1,49,9,,,,,,,0.7637291779832507,249.58182596783809,None,2,,,,,,,,,,,,,134,130,137,249.1314403848719,249.23152655615922,249.21484654859705,249.41503843577811,2,1,0.3440439712776424,249.21484654859705,None,None,None,False,None,None,None,None,None,None,None,None,None,None,None,None,,,,,,,,,,,,,,,,,,,,,,,,,,,,,,,AU06EL20,1,0xC010,G:\Experimente\CoScience\Tasks\Logfiles\,2022_Mar_01_1148,Flanker,2020.1.3,59.94834174175183,
HHH HHH,HHHHHHH,30,H,,,,,,,,,0,0,0,0,4,2,50,10,,,,,,,0.9342573363789873,250.7328159166591,None,2,,,,,,,,,,,,,134,130,137,250.34915415617434,250.4492394523313,250.4325585696388,250.63273091221345,2,1,0.27033426525122195,250.4325585696388,None,None,None,False,None,None,None,None,None,None,None,None,None,None,None,None,,,,,,,,,,,,,,,,,,,,,,,,,,,,,,,AU06EL20,1,0xC010,G:\Experimente\CoScience\Tasks\Logfiles\,2022_Mar_01_1148,Flanker,2020.1.3,59.94834174175183,
SSS SSS,SSSSSSS,30,S,,,,,,,,,0,0,0,0,4,3,51,5,,,,,,,0.8449516481991131,252.05061440069767,None,4,,,,,,,,,,,,,134,130,137,251.66695147337123,251.76703881150206,251.75035471999217,251.9505276459895,4,1,0.283490993146188,251.75035471999217,None,None,None,False,None,None,None,None,None,None,None,None,None,None,None,None,,,,,,,,,,,,,,,,,,,,,,,,,,,,,,,AU06EL20,1,0xC010,G:\Experimente\CoScience\Tasks\Logfiles\,2022_Mar_01_1148,Flanker,2020.1.3,59.94834174175183,
HHH HHH,HHHHHHH,30,H,,,,,,,,,0,0,0,0,4,4,52,10,,,,,,,0.755401104014603,253.2850084712736,None,2,,,,,,,,,,,,,134,130,139,252.90134554394717,253.00143113181366,252.98475024912113,253.18492171656544,4,0,0.27710515814214887,252.98475024912113,None,None,None,False,None,None,None,None,None,None,None,None,None,None,None,None,,,,,,,,,,,,,,,,,,,,,,,,,,,,,,,AU06EL20,1,0xC010,G:\Experimente\CoScience\Tasks\Logfiles\,2022_Mar_01_1148,Flanker,2020.1.3,59.94834174175183,
HSS SSH,HSSSSSH,20,S,,,,,,,,,0,0,0,0,4,5,53,2,,,,,,,0.9169493903187826,254.4026340293167,None,4,,,,,,,,,,,,,124,120,127,254.0523343259265,254.15241933037214,254.13574019794396,254.33591020683525,4,1,0.2460753266568645,254.13574019794396,None,None,None,False,None,None,None,None,None,None,None,None,None,None,None,None,,,,,,,,,,,,,,,,,,,,,,,,,,,,,,,AU06EL20,1,0xC010,G:\Experimente\CoScience\Tasks\Logfiles\,2022_Mar_01_1148,Flanker,2020.1.3,59.94834174175183,
HHH HHH,HHHHHHH,30,H,,,,,,,,,0,0,0,0,4,6,54,10,,,,,,,0.811799133174153,255.68707103967972,None,2,,,,,,,,,,,,,134,130,137,255.32008928675532,255.42017574975398,255.40349370021977,255.60366633450576,2,1,0.25433656859786424,255.40349370021977,None,None,None,False,None,None,None,None,None,None,None,None,None,None,None,None,,,,,,,,,,,,,,,,,,,,,,,,,,,,,,,AU06EL20,1,0xC010,G:\Experimente\CoScience\Tasks\Logfiles\,2022_Mar_01_1148,Flanker,2020.1.3,59.94834174175183,
HHH HHH,HHHHHHH,30,H,,,,,,,,,0,0,0,0,4,7,55,9,,,,,,,0.9205103898349332,256.87143033836037,None,2,,,,,,,,,,,,,134,130,137,256.504452961095,256.604525421988,256.58784424758596,256.7880151316076,2,1,0.26294173724090797,256.58784424758596,None,None,None,False,None,None,None,None,None,None,None,None,None,None,None,None,,,,,,,,,,,,,,,,,,,,,,,,,,,,,,,AU06EL20,1,0xC010,G:\Experimente\CoScience\Tasks\Logfiles\,2022_Mar_01_1148,Flanker,2020.1.3,59.94834174175183,
SSS SSS,SSSHSSS,0,H,,,,,,,,,0,0,0,0,4,8,56,6,,,,,,,0.9045979979382268,258.3560294814324,None,2,,,,,,,,,,,,,104,100,107,257.80556793704636,257.90564273162454,257.8889606820885,258.08913389979716,2,1,0.44281219443473674,257.8889606820885,None,None,None,False,None,None,None,None,None,None,None,None,None,None,None,None,,,,,,,,,,,,,,,,,,,,,,,,,,,,,,,AU06EL20,1,0xC010,G:\Experimente\CoScience\Tasks\Logfiles\,2022_Mar_01_1148,Flanker,2020.1.3,59.94834174175183,
SSS SSS,SSSSSSS,30,S,,,,,,,,,0,0,0,0,4,9,57,3,,,,,,,0.9574211251178872,259.70718973085604,None,4,,,,,,,,,,,,,134,130,137,259.2735063254513,259.37358199515984,259.356888860626,259.55706091149113,4,1,0.31789008114174067,259.356888860626,None,None,None,False,None,None,None,None,None,None,None,None,None,None,None,None,,,,,,,,,,,,,,,,,,,,,,,,,,,,,,,AU06EL20,1,0xC010,G:\Experimente\CoScience\Tasks\Logfiles\,2022_Mar_01_1148,Flanker,2020.1.3,59.94834174175183,
SSS SSS,SSSHSSS,0,H,,,,,,,,,0,0,0,0,4,10,58,6,,,,,,,0.9610894360537282,260.99165007806187,None,2,,,,,,,,,,,,,104,100,109,260.67468851150625,260.7747746827936,260.7581101358901,260.95826526754536,4,0,0.21062578907731222,260.7581101358901,None,None,None,False,None,None,None,None,None,None,None,None,None,None,None,None,,,,,,,,,,,,,,,,,,,,,,,,,,,,,,,AU06EL20,1,0xC010,G:\Experimente\CoScience\Tasks\Logfiles\,2022_Mar_01_1148,Flanker,2020.1.3,59.94834174175183,
HHS SHH,HHSSSHH,10,S,,,,,,,,,0,0,0,0,4,11,59,1,,,,,,,0.9107840103061818,262.3094252252595,None,4,,,,,,,,,,,,,114,110,117,261.9591246467389,262.05921081802626,262.0425296436224,262.24270811212045,4,1,0.23519452424443443,262.0425296436224,None,None,None,False,None,None,None,None,None,None,None,None,None,None,None,None,,,,,,,,,,,,,,,,,,,,,,,,,,,,,,,AU06EL20,1,0xC010,G:\Experimente\CoScience\Tasks\Logfiles\,2022_Mar_01_1148,Flanker,2020.1.3,59.94834174175183,
HHH HHH,HHHHHHH,30,H,,,,,,,,,0,0,0,0,5,0,60,11,,,,,,,0.9811729748838935,263.62722400100756,None,2,,,,,,,,,,,,,134,130,137,263.2268798992791,263.3269663622759,263.31028606300424,263.51045898900156,2,1,0.2944350967427454,263.31028606300424,None,None,None,False,None,None,None,None,None,None,None,None,None,None,None,None,,,,,,,,,,,,,,,,,,,,,,,,,,,,,,,AU06EL20,1,0xC010,G:\Experimente\CoScience\Tasks\Logfiles\,2022_Mar_01_1148,Flanker,2020.1.3,59.94834174175183,
SSH HSS,SSHHHSS,10,H,,,,,,,,,0,0,0,0,5,1,61,7,,,,,,,0.9075577307112845,264.99506513312554,None,2,,,,,,,,,,,,,114,110,117,264.6114036643503,264.71148896050727,264.694815370578,264.8949792535477,2,1,0.28086793214606587,264.694815370578,None,None,None,False,None,None,None,None,None,None,None,None,None,None,None,None,,,,,,,,,,,,,,,,,,,,,,,,,,,,,,,AU06EL20,1,0xC010,G:\Experimente\CoScience\Tasks\Logfiles\,2022_Mar_01_1148,Flanker,2020.1.3,59.94834174175183,
SHH HHS,SHHHHHS,20,H,,,,,,,,,0,0,0,0,5,2,62,8,,,,,,,0.9843605519513111,266.26283088724267,None,2,,,,,,,,,,,,,124,120,127,265.912520390566,266.01260568672114,265.9959268460025,266.1960956880521,2,1,0.248741560813869,265.9959268460025,None,None,None,False,None,None,None,None,None,None,None,None,None,None,None,None,,,,,,,,,,,,,,,,,,,,,,,,,,,,,,,AU06EL20,1,0xC010,G:\Experimente\CoScience\Tasks\Logfiles\,2022_Mar_01_1148,Flanker,2020.1.3,59.94834174175183,
SSS SSS,SSSHSSS,0,H,,,,,,,,,0,0,0,0,5,3,63,6,,,,,,,0.968409555127643,267.6306635597557,None,2,,,,,,,,,,,,,104,100,107,267.24699917387625,267.3470856368749,267.3304053376032,267.5305750547832,2,1,0.2812553237163229,267.3304053376032,None,None,None,False,None,None,None,None,None,None,None,None,None,None,None,None,,,,,,,,,,,,,,,,,,,,,,,,,,,,,,,AU06EL20,1,0xC010,G:\Experimente\CoScience\Tasks\Logfiles\,2022_Mar_01_1148,Flanker,2020.1.3,59.94834174175183,
HSS SSH,HSSSSSH,20,S,,,,,,,,,0,0,0,0,5,4,64,2,,,,,,,0.7602807206507436,268.9651417596451,None,4,,,,,,,,,,,,,124,120,127,268.59816059014156,268.6982467614307,268.681566462159,268.88173822131284,4,1,0.2530693780954607,268.681566462159,None,None,None,False,None,None,None,None,None,None,None,None,None,None,None,None,,,,,,,,,,,,,,,,,,,,,,,,,,,,,,,AU06EL20,1,0xC010,G:\Experimente\CoScience\Tasks\Logfiles\,2022_Mar_01_1148,Flanker,2020.1.3,59.94834174175183,
SSS SSS,SSSSSSS,30,S,,,,,,,,,0,0,0,0,5,5,65,3,,,,,,,0.8638941066980348,270.04940701085434,None,4,,,,,,,,,,,,,134,130,137,269.73246703087716,269.83256195348076,269.8159079081561,270.0160493294152,4,1,0.20175895609645522,269.8159079081561,None,None,None,False,None,None,None,None,None,None,None,None,None,None,None,None,,,,,,,,,,,,,,,,,,,,,,,,,,,,,,,AU06EL20,1,0xC010,G:\Experimente\CoScience\Tasks\Logfiles\,2022_Mar_01_1148,Flanker,2020.1.3,59.94834174175183,
SSS SSS,SSSSSSS,30,S,,,,,,,,,0,0,0,0,5,6,66,3,,,,,,,0.8760899428605432,271.25043873262257,None,4,,,,,,,,,,,,,134,130,137,270.91681903679455,271.0169037495307,271.000223450259,271.2003937508598,4,1,0.229380441860485,271.000223450259,None,None,None,False,None,None,None,None,None,None,None,None,None,None,None,None,,,,,,,,,,,,,,,,,,,,,,,,,,,,,,,AU06EL20,1,0xC010,G:\Experimente\CoScience\Tasks\Logfiles\,2022_Mar_01_1148,Flanker,2020.1.3,59.94834174175183,
HSS SSH,HSSSSSH,20,S,,,,,,,,,0,0,0,0,5,7,67,2,,,,,,,0.8643815791443665,272.48483192806634,None,4,,,,,,,,,,,,,124,120,127,272.1345325163893,272.23461606228193,272.21793459616856,272.4181078138754,4,1,0.2416556205607776,272.21793459616856,None,None,None,False,None,None,None,None,None,None,None,None,None,None,None,None,,,,,,,,,,,,,,,,,,,,,,,,,,,,,,,AU06EL20,1,0xC010,G:\Experimente\CoScience\Tasks\Logfiles\,2022_Mar_01_1148,Flanker,2020.1.3,59.94834174175183,
SHH HHS,SHHHHHS,20,H,,,,,,,,,0,0,0,0,5,8,68,8,,,,,,,0.7951952654876457,273.6858627747042,None,2,,,,,,,,,,,,,124,120,127,273.3522375363773,273.45232925016353,273.4356480757615,273.63581925149447,2,1,0.21795530761301052,273.4356480757615,None,None,None,False,None,None,None,None,None,None,None,None,None,None,None,None,,,,,,,,,,,,,,,,,,,,,,,,,,,,,,,AU06EL20,1,0xC010,G:\Experimente\CoScience\Tasks\Logfiles\,2022_Mar_01_1148,Flanker,2020.1.3,59.94834174175183,
SSS SSS,SSSHSSS,0,H,,,,,,,,,0,0,0,0,5,9,69,6,,,,,,,0.8693099773797976,274.6867221538978,None,2,,,,,,,,,,,,,104,100,107,274.4865512698743,274.58663627431997,274.5699550999161,None,2,1,0.09360669720808801,274.5699550999161,None,None,None,False,None,None,None,None,None,None,None,None,None,None,None,None,,,,,,,,,,,,,,,,,,,,,,,,,,,,,,,AU06EL20,1,0xC010,G:\Experimente\CoScience\Tasks\Logfiles\,2022_Mar_01_1148,Flanker,2020.1.3,59.94834174175183,
SHH HHS,SHHHHHS,20,H,,,,,,,,,0,0,0,0,5,10,70,8,,,,,,,0.8628733866459691,275.9044341749377,None,2,,,,,,,,,,,,,124,120,127,275.57081535424186,275.6709015255292,275.6542197677045,275.85442594870074,2,1,0.22132806465197064,275.6542197677045,None,None,None,False,None,None,None,None,None,None,None,None,None,None,None,None,,,,,,,,,,,,,,,,,,,,,,,,,,,,,,,AU06EL20,1,0xC010,G:\Experimente\CoScience\Tasks\Logfiles\,2022_Mar_01_1148,Flanker,2020.1.3,59.94834174175183,
SSH HSS,SSHHHSS,10,H,,,,,,,,,0,0,0,0,5,11,71,7,,,,,,,0.8597916393124962,277.0220614832433,None,2,,,,,,,,,,,,,114,110,117,276.77183832469564,276.8719384980868,276.85525061434237,None,2,1,0.13828362197091337,276.85525061434237,None,None,None,False,None,None,None,None,None,None,None,None,None,None,None,None,,,,,,,,,,,,,,,,,,,,,,,,,,,,,,,AU06EL20,1,0xC010,G:\Experimente\CoScience\Tasks\Logfiles\,2022_Mar_01_1148,Flanker,2020.1.3,59.94834174175183,
HHH HHH,HHHSHHH,0,S,,,,,,,,,0,0,0,0,6,0,72,0,,,,,,,0.7653973854198521,278.33986084241405,None,4,,,,,,,,,,,,,104,100,107,277.88947380089485,277.9895588053405,277.9728767558063,278.1730496818018,4,1,0.3346625609374314,277.9728767558063,None,None,None,False,None,None,None,None,None,None,None,None,None,None,None,None,,,,,,,,,,,,,,,,,,,,,,,,,,,,,,,AU06EL20,1,0xC010,G:\Experimente\CoScience\Tasks\Logfiles\,2022_Mar_01_1148,Flanker,2020.1.3,59.94834174175183,
SHH HHS,SHHHHHS,20,H,,,,,,,,,0,0,0,0,6,1,73,8,,,,,,,0.9115865034999275,279.5742537461465,None,2,,,,,,,,,,,,,124,120,127,279.10718582193476,279.20727140980125,279.19058819342536,279.3907625779739,2,1,0.35393266621031216,279.19058819342536,None,None,None,False,None,None,None,None,None,None,None,None,None,None,None,None,,,,,,,,,,,,,,,,,,,,,,,,,,,,,,,AU06EL20,1,0xC010,G:\Experimente\CoScience\Tasks\Logfiles\,2022_Mar_01_1148,Flanker,2020.1.3,59.94834174175183,
HSS SSH,HSSSSSH,20,S,,,,,,,,,0,0,0,0,6,2,74,2,,,,,,,0.7895035989426418,280.84200929039616,None,4,,,,,,,,,,,,,124,120,127,280.4917095870078,280.59179342461175,280.57511166678705,280.7752837176522,4,1,0.24837721437506843,280.57511166678705,None,None,None,False,None,None,None,None,None,None,None,None,None,None,None,None,,,,,,,,,,,,,,,,,,,,,,,,,,,,,,,AU06EL20,1,0xC010,G:\Experimente\CoScience\Tasks\Logfiles\,2022_Mar_01_1148,Flanker,2020.1.3,59.94834174175183,
SSS SSS,SSSSSSS,30,S,,,,,,,,,0,0,0,0,6,3,75,5,,,,,,,0.801167803251355,282.009676913096,None,4,,,,,,,,,,,,,134,130,137,281.64269749385676,281.74278308172325,281.7261019073194,281.9262733747637,4,1,0.26037205926695606,281.7261019073194,None,None,None,False,None,None,None,None,None,None,None,None,None,None,None,None,,,,,,,,,,,,,,,,,,,,,,,,,,,,,,,AU06EL20,1,0xC010,G:\Experimente\CoScience\Tasks\Logfiles\,2022_Mar_01_1148,Flanker,2020.1.3,59.94834174175183,
HHH HHH,HHHHHHH,30,H,,,,,,,,,0,0,0,0,6,4,76,10,,,,,,,0.8015127814222323,283.1773477446113,None,2,,,,,,,,,,,,,134,130,137,282.8103680336608,282.91045070442306,282.89377157199306,283.09394012233133,2,1,0.25569273080691346,282.89377157199306,None,None,None,False,None,None,None,None,None,None,None,None,None,None,None,None,,,,,,,,,,,,,,,,,,,,,,,,,,,,,,,AU06EL20,1,0xC010,G:\Experimente\CoScience\Tasks\Logfiles\,2022_Mar_01_1148,Flanker,2020.1.3,59.94834174175183,
SSS SSS,SSSSSSS,30,S,,,,,,,,,0,0,0,0,6,5,77,5,,,,,,,0.9967523287145554,284.36169858368703,None,4,,,,,,,,,,,,,134,130,137,283.97803536464926,284.0781200773854,284.0614406532459,284.2616115372675,4,1,0.275977988691011,284.0614406532459,None,None,None,False,None,None,None,None,None,None,None,None,None,None,None,None,,,,,,,,,,,,,,,,,,,,,,,,,,,,,,,AU06EL20,1,0xC010,G:\Experimente\CoScience\Tasks\Logfiles\,2022_Mar_01_1148,Flanker,2020.1.3,59.94834174175183,
HHH HHH,HHHHHHH,30,H,,,,,,,,,0,0,0,0,6,6,78,9,,,,,,,0.9704968795897414,285.6294541279367,None,2,,,,,,,,,,,,,134,130,137,285.36255825459193,285.4626432590376,285.44596354318674,None,2,1,0.15448784967338725,285.44596354318674,None,None,None,False,None,None,None,None,None,None,None,None,None,None,None,None,,,,,,,,,,,,,,,,,,,,,,,,,,,,,,,AU06EL20,1,0xC010,G:\Experimente\CoScience\Tasks\Logfiles\,2022_Mar_01_1148,Flanker,2020.1.3,59.94834174175183,
HHH HHH,HHHHHHH,30,H,,,,,,,,,0,0,0,0,6,7,79,10,,,,,,,0.9440658468682719,287.0306567337284,None,2,,,,,,,,,,,,,134,130,137,286.6136332078586,286.7137179205947,286.69703762132303,286.8972096721882,2,1,0.3153597840864677,286.69703762132303,None,None,None,False,None,None,None,None,None,None,None,None,None,None,None,None,,,,,,,,,,,,,,,,,,,,,,,,,,,,,,,AU06EL20,1,0xC010,G:\Experimente\CoScience\Tasks\Logfiles\,2022_Mar_01_1148,Flanker,2020.1.3,59.94834174175183,
SHH HHS,SHHHHHS,20,H,,,,,,,,,0,0,0,0,6,8,80,8,,,,,,,0.7985809838676472,288.2817322704177,None,2,,,,,,,,,,,,,124,120,127,287.98147463168607,288.08155992784305,288.0648784617297,288.265050512593,2,1,0.18649549482142902,288.0648784617297,None,None,None,False,None,None,None,None,None,None,None,None,None,None,None,None,,,,,,,,,,,,,,,,,,,,,,,,,,,,,,,AU06EL20,1,0xC010,G:\Experimente\CoScience\Tasks\Logfiles\,2022_Mar_01_1148,Flanker,2020.1.3,59.94834174175183,
SSS SSS,SSSSSSS,30,S,,,,,,,,,0,0,0,0,6,9,81,5,,,,,,,0.9206771481024154,289.4827622419234,None,4,,,,,,,,,,,,,134,130,137,289.0824204738783,289.18250547832395,289.1658240122106,289.36600423096934,4,1,0.30057997885705845,289.1658240122106,None,None,None,False,None,None,None,None,None,None,None,None,None,None,None,None,,,,,,,,,,,,,,,,,,,,,,,,,,,,,,,AU06EL20,1,0xC010,G:\Experimente\CoScience\Tasks\Logfiles\,2022_Mar_01_1148,Flanker,2020.1.3,59.94834174175183,
SSH HSS,SSHHHSS,10,H,,,,,,,,,0,0,0,0,6,10,82,7,,,,,,,0.9498367963321164,290.78387984326946,None,2,,,,,,,,,,,,,114,110,117,290.41689925718856,290.5169845533437,290.5003039623625,290.7004765966485,2,1,0.25904535981862864,290.5003039623625,None,None,None,False,None,None,None,None,None,None,None,None,None,None,None,None,,,,,,,,,,,,,,,,,,,,,,,,,,,,,,,AU06EL20,1,0xC010,G:\Experimente\CoScience\Tasks\Logfiles\,2022_Mar_01_1148,Flanker,2020.1.3,59.94834174175183,
SHH HHS,SHHHHHS,20,H,,,,,,,,,0,0,0,0,6,11,83,8,,,,,,,0.9263605905196612,292.1183597934232,None,2,,,,,,,,,,,,,124,120,127,291.7347041588582,291.83478245396145,291.81810186298026,292.0182736221341,2,1,0.2732394103259139,291.81810186298026,None,None,None,False,None,None,None,None,None,None,None,None,None,None,None,None,,,,,,,,,,,,,,,,,,,,,,,,,,,,,,,AU06EL20,1,0xC010,G:\Experimente\CoScience\Tasks\Logfiles\,2022_Mar_01_1148,Flanker,2020.1.3,59.94834174175183,
HHS SHH,HHSSSHH,10,S,,,,,,,,,0,0,0,0,7,0,84,1,,,,,,,0.8538243376500897,293.31939005663844,None,4,,,,,,,,,,,,,114,110,119,293.0524971003979,293.1525815214227,293.1359009304397,None,2,0,0.15442804901613272,293.1359009304397,None,None,None,False,None,None,None,None,None,None,None,None,None,None,None,None,,,,,,,,,,,,,,,,,,,,,,,,,,,,,,,AU06EL20,1,0xC010,G:\Experimente\CoScience\Tasks\Logfiles\,2022_Mar_01_1148,Flanker,2020.1.3,59.94834174175183,
HHH HHH,HHHHHHH,30,H,,,,,,,,,0,0,0,0,7,1,85,9,,,,,,,0.84113672362358,294.6538702985017,None,2,,,,,,,,,,,,,134,130,137,294.1868213354737,294.286889129,294.2702076628848,294.4703794220404,2,1,0.35710881035811326,294.2702076628848,None,None,None,False,None,None,None,None,None,None,None,None,None,None,None,None,,,,,,,,,,,,,,,,,,,,,,,,,,,,,,,AU06EL20,1,0xC010,G:\Experimente\CoScience\Tasks\Logfiles\,2022_Mar_01_1148,Flanker,2020.1.3,59.94834174175183,
HSS SSH,HSSSSSH,20,S,,,,,,,,,0,0,0,0,7,2,86,2,,,,,,,0.777522684416333,295.87158261125296,None,4,,,,,,,,,,,,,124,120,127,295.5046011500399,295.6046867379064,295.5880049800817,295.788177906079,4,1,0.2632877059186285,295.5880049800817,None,None,None,False,None,None,None,None,None,None,None,None,None,None,None,None,,,,,,,,,,,,,,,,,,,,,,,,,,,,,,,AU06EL20,1,0xC010,G:\Experimente\CoScience\Tasks\Logfiles\,2022_Mar_01_1148,Flanker,2020.1.3,59.94834174175183,
SSH HSS,SSHHHSS,10,H,,,,,,,,,0,0,0,0,7,3,87,7,,,,,,,0.7974217096649046,297.08929579913456,None,2,,,,,,,,,,,,,114,110,117,296.6555910988627,296.75567727015004,296.73899697087836,296.9391666880583,2,1,0.3302801937879849,296.73899697087836,None,None,None,False,None,None,None,None,None,None,None,None,None,None,None,None,,,,,,,,,,,,,,,,,,,,,,,,,,,,,,,AU06EL20,1,0xC010,G:\Experimente\CoScience\Tasks\Logfiles\,2022_Mar_01_1148,Flanker,2020.1.3,59.94834174175183,
SSS SSS,SSSSSSS,30,S,,,,,,,,,0,0,0,0,7,4,88,3,,,,,,,0.7893664879800517,298.2069219405985,None,4,,,,,,,,,,,,,134,130,137,297.8899842943065,297.99006959046164,297.9733860823744,298.17355113218764,4,1,0.20987725988015882,297.9733860823744,None,None,None,False,None,None,None,None,None,None,None,None,None,None,None,None,,,,,,,,,,,,,,,,,,,,,,,,,,,,,,,AU06EL20,1,0xC010,G:\Experimente\CoScience\Tasks\Logfiles\,2022_Mar_01_1148,Flanker,2020.1.3,59.94834174175183,
HHS SHH,HHSSSHH,10,S,,,,,,,,,0,0,0,0,7,5,89,1,,,,,,,0.7663780281549444,299.37460356540214,None,4,,,,,,,,,,,,,114,110,117,299.00761131090076,299.10769544021423,299.0910142658122,299.2911833995713,4,1,0.25825715799328464,299.0910142658122,None,None,None,False,None,None,None,None,None,None,None,None,None,None,None,None,,,,,,,,,,,,,,,,,,,,,,,,,,,,,,,AU06EL20,1,0xC010,G:\Experimente\CoScience\Tasks\Logfiles\,2022_Mar_01_1148,Flanker,2020.1.3,59.94834174175183,
HHH HHH,HHHSHHH,0,S,,,,,,,,,0,0,0,0,7,6,90,0,,,,,,,0.8853367014008079,300.5256002235674,None,4,,,,,,,,,,,,,104,100,107,300.141917459925,300.242002756082,300.22532187338766,300.4254950910963,4,1,0.28198139120286214,300.22532187338766,None,None,None,False,None,None,None,None,None,None,None,None,None,None,None,None,,,,,,,,,,,,,,,,,,,,,,,,,,,,,,,AU06EL20,1,0xC010,G:\Experimente\CoScience\Tasks\Logfiles\,2022_Mar_01_1148,Flanker,2020.1.3,59.94834174175183,
SSS SSS,SSSSSSS,30,S,,,,,,,,,0,0,0,0,7,7,91,5,,,,,,,0.8285666185115365,301.70992947606464,None,4,,,,,,,,,,,,,134,130,137,301.4263550537107,301.5264394747337,301.5097603423055,None,4,1,0.1744837307214766,301.5097603423055,None,None,None,False,None,None,None,None,None,None,None,None,None,None,None,None,,,,,,,,,,,,,,,,,,,,,,,,,,,,,,,AU06EL20,1,0xC010,G:\Experimente\CoScience\Tasks\Logfiles\,2022_Mar_01_1148,Flanker,2020.1.3,59.94834174175183,
SSS SSS,SSSSSSS,30,S,,,,,,,,,0,0,0,0,7,8,92,4,,,,,,,0.9422236719684984,302.82755561752856,None,4,,,,,,,,,,,,,134,130,137,302.543980611752,302.6440664913298,302.62738531692594,None,4,1,0.1758069296429312,302.62738531692594,None,None,None,False,None,None,None,None,None,None,None,None,None,None,None,None,,,,,,,,,,,,,,,,,,,,,,,,,,,,,,,AU06EL20,1,0xC010,G:\Experimente\CoScience\Tasks\Logfiles\,2022_Mar_01_1148,Flanker,2020.1.3,59.94834174175183,
SSS SSS,SSSHSSS,0,H,,,,,,,,,0,0,0,0,7,9,93,6,,,,,,,0.7992660830834849,304.0285876310081,None,2,,,,,,,,,,,,,104,100,109,303.7783743906166,303.87845968677357,303.86178843052767,None,4,0,0.14140463283001736,303.86178843052767,None,None,None,False,None,None,None,None,None,None,None,None,None,None,None,None,,,,,,,,,,,,,,,,,,,,,,,,,,,,,,,AU06EL20,1,0xC010,G:\Experimente\CoScience\Tasks\Logfiles\,2022_Mar_01_1148,Flanker,2020.1.3,59.94834174175183,
HHS SHH,HHSSSHH,10,S,,,,,,,,,0,0,0,0,7,10,94,1,,,,,,,0.8585076717421151,305.1795761212761,None,4,,,,,,,,,,,,,114,110,117,304.8292781681521,304.92936346430724,304.91268024793135,305.1128619252431,4,1,0.23748474353851634,304.91268024793135,None,None,None,False,None,None,None,None,None,None,None,None,None,None,None,None,,,,,,,,,,,,,,,,,,,,,,,,,,,,,,,AU06EL20,1,0xC010,G:\Experimente\CoScience\Tasks\Logfiles\,2022_Mar_01_1148,Flanker,2020.1.3,59.94834174175183,
SSS SSS,SSSSSSS,30,S,,,,,,,,,0,0,0,0,7,11,95,5,,,,,,,0.9497970791279934,319.52523033462785,None,4,,,,,,,,,,,,,134,130,137,306.04699077261284,306.14707519363765,306.1303943109451,306.33056752865195,4,1,0.19978115876801894,306.1303943109451,None,None,None,False,None,None,None,None,None,306.3639255018006,None,space,308.34896629459945,None,319.42514474675954,None,11.049783025715442,,,,,,,,,,,,,,,,,,,,,,,,,,,,,,AU06EL20,1,0xC010,G:\Experimente\CoScience\Tasks\Logfiles\,2022_Mar_01_1148,Flanker,2020.1.3,59.94834174175183,
SSS SSS,SSSHSSS,0,H,,,,,,,,,0,0,0,0,8,0,96,6,,,,,,,0.7957297971128129,322.22755141689595,None,2,,,,,,,,,,,,,104,100,106,320.4760482325837,320.57613294531984,320.55945352118033,320.7595993180985,2,1,0.6345284324415843,320.55945352118033,None,321.22668737033564,None,False,None,None,None,None,None,None,None,None,None,None,None,None,,,,,,,,,,,,,,,,,,,,,,,,,,,,,,,AU06EL20,1,0xC010,G:\Experimente\CoScience\Tasks\Logfiles\,2022_Mar_01_1148,Flanker,2020.1.3,59.94834174175183,
SSS SSS,SSSSSSS,30,S,,,,,,,,,0,0,0,0,8,1,97,5,,,,,,,0.9852911412209845,323.46194344549804,None,4,,,,,,,,,,,,,134,130,137,323.0282402037774,323.1283249165117,323.1116443255305,323.3118330038942,4,1,0.33329531372874044,323.1116443255305,None,None,None,False,None,None,None,None,None,None,None,None,None,None,None,None,,,,,,,,,,,,,,,,,,,,,,,,,,,,,,,AU06EL20,1,0xC010,G:\Experimente\CoScience\Tasks\Logfiles\,2022_Mar_01_1148,Flanker,2020.1.3,59.94834174175183,
HHH HHH,HHHSHHH,0,S,,,,,,,,,0,0,0,0,8,2,98,0,,,,,,,0.881407063245563,324.79642427078215,None,4,,,,,,,,,,,,,104,100,107,324.46281390969125,324.5628910379528,324.54620986354894,324.74639591651976,4,1,0.222719232124291,324.54620986354894,None,None,None,False,None,None,None,None,None,None,None,None,None,None,None,None,,,,,,,,,,,,,,,,,,,,,,,,,,,,,,,AU06EL20,1,0xC010,G:\Experimente\CoScience\Tasks\Logfiles\,2022_Mar_01_1148,Flanker,2020.1.3,59.94834174175183,
HHH HHH,HHHHHHH,30,H,,,,,,,,,0,0,0,0,8,3,99,10,,,,,,,0.8386441832282964,326.11422304653206,None,2,,,,,,,,,,,,,134,130,137,325.68051776283755,325.78060218386236,325.7639131332744,325.9640936437445,2,1,0.32698415661980107,325.7639131332744,None,None,None,False,None,None,None,None,None,None,None,None,None,None,None,None,,,,,,,,,,,,,,,,,,,,,,,,,,,,,,,AU06EL20,1,0xC010,G:\Experimente\CoScience\Tasks\Logfiles\,2022_Mar_01_1148,Flanker,2020.1.3,59.94834174175183,
HSS SSH,HSSSSSH,20,S,,,,,,,,,0,0,0,0,8,4,100,2,,,,,,,0.983459575155722,327.41533743906257,None,4,,,,,,,,,,,,,124,120,127,326.9649611908317,327.0650406527784,327.0483588949537,327.2485382385821,4,1,0.34952521195555164,327.0483588949537,None,None,None,False,None,None,None,None,None,None,None,None,None,None,None,None,,,,,,,,,,,,,,,,,,,,,,,,,,,,,,,AU06EL20,1,0xC010,G:\Experimente\CoScience\Tasks\Logfiles\,2022_Mar_01_1148,Flanker,2020.1.3,59.94834174175183,
SSS SSS,SSSSSSS,30,S,,,,,,,,,0,0,0,0,8,5,101,4,,,,,,,0.8625479940717105,328.7164576658033,None,4,,,,,,,,,,,,,134,130,137,328.39951914437734,328.4996044405343,328.48292414126263,328.68310786054826,4,1,0.20395903684038785,328.48292414126263,None,None,None,False,None,None,None,None,None,None,None,None,None,None,None,None,,,,,,,,,,,,,,,,,,,,,,,,,,,,,,,AU06EL20,1,0xC010,G:\Experimente\CoScience\Tasks\Logfiles\,2022_Mar_01_1148,Flanker,2020.1.3,59.94834174175183,
HHH HHH,HHHSHHH,0,S,,,,,,,,,0,0,0,0,8,6,102,0,,,,,,,0.9335702746827453,329.9341691034224,None,4,,,,,,,,,,,,,104,100,107,329.5838705668757,329.68395527961,329.667274105208,329.86744528094096,4,1,0.24857674437043897,329.667274105208,None,None,None,False,None,None,None,None,None,None,None,None,None,None,None,None,,,,,,,,,,,,,,,,,,,,,,,,,,,,,,,AU06EL20,1,0xC010,G:\Experimente\CoScience\Tasks\Logfiles\,2022_Mar_01_1148,Flanker,2020.1.3,59.94834174175183,
SSS SSS,SSSHSSS,0,H,,,,,,,,,0,0,0,0,8,7,103,6,,,,,,,0.8951663551749276,331.2019266896459,None,2,,,,,,,,,,,,,104,100,109,330.8683069938179,330.96839170655403,330.95171694978126,331.151882291304,4,0,0.22012154993899458,330.95171694978126,None,None,None,False,None,None,None,None,None,None,None,None,None,None,None,None,,,,,,,,,,,,,,,,,,,,,,,,,,,,,,,AU06EL20,1,0xC010,G:\Experimente\CoScience\Tasks\Logfiles\,2022_Mar_01_1148,Flanker,2020.1.3,59.94834174175183,
SSS SSS,SSSSSSS,30,S,,,,,,,,,0,0,0,0,8,8,104,3,,,,,,,0.9986127368555487,332.4363190099575,None,4,,,,,,,,,,,,,134,130,137,332.10269727215746,332.2027834434448,332.1861043110148,332.3863163262213,4,1,0.22573260180070065,332.1861043110148,None,None,None,False,None,None,None,None,None,None,None,None,None,None,None,None,,,,,,,,,,,,,,,,,,,,,,,,,,,,,,,AU06EL20,1,0xC010,G:\Experimente\CoScience\Tasks\Logfiles\,2022_Mar_01_1148,Flanker,2020.1.3,59.94834174175183,
HHH HHH,HHHHHHH,30,H,,,,,,,,,0,0,0,0,8,9,105,10,,,,,,,0.808461484789675,333.8542030818626,None,2,,,,,,,,,,,,,134,130,137,333.43717955599277,333.5372724366225,333.5205836777459,333.72075718716405,2,1,0.3132145449199015,333.5205836777459,None,None,None,False,None,None,None,None,None,None,None,None,None,None,None,None,,,,,,,,,,,,,,,,,,,,,,,,,,,,,,,AU06EL20,1,0xC010,G:\Experimente\CoScience\Tasks\Logfiles\,2022_Mar_01_1148,Flanker,2020.1.3,59.94834174175183,
SSS SSS,SSSHSSS,0,H,,,,,,,,,0,0,0,0,8,10,106,6,,,,,,,0.9949910761353045,335.05523392850046,None,2,,,,,,,,,,,,,104,100,107,334.6715718763062,334.7716577558822,334.7549730809533,334.9551477572131,2,1,0.27381028781383066,334.7549730809533,None,None,None,False,None,None,None,None,None,None,None,None,None,None,None,None,,,,,,,,,,,,,,,,,,,,,,,,,,,,,,,AU06EL20,1,0xC010,G:\Experimente\CoScience\Tasks\Logfiles\,2022_Mar_01_1148,Flanker,2020.1.3,59.94834174175183,
HHH HHH,HHHHHHH,30,H,,,,,,,,,0,0,0,0,8,11,107,9,,,,,,,0.7574978189658552,336.37303270425036,None,2,,,,,,,,,,,,,134,130,137,336.05609389111487,336.15618064582304,336.139499471421,336.33967152228615,2,1,0.21527186253661057,336.139499471421,None,None,None,False,None,None,None,None,None,None,None,None,None,None,None,None,,,,,,,,,,,,,,,,,,,,,,,,,,,,,,,AU06EL20,1,0xC010,G:\Experimente\CoScience\Tasks\Logfiles\,2022_Mar_01_1148,Flanker,2020.1.3,59.94834174175183,
HHS SHH,HHSSSHH,10,S,,,,,,,,,0,0,0,0,9,0,108,1,,,,,,,0.7717145720187081,337.62410765751883,None,4,,,,,,,,,,,,,114,110,117,337.1403588506146,337.2404438550602,337.2237641392094,337.4239361900745,4,1,0.37199100598081714,337.2237641392094,None,None,None,False,None,None,None,None,None,None,None,None,None,None,None,None,,,,,,,,,,,,,,,,,,,,,,,,,,,,,,,AU06EL20,1,0xC010,G:\Experimente\CoScience\Tasks\Logfiles\,2022_Mar_01_1148,Flanker,2020.1.3,59.94834174175183,
HHH HHH,HHHSHHH,0,S,,,,,,,,,0,0,0,0,9,1,109,0,,,,,,,0.8607969919843075,338.7250540831319,None,4,,,,,,,,,,,,,104,100,107,338.40811351973207,338.5081996910212,338.49152610109195,338.69169115090153,4,1,0.21724440907564713,338.49152610109195,None,None,None,False,None,None,None,None,None,None,None,None,None,None,None,None,,,,,,,,,,,,,,,,,,,,,,,,,,,,,,,AU06EL20,1,0xC010,G:\Experimente\CoScience\Tasks\Logfiles\,2022_Mar_01_1148,Flanker,2020.1.3,59.94834174175183,
SSS SSS,SSSSSSS,30,S,,,,,,,,,0,0,0,0,9,2,110,4,,,,,,,0.7863227822660525,339.9094034636528,None,4,,,,,,,,,,,,,134,130,137,339.5924643588096,339.6925505300951,339.6758676054287,339.87604140656003,4,1,0.21485325794128585,339.6758676054287,None,None,None,False,None,None,None,None,None,None,None,None,None,None,None,None,,,,,,,,,,,,,,,,,,,,,,,,,,,,,,,AU06EL20,1,0xC010,G:\Experimente\CoScience\Tasks\Logfiles\,2022_Mar_01_1148,Flanker,2020.1.3,59.94834174175183,
SSS SSS,SSSSSSS,30,S,,,,,,,,,0,0,0,0,9,3,111,5,,,,,,,0.7734131587832722,341.0603928290566,None,4,,,,,,,,,,,,,134,130,137,340.7100919588247,340.8101778384025,340.7934957888665,340.9936792164426,4,1,0.2372017843335925,340.7934957888665,None,None,None,False,None,None,None,None,None,None,None,None,None,None,None,None,,,,,,,,,,,,,,,,,,,,,,,,,,,,,,,AU06EL20,1,0xC010,G:\Experimente\CoScience\Tasks\Logfiles\,2022_Mar_01_1148,Flanker,2020.1.3,59.94834174175183,
SSS SSS,SSSSSSS,30,S,,,,,,,,,0,0,0,0,9,4,112,4,,,,,,,0.8129046566945751,342.16133692098265,None,4,,,,,,,,,,,,,134,130,137,341.8443986912698,341.9444836957173,341.92780281302294,342.1279760307316,4,1,0.2128812948212726,341.92780281302294,None,None,None,False,None,None,None,None,None,None,None,None,None,None,None,None,,,,,,,,,,,,,,,,,,,,,,,,,,,,,,,AU06EL20,1,0xC010,G:\Experimente\CoScience\Tasks\Logfiles\,2022_Mar_01_1148,Flanker,2020.1.3,59.94834174175183,
SSS SSS,SSSSSSS,30,S,,,,,,,,,0,0,0,0,9,5,113,4,,,,,,,0.801926047726566,343.26228101291235,None,4,,,,,,,,,,,,,134,130,137,342.97870688226794,343.0787930535571,343.06211071230973,None,4,1,0.1745592837469303,343.06211071230973,None,None,None,False,None,None,None,None,None,None,None,None,None,None,None,None,,,,,,,,,,,,,,,,,,,,,,,,,,,,,,,AU06EL20,1,0xC010,G:\Experimente\CoScience\Tasks\Logfiles\,2022_Mar_01_1148,Flanker,2020.1.3,59.94834174175183,
SHH HHS,SHHHHHS,20,H,,,,,,,,,0,0,0,0,9,6,114,8,,,,,,,0.8747693848520521,344.3632291887898,None,2,,,,,,,,,,,,,124,120,129,344.0796506824863,344.17973656206414,344.16305772134547,None,4,0,0.18367786290400545,344.16305772134547,None,None,None,False,None,None,None,None,None,None,None,None,None,None,None,None,,,,,,,,,,,,,,,,,,,,,,,,,,,,,,,AU06EL20,1,0xC010,G:\Experimente\CoScience\Tasks\Logfiles\,2022_Mar_01_1148,Flanker,2020.1.3,59.94834174175183,
HHH HHH,HHHHHHH,30,H,,,,,,,,,0,0,0,0,9,7,115,9,,,,,,,0.7602233988419467,345.6643450398715,None,2,,,,,,,,,,,,,134,130,137,345.24732122229216,345.3474065184473,345.33072563575297,345.53092714938066,2,1,0.30892552513978444,345.33072563575297,None,None,None,False,None,None,None,None,None,None,None,None,None,None,None,None,,,,,,,,,,,,,,,,,,,,,,,,,,,,,,,AU06EL20,1,0xC010,G:\Experimente\CoScience\Tasks\Logfiles\,2022_Mar_01_1148,Flanker,2020.1.3,59.94834174175183,
SSS SSS,SSSSSSS,30,S,,,,,,,,,0,0,0,0,9,8,116,4,,,,,,,0.7612332544718963,346.76529029864287,None,4,,,,,,,,,,,,,134,130,139,346.431671477947,346.5317567741022,346.51507589140783,346.71524823398613,2,0,0.22757475373873604,346.51507589140783,None,None,None,False,None,None,None,None,None,None,None,None,None,None,None,None,,,,,,,,,,,,,,,,,,,,,,,,,,,,,,,AU06EL20,1,0xC010,G:\Experimente\CoScience\Tasks\Logfiles\,2022_Mar_01_1148,Flanker,2020.1.3,59.94834174175183,
SSS SSS,SSSHSSS,0,H,,,,,,,,,0,0,0,0,9,9,117,6,,,,,,,0.7749685957221129,347.8662355574106,None,2,,,,,,,,,,,,,104,100,109,347.5326158615844,347.63270203287357,347.61602552583827,347.81625212657127,4,0,0.2216168580671365,347.61602552583827,None,None,None,False,None,None,None,None,None,None,None,None,None,None,None,None,,,,,,,,,,,,,,,,,,,,,,,,,,,,,,,AU06EL20,1,0xC010,G:\Experimente\CoScience\Tasks\Logfiles\,2022_Mar_01_1148,Flanker,2020.1.3,59.94834174175183,
SSS SSS,SSSSSSS,30,S,,,,,,,,,0,0,0,0,9,10,118,3,,,,,,,0.8253356585768652,350.75204780785316,None,4,,,,,,,,,,,,,134,130,0,348.65024346159953,348.7503272992053,348.7336469999336,348.93381905079696,None,0,,348.7336469999336,None,349.7511939711603,None,False,None,None,None,None,None,None,None,None,None,None,None,None,,,,,,,,,,,,,,,,,,,,,,,,,,,,,,,AU06EL20,1,0xC010,G:\Experimente\CoScience\Tasks\Logfiles\,2022_Mar_01_1148,Flanker,2020.1.3,59.94834174175183,
HHH HHH,HHHHHHH,30,H,,,,,,,,,0,0,0,0,9,11,119,9,,,,,,,0.8072482493592211,352.0364842347972,None,2,,,,,,,,,,,,,134,130,137,351.58609865182916,351.68618307285396,351.66950219016326,351.8696742410266,2,1,0.3380685729753168,351.66950219016326,None,None,None,False,None,None,None,None,None,None,None,None,None,None,None,None,,,,,,,,,,,,,,,,,,,,,,,,,,,,,,,AU06EL20,1,0xC010,G:\Experimente\CoScience\Tasks\Logfiles\,2022_Mar_01_1148,Flanker,2020.1.3,59.94834174175183,
SSS SSS,SSSSSSS,30,S,,,,,,,,,0,0,0,0,10,0,120,4,,,,,,,0.9062830441056096,353.187472725067,None,4,,,,,,,,,,,,,134,130,137,352.85385448779016,352.95393890881496,352.9372583178356,353.13742978527625,4,1,0.21831323642254574,352.9372583178356,None,None,None,False,None,None,None,None,None,None,None,None,None,None,None,None,,,,,,,,,,,,,,,,,,,,,,,,,,,,,,,AU06EL20,1,0xC010,G:\Experimente\CoScience\Tasks\Logfiles\,2022_Mar_01_1148,Flanker,2020.1.3,59.94834174175183,
HHS SHH,HHSSSHH,10,S,,,,,,,,,0,0,0,0,10,1,121,1,,,,,,,0.8710131974919646,354.4218670873506,None,4,,,,,,,,,,,,,114,110,117,354.1049262322431,354.20501240353224,354.18834114728634,354.38850473854654,4,1,0.21320655205272487,354.18834114728634,None,None,None,False,None,None,None,None,None,None,None,None,None,None,None,None,,,,,,,,,,,,,,,,,,,,,,,,,,,,,,,AU06EL20,1,0xC010,G:\Experimente\CoScience\Tasks\Logfiles\,2022_Mar_01_1148,Flanker,2020.1.3,59.94834174175183,
HSS SSH,HSSSSSH,20,S,,,,,,,,,0,0,0,0,10,2,122,2,,,,,,,0.7593337922773593,355.62289851741116,None,4,,,,,,,,,,,,,124,120,127,355.3059588291453,355.4060455838535,355.38936353431745,355.5895364603148,4,1,0.21515984569487046,355.38936353431745,None,None,None,False,None,None,None,None,None,None,None,None,None,None,None,None,,,,,,,,,,,,,,,,,,,,,,,,,,,,,,,AU06EL20,1,0xC010,G:\Experimente\CoScience\Tasks\Logfiles\,2022_Mar_01_1148,Flanker,2020.1.3,59.94834174175183,
HHH HHH,HHHHHHH,30,H,,,,,,,,,0,0,0,0,10,3,123,11,,,,,,,0.8230629789649477,356.70716201835785,None,2,,,,,,,,,,,,,134,130,139,356.39022466377537,356.4903090848002,356.47362820210583,356.6738002529728,4,0,0.21587482818358694,356.47362820210583,None,None,None,False,None,None,None,None,None,None,None,None,None,None,None,None,,,,,,,,,,,,,,,,,,,,,,,,,,,,,,,AU06EL20,1,0xC010,G:\Experimente\CoScience\Tasks\Logfiles\,2022_Mar_01_1148,Flanker,2020.1.3,59.94834174175183,
SSS SSS,SSSHSSS,0,H,,,,,,,,,0,0,0,0,10,4,124,6,,,,,,,0.9681907042254716,357.85815050862766,None,2,,,,,,,,,,,,,104,100,109,357.5412125706225,357.64129874191167,357.6246178592173,357.82478932666163,4,0,0.21289792231982574,357.6246178592173,None,None,None,False,None,None,None,None,None,None,None,None,None,None,None,None,,,,,,,,,,,,,,,,,,,,,,,,,,,,,,,AU06EL20,1,0xC010,G:\Experimente\CoScience\Tasks\Logfiles\,2022_Mar_01_1148,Flanker,2020.1.3,59.94834174175183,
SSS SSS,SSSSSSS,30,S,,,,,,,,,0,0,0,0,10,5,125,4,,,,,,,0.9300643210370909,359.24268710896104,None,4,,,,,,,,,,,,,134,130,137,358.82567991888027,358.9257342937217,358.9090528276083,359.1092234199223,4,1,0.3054214983640122,358.9090528276083,None,None,None,False,None,None,None,None,None,None,None,None,None,None,None,None,,,,,,,,,,,,,,,,,,,,,,,,,,,,,,,AU06EL20,1,0xC010,G:\Experimente\CoScience\Tasks\Logfiles\,2022_Mar_01_1148,Flanker,2020.1.3,59.94834174175183,
SSS SSS,SSSSSSS,30,S,,,,,,,,,0,0,0,0,10,6,126,3,,,,,,,0.958939207444907,360.5104362355796,None,4,,,,,,,,,,,,,134,130,137,360.1768086635693,360.27689250117146,360.2602136604528,360.4603845444781,4,1,0.22024027612133068,360.2602136604528,None,None,None,False,None,None,None,None,None,None,None,None,None,None,None,None,,,,,,,,,,,,,,,,,,,,,,,,,,,,,,,AU06EL20,1,0xC010,G:\Experimente\CoScience\Tasks\Logfiles\,2022_Mar_01_1148,Flanker,2020.1.3,59.94834174175183,
SSH HSS,SSHHHSS,10,H,,,,,,,,,0,0,0,0,10,7,127,7,,,,,,,0.8304957025309541,361.8615889005323,None,2,,,,,,,,,,,,,114,110,117,361.4779265566267,361.57801185278186,361.5613309700875,361.7614980618764,2,1,0.28110625964109204,361.5613309700875,None,None,None,False,None,None,None,None,None,None,None,None,None,None,None,None,,,,,,,,,,,,,,,,,,,,,,,,,,,,,,,AU06EL20,1,0xC010,G:\Experimente\CoScience\Tasks\Logfiles\,2022_Mar_01_1148,Flanker,2020.1.3,59.94834174175183,
HHH HHH,HHHHHHH,30,H,,,,,,,,,0,0,0,0,10,8,128,11,,,,,,,0.9834334307566418,363.04593915618716,None,2,,,,,,,,,,,,,134,130,137,362.6956382859553,362.79572504066346,362.7790435745501,362.9792153337057,2,1,0.2413887054353836,362.7790435745501,None,None,None,False,None,None,None,None,None,None,None,None,None,None,None,None,,,,,,,,,,,,,,,,,,,,,,,,,,,,,,,AU06EL20,1,0xC010,G:\Experimente\CoScience\Tasks\Logfiles\,2022_Mar_01_1148,Flanker,2020.1.3,59.94834174175183,
HHH HHH,HHHHHHH,30,H,,,,,,,,,0,0,0,0,10,9,129,10,,,,,,,0.7646754820924371,364.3136944087255,None,2,,,,,,,,,,,,,134,130,137,364.03011706926736,364.1302032405529,364.1135232329925,None,2,1,0.17987716653442476,364.1135232329925,None,None,None,False,None,None,None,None,None,None,None,None,None,None,None,None,,,,,,,,,,,,,,,,,,,,,,,,,,,,,,,AU06EL20,1,0xC010,G:\Experimente\CoScience\Tasks\Logfiles\,2022_Mar_01_1148,Flanker,2020.1.3,59.94834174175183,
HHH HHH,HHHHHHH,30,H,,,,,,,,,0,0,0,0,10,10,130,9,,,,,,,0.9814080887381555,365.39799641546233,None,2,,,,,,,,,,,,,134,130,137,365.0810205550897,365.1811070180902,365.1644255519732,365.36459614428713,2,1,0.2149568151726271,365.1644255519732,None,None,None,False,None,None,None,None,None,None,None,None,None,None,None,None,,,,,,,,,,,,,,,,,,,,,,,,,,,,,,,AU06EL20,1,0xC010,G:\Experimente\CoScience\Tasks\Logfiles\,2022_Mar_01_1148,Flanker,2020.1.3,59.94834174175183,
SSH HSS,SSHHHSS,10,H,,,,,,,,,0,0,0,0,10,11,131,7,,,,,,,0.9834933588570804,366.71575726884294,None,2,,,,,,,,,,,,,114,110,119,366.38213815643576,366.48222461943624,366.46554169476985,366.6657131622105,4,0,0.21983392336551333,366.46554169476985,None,None,None,False,None,None,None,None,None,None,None,None,None,None,None,None,,,,,,,,,,,,,,,,,,,,,,,,,,,,,,,AU06EL20,1,0xC010,G:\Experimente\CoScience\Tasks\Logfiles\,2022_Mar_01_1148,Flanker,2020.1.3,59.94834174175183,
HHH HHH,HHHHHHH,30,H,,,,,,,,,0,0,0,0,11,0,132,11,,,,,,,0.7788059184965812,368.01687574531934,None,2,,,,,,,,,,,,,134,130,137,367.6999375156065,367.80003010452674,367.78334047051794,367.9835113545396,2,1,0.20104922440077644,367.78334047051794,None,None,None,False,None,None,None,None,None,None,None,None,None,None,None,None,,,,,,,,,,,,,,,,,,,,,,,,,,,,,,,AU06EL20,1,0xC010,G:\Experimente\CoScience\Tasks\Logfiles\,2022_Mar_01_1148,Flanker,2020.1.3,59.94834174175183,
SSS SSS,SSSSSSS,30,S,,,,,,,,,0,0,0,0,11,1,133,3,,,,,,,0.8541088356699769,369.15119560473795,None,4,,,,,,,,,,,,,134,130,139,368.8008816075362,368.9009663202687,368.88428718784235,369.084458071864,2,0,0.24305670618923614,368.88428718784235,None,None,None,False,None,None,None,None,None,None,None,None,None,None,None,None,,,,,,,,,,,,,,,,,,,,,,,,,,,,,,,AU06EL20,1,0xC010,G:\Experimente\CoScience\Tasks\Logfiles\,2022_Mar_01_1148,Flanker,2020.1.3,59.94834174175183,
HHH HHH,HHHHHHH,30,H,,,,,,,,,0,0,0,0,11,2,134,11,,,,,,,0.9799692569851073,370.43561890470846,None,2,,,,,,,,,,,,,134,130,137,370.01859421199515,370.11867979986164,370.10199570835357,370.30218905408947,2,1,0.31632826301574823,370.10199570835357,None,None,None,False,None,None,None,None,None,None,None,None,None,None,None,None,,,,,,,,,,,,,,,,,,,,,,,,,,,,,,,AU06EL20,1,0xC010,G:\Experimente\CoScience\Tasks\Logfiles\,2022_Mar_01_1148,Flanker,2020.1.3,59.94834174175183,
SSS SSS,SSSHSSS,0,H,,,,,,,,,0,0,0,0,11,3,135,6,,,,,,,0.8737386780468367,371.73673475579017,None,2,,,,,,,,,,,,,104,100,109,371.419797692919,371.51988357249684,371.5032023980948,371.70337328211644,4,0,0.2151038372758194,371.5032023980948,None,None,None,False,None,None,None,None,None,None,None,None,None,None,None,None,,,,,,,,,,,,,,,,,,,,,,,,,,,,,,,AU06EL20,1,0xC010,G:\Experimente\CoScience\Tasks\Logfiles\,2022_Mar_01_1148,Flanker,2020.1.3,59.94834174175183,
HHH HHH,HHHSHHH,0,S,,,,,,,,,0,0,0,0,11,4,136,0,,,,,,,0.9286236159521046,372.90442396507024,None,4,,,,,,,,,,,,,104,100,109,372.6208299981099,372.7209144191347,372.70423353644037,None,2,0,0.1780624353850726,372.70423353644037,None,None,None,False,None,None,None,None,None,None,None,None,None,None,None,None,,,,,,,,,,,,,,,,,,,,,,,,,,,,,,,AU06EL20,1,0xC010,G:\Experimente\CoScience\Tasks\Logfiles\,2022_Mar_01_1148,Flanker,2020.1.3,59.94834174175183,
HSS SSH,HSSSSSH,20,S,,,,,,,,,0,0,0,0,11,5,137,2,,,,,,,0.884181765489759,374.2222037796364,None,4,,,,,,,,,,,,,124,120,127,373.8385402688855,373.9386243982026,373.9219464326143,374.1221158580829,4,1,0.2783388019306585,373.9219464326143,None,None,None,False,None,None,None,None,None,None,None,None,None,None,None,None,,,,,,,,,,,,,,,,,,,,,,,,,,,,,,,AU06EL20,1,0xC010,G:\Experimente\CoScience\Tasks\Logfiles\,2022_Mar_01_1148,Flanker,2020.1.3,59.94834174175183,
SSS SSS,SSSSSSS,30,S,,,,,,,,,0,0,0,0,11,6,138,4,,,,,,,0.8161619830873696,375.42323462627064,None,4,,,,,,,,,,,,,134,130,137,375.10629435458577,375.2063805258713,375.1897025602866,375.3898728608856,4,1,0.201572553072765,375.1897025602866,None,None,None,False,None,None,None,None,None,None,None,None,None,None,None,None,,,,,,,,,,,,,,,,,,,,,,,,,,,,,,,AU06EL20,1,0xC010,G:\Experimente\CoScience\Tasks\Logfiles\,2022_Mar_01_1148,Flanker,2020.1.3,59.94834174175183,
HHH HHH,HHHHHHH,30,H,,,,,,,,,0,0,0,0,11,7,139,9,,,,,,,0.8017822423754122,376.55756586240204,None,2,,,,,,,,,,,,,134,130,139,376.24060487926727,376.3406887168694,376.3240090010204,376.5241810518837,4,0,0.204241704337619,376.3240090010204,None,None,None,False,None,None,None,None,None,None,None,None,None,None,None,None,,,,,,,,,,,,,,,,,,,,,,,,,,,,,,,AU06EL20,1,0xC010,G:\Experimente\CoScience\Tasks\Logfiles\,2022_Mar_01_1148,Flanker,2020.1.3,59.94834174175183,
HHS SHH,HHSSSHH,10,S,,,,,,,,,0,0,0,0,11,8,140,1,,,,,,,0.8942623718584012,377.74189190608195,None,4,,,,,,,,,,,,,114,110,117,377.3749119034237,377.47499690786753,377.4583157334655,377.65848661748714,4,1,0.250947184060351,377.4583157334655,None,None,None,False,None,None,None,None,None,None,None,None,None,None,None,None,,,,,,,,,,,,,,,,,,,,,,,,,,,,,,,AU06EL20,1,0xC010,G:\Experimente\CoScience\Tasks\Logfiles\,2022_Mar_01_1148,Flanker,2020.1.3,59.94834174175183,
HHH HHH,HHHHHHH,30,H,,,,,,,,,0,0,0,0,11,9,141,11,,,,,,,0.7705629991366407,379.02632949986764,None,2,,,,,,,,,,,,,134,130,137,378.6426931181977,378.7427509935678,378.7260718611378,378.92624128660646,2,1,0.27316619098201045,378.7260718611378,None,None,None,False,None,None,None,None,None,None,None,None,None,None,None,None,,,,,,,,,,,,,,,,,,,,,,,,,,,,,,,AU06EL20,1,0xC010,G:\Experimente\CoScience\Tasks\Logfiles\,2022_Mar_01_1148,Flanker,2020.1.3,59.94834174175183,
HHS SHH,HHSSSHH,10,S,,,,,,,,,0,0,0,0,11,10,142,1,,,,,,,0.8314918026179298,381.9121405834685,None,4,,,,,,,,,,,,,114,110,0,379.8103353620845,379.9104212416587,379.893740358968,380.09391153470096,None,0,,379.893740358968,None,380.91128266282794,None,False,None,None,None,None,None,None,None,None,None,None,None,None,,,,,,,,,,,,,,,,,,,,,,,,,,,,,,,AU06EL20,1,0xC010,G:\Experimente\CoScience\Tasks\Logfiles\,2022_Mar_01_1148,Flanker,2020.1.3,59.94834174175183,
HHS SHH,HHSSSHH,10,S,,,,,,,,,0,0,0,0,11,11,143,1,,,,,,,0.9670637705514298,383.1131705549724,None,4,,,,,,,,,,,,,114,110,117,382.74619084402184,382.8462746816276,382.8295955491976,383.02976497466625,4,1,0.2635677480175218,382.8295955491976,None,None,None,False,None,None,None,None,None,None,None,None,None,None,None,None,,,,,,,,,,,,,,,,,,,,,,,,,,,,,,,AU06EL20,1,0xC010,G:\Experimente\CoScience\Tasks\Logfiles\,2022_Mar_01_1148,Flanker,2020.1.3,59.94834174175183,
HHS SHH,HHSSSHH,10,S,,,,,,,,,0,0,0,0,12,0,144,1,,,,,,,0.8715266374106001,384.39760873218074,None,4,,,,,,,,,,,,,114,110,117,384.0806696273339,384.18075550691174,384.16407374908704,384.36424492482,4,1,0.21508254241052782,384.16407374908704,None,None,None,False,None,None,None,None,None,None,None,None,None,None,None,None,,,,,,,,,,,,,,,,,,,,,,,,,,,,,,,AU06EL20,1,0xC010,G:\Experimente\CoScience\Tasks\Logfiles\,2022_Mar_01_1148,Flanker,2020.1.3,59.94834174175183,
HHH HHH,HHHSHHH,0,S,,,,,,,,,0,0,0,0,12,1,145,0,,,,,,,0.9049158884793295,385.6987263335268,None,4,,,,,,,,,,,,,104,100,107,385.2817010573908,385.38178693696864,385.36510547085527,385.56527781342993,4,1,0.3040279972119606,385.36510547085527,None,None,None,False,None,None,None,None,None,None,None,None,None,None,None,None,,,,,,,,,,,,,,,,,,,,,,,,,,,,,,,AU06EL20,1,0xC010,G:\Experimente\CoScience\Tasks\Logfiles\,2022_Mar_01_1148,Flanker,2020.1.3,59.94834174175183,
HHH HHH,HHHHHHH,30,H,,,,,,,,,0,0,0,0,12,2,146,9,,,,,,,0.890250543478597,386.94980011995176,None,2,,,,,,,,,,,,,134,130,137,386.61617925728024,386.7162654285694,386.69958454587504,386.89975601331935,2,1,0.22955080080282642,386.69958454587504,None,None,None,False,None,None,None,None,None,None,None,None,None,None,None,None,,,,,,,,,,,,,,,,,,,,,,,,,,,,,,,AU06EL20,1,0xC010,G:\Experimente\CoScience\Tasks\Logfiles\,2022_Mar_01_1148,Flanker,2020.1.3,59.94834174175183,
HSS SSH,HSSSSSH,20,S,,,,,,,,,0,0,0,0,12,3,147,2,,,,,,,0.934571907977105,388.1675112658613,None,4,,,,,,,,,,,,,124,120,127,387.8505747864092,387.95065891572267,387.933978616451,388.1341608771854,4,1,0.21714231039368315,387.933978616451,None,None,None,False,None,None,None,None,None,None,None,None,None,None,None,None,,,,,,,,,,,,,,,,,,,,,,,,,,,,,,,AU06EL20,1,0xC010,G:\Experimente\CoScience\Tasks\Logfiles\,2022_Mar_01_1148,Flanker,2020.1.3,59.94834174175183,
SSH HSS,SSHHHSS,10,H,,,,,,,,,0,0,0,0,12,4,148,7,,,,,,,0.8958571735384013,389.4519476928017,None,2,,,,,,,,,,,,,114,110,117,389.1016456557318,389.20173241043994,389.1850526945873,389.38523437189906,2,1,0.2470338874263689,389.1850526945873,None,None,None,False,None,None,None,None,None,None,None,None,None,None,None,None,,,,,,,,,,,,,,,,,,,,,,,,,,,,,,,AU06EL20,1,0xC010,G:\Experimente\CoScience\Tasks\Logfiles\,2022_Mar_01_1148,Flanker,2020.1.3,59.94834174175183,
SSH HSS,SSHHHSS,10,H,,,,,,,,,0,0,0,0,12,5,149,7,,,,,,,0.9259178571543005,390.7530381650704,None,2,,,,,,,,,,,,,114,110,117,390.3527217758401,390.4528085305483,390.4361267727236,390.6362982401679,2,1,0.28993983762484277,390.4361267727236,None,None,None,False,None,None,None,None,None,None,None,None,None,None,None,None,,,,,,,,,,,,,,,,,,,,,,,,,,,,,,,AU06EL20,1,0xC010,G:\Experimente\CoScience\Tasks\Logfiles\,2022_Mar_01_1148,Flanker,2020.1.3,59.94834174175183,
HSS SSH,HSSSSSH,20,S,,,,,,,,,0,0,0,0,12,6,150,2,,,,,,,0.8444291339588228,392.00414199767874,None,4,,,,,,,,,,,,,124,120,127,391.6872090187553,391.78730948385964,391.7706070145887,391.970779940586,4,1,0.20744089361323859,391.7706070145887,None,None,None,False,None,None,None,None,None,None,None,None,None,None,None,None,,,,,,,,,,,,,,,,,,,,,,,,,,,,,,,AU06EL20,1,0xC010,G:\Experimente\CoScience\Tasks\Logfiles\,2022_Mar_01_1148,Flanker,2020.1.3,59.94834174175183,
HHH HHH,HHHSHHH,0,S,,,,,,,,,0,0,0,0,12,7,151,0,,,,,,,0.792452550844541,393.2385331511523,None,4,,,,,,,,,,,,,104,100,107,392.8548789751385,392.95495522826786,392.93827551241884,393.13844493788747,4,1,0.2797568067726388,392.93827551241884,None,None,None,False,None,None,None,None,None,None,None,None,None,None,None,None,,,,,,,,,,,,,,,,,,,,,,,,,,,,,,,AU06EL20,1,0xC010,G:\Experimente\CoScience\Tasks\Logfiles\,2022_Mar_01_1148,Flanker,2020.1.3,59.94834174175183,
HSS SSH,HSSSSSH,20,S,,,,,,,,,0,0,0,0,12,8,152,2,,,,,,,0.9039666528546484,394.3728395918861,None,4,,,,,,,,,,,,,124,120,127,394.03922135460925,394.1393072341871,394.1226254763624,394.32279781894067,4,1,0.23240868877473986,394.1226254763624,None,None,None,False,None,None,None,None,None,None,None,None,None,None,None,None,,,,,,,,,,,,,,,,,,,,,,,,,,,,,,,AU06EL20,1,0xC010,G:\Experimente\CoScience\Tasks\Logfiles\,2022_Mar_01_1148,Flanker,2020.1.3,59.94834174175183,
SSS SSS,SSSSSSS,30,S,,,,,,,,,0,0,0,0,12,9,153,3,,,,,,,0.882028640682643,395.5905740746366,None,4,,,,,,,,,,,,,134,130,137,395.2902960161682,395.39038072890435,395.37370159647435,395.5738736473377,4,1,0.19931646390614333,395.37370159647435,None,None,None,False,None,None,None,None,None,None,None,None,None,None,None,None,,,,,,,,,,,,,,,,,,,,,,,,,,,,,,,AU06EL20,1,0xC010,G:\Experimente\CoScience\Tasks\Logfiles\,2022_Mar_01_1148,Flanker,2020.1.3,59.94834174175183,
HHH HHH,HHHHHHH,30,H,,,,,,,,,0,0,0,0,12,10,154,9,,,,,,,0.8984168212870928,396.7749036188452,None,2,,,,,,,,,,,,,134,130,139,396.47464714695343,396.57473156797823,396.55805126870655,396.75819852417953,4,0,0.2009678371650807,396.55805126870655,None,None,None,False,None,None,None,None,None,None,None,None,None,None,None,None,,,,,,,,,,,,,,,,,,,,,,,,,,,,,,,AU06EL20,1,0xC010,G:\Experimente\CoScience\Tasks\Logfiles\,2022_Mar_01_1148,Flanker,2020.1.3,59.94834174175183,
HSS SSH,HSSSSSH,20,S,,,,,,,,,0,0,0,0,12,11,155,2,,,,,,,0.7868807064950714,397.99262264093886,None,4,,,,,,,,,,,,,124,120,127,397.675680618986,397.77576270632744,397.75907832310804,397.95925358278873,4,1,0.20789216979028424,397.75907832310804,None,None,None,False,None,None,None,None,None,None,None,None,None,None,None,None,,,,,,,,,,,,,,,,,,,,,,,,,,,,,,,AU06EL20,1,0xC010,G:\Experimente\CoScience\Tasks\Logfiles\,2022_Mar_01_1148,Flanker,2020.1.3,59.94834174175183,
SSS SSS,SSSSSSS,30,S,,,,,,,,,0,0,0,0,13,0,156,5,,,,,,,0.9146852090090062,399.2603711841348,None,4,,,,,,,,,,,,,134,130,137,398.79330442676473,398.8933885560782,398.87672313404437,399.0768782656978,4,1,0.35323401951245614,398.87672313404437,None,None,None,False,None,None,None,None,None,None,None,None,None,None,None,None,,,,,,,,,,,,,,,,,,,,,,,,,,,,,,,AU06EL20,1,0xC010,G:\Experimente\CoScience\Tasks\Logfiles\,2022_Mar_01_1148,Flanker,2020.1.3,59.94834174175183,
SHH HHS,SHHHHHS,20,H,,,,,,,,,0,0,0,0,13,1,157,8,,,,,,,0.835200366178696,400.5114452622711,None,2,,,,,,,,,,,,,124,120,129,400.17782790012825,400.2779120294417,400.26123056332835,400.461402322484,4,0,0.2297074493508262,400.26123056332835,None,None,None,False,None,None,None,None,None,None,None,None,None,None,None,None,,,,,,,,,,,,,,,,,,,,,,,,,,,,,,,AU06EL20,1,0xC010,G:\Experimente\CoScience\Tasks\Logfiles\,2022_Mar_01_1148,Flanker,2020.1.3,59.94834174175183,
SHH HHS,SHHHHHS,20,H,,,,,,,,,0,0,0,0,13,2,158,8,,,,,,,0.9005028307389825,401.7291575750223,None,2,,,,,,,,,,,,,124,120,127,401.3621766972301,401.4622625768079,401.4455814024059,401.64575374498054,2,1,0.25733768643112853,401.4455814024059,None,None,None,False,None,None,None,None,None,None,None,None,None,None,None,None,,,,,,,,,,,,,,,,,,,,,,,,,,,,,,,AU06EL20,1,0xC010,G:\Experimente\CoScience\Tasks\Logfiles\,2022_Mar_01_1148,Flanker,2020.1.3,59.94834174175183,
SSS SSS,SSSHSSS,0,H,,,,,,,,,0,0,0,0,13,3,159,6,,,,,,,0.9468377908994214,402.9301890050792,None,2,,,,,,,,,,,,,104,100,109,402.62993194976843,402.73001724592723,402.71333577981386,402.9135081223885,4,0,0.20059444769867696,402.71333577981386,None,None,None,False,None,None,None,None,None,None,None,None,None,None,None,None,,,,,,,,,,,,,,,,,,,,,,,,,,,,,,,AU06EL20,1,0xC010,G:\Experimente\CoScience\Tasks\Logfiles\,2022_Mar_01_1148,Flanker,2020.1.3,59.94834174175183,
SHH HHS,SHHHHHS,20,H,,,,,,,,,0,0,0,0,13,4,160,8,,,,,,,0.9197933240906755,404.1979603016971,None,2,,,,,,,,,,,,,124,120,127,403.8810066113274,403.9810916157712,403.96441131649954,404.1645822005248,2,1,0.21548743660969194,403.96441131649954,None,None,None,False,None,None,None,None,None,None,None,None,None,None,None,None,,,,,,,,,,,,,,,,,,,,,,,,,,,,,,,AU06EL20,1,0xC010,G:\Experimente\CoScience\Tasks\Logfiles\,2022_Mar_01_1148,Flanker,2020.1.3,59.94834174175183,
HHH HHH,HHHSHHH,0,S,,,,,,,,,0,0,0,0,13,5,161,0,,,,,,,0.9074898208864595,405.38229451327607,None,4,,,,,,,,,,,,,104,100,109,405.13208010604103,405.2321662773302,405.21548685318885,None,2,0,0.13939183023830992,405.21548685318885,None,None,None,False,None,None,None,None,None,None,None,None,None,None,None,None,,,,,,,,,,,,,,,,,,,,,,,,,,,,,,,AU06EL20,1,0xC010,G:\Experimente\CoScience\Tasks\Logfiles\,2022_Mar_01_1148,Flanker,2020.1.3,59.94834174175183,
HHS SHH,HHSSSHH,10,S,,,,,,,,,0,0,0,0,13,6,162,1,,,,,,,0.8179439655734491,406.65005268292043,None,4,,,,,,,,,,,,,114,110,117,406.29974772874084,406.3998341917413,406.38315535102265,406.5833262350443,4,1,0.24172096371694352,406.38315535102265,None,None,None,False,None,None,None,None,None,None,None,None,None,None,None,None,,,,,,,,,,,,,,,,,,,,,,,,,,,,,,,AU06EL20,1,0xC010,G:\Experimente\CoScience\Tasks\Logfiles\,2022_Mar_01_1148,Flanker,2020.1.3,59.94834174175183,
HHS SHH,HHSSSHH,10,S,,,,,,,,,0,0,0,0,13,7,163,1,,,,,,,0.9643436332651263,407.7843562065482,None,4,,,,,,,,,,,,,114,110,117,407.46741797683535,407.56750356470184,407.55082472398317,407.7509938577441,4,1,0.21401400677132187,407.55082472398317,None,None,None,False,None,None,None,None,None,None,None,None,None,None,None,None,,,,,,,,,,,,,,,,,,,,,,,,,,,,,,,AU06EL20,1,0xC010,G:\Experimente\CoScience\Tasks\Logfiles\,2022_Mar_01_1148,Flanker,2020.1.3,59.94834174175183,
SSS SSS,SSSSSSS,30,S,,,,,,,,,0,0,0,0,13,8,164,3,,,,,,,0.8893059058914021,409.05211262593184,None,4,,,,,,,,,,,,,134,130,137,408.75185411206803,408.8519405750649,408.8352605675045,409.0354329100792,4,1,0.18560694457846694,408.8352605675045,None,None,None,False,None,None,None,None,None,None,None,None,None,None,None,None,,,,,,,,,,,,,,,,,,,,,,,,,,,,,,,AU06EL20,1,0xC010,G:\Experimente\CoScience\Tasks\Logfiles\,2022_Mar_01_1148,Flanker,2020.1.3,59.94834174175183,
HHS SHH,HHSSSHH,10,S,,,,,,,,,0,0,0,0,13,9,165,1,,,,,,,0.8095403607178829,410.31986846189284,None,4,,,,,,,,,,,,,114,110,117,409.95288816751963,410.05297142170275,410.0362987069075,410.23646346500936,4,1,0.23454255122851464,410.0362987069075,None,None,None,False,None,None,None,None,None,None,None,None,None,None,None,None,,,,,,,,,,,,,,,,,,,,,,,,,,,,,,,AU06EL20,1,0xC010,G:\Experimente\CoScience\Tasks\Logfiles\,2022_Mar_01_1148,Flanker,2020.1.3,59.94834174175183,
SSS SSS,SSSHSSS,0,H,,,,,,,,,0,0,0,0,13,10,166,6,,,,,,,0.8311665521521995,411.43749343651325,None,2,,,,,,,,,,,,,104,100,109,411.1372369646251,411.23734822301594,411.22064400348063,411.42081430408325,4,0,0.189152977662161,411.22064400348063,None,None,None,False,None,None,None,None,None,None,None,None,None,None,None,None,,,,,,,,,,,,,,,,,,,,,,,,,,,,,,,AU06EL20,1,0xC010,G:\Experimente\CoScience\Tasks\Logfiles\,2022_Mar_01_1148,Flanker,2020.1.3,59.94834174175183,
HHH HHH,HHHHHHH,30,H,,,,,,,,,0,0,0,0,13,11,167,9,,,,,,,0.9917951495645452,412.755293379103,None,2,,,,,,,,,,,,,134,130,137,412.2715445722006,412.3716292849367,412.3549501525067,412.555120161398,2,1,0.374847727107408,412.3549501525067,None,None,None,False,None,None,None,None,None,None,None,None,None,None,None,None,,,,,,,,,,,,,,,,,,,,,,,,,,,,,,,AU06EL20,1,0xC010,G:\Experimente\CoScience\Tasks\Logfiles\,2022_Mar_01_1148,Flanker,2020.1.3,59.94834174175183,
HSS SSH,HSSSSSH,20,S,,,,,,,,,0,0,0,0,14,0,168,2,,,,,,,0.7694338386430384,414.206542133501,None,4,,,,,,,,,,,,,124,120,127,413.75613088000864,413.8562374710327,413.83955571320803,414.0397289309167,4,1,0.3382188038958702,413.83955571320803,None,None,None,False,None,None,None,None,None,None,None,None,None,None,None,None,,,,,,,,,,,,,,,,,,,,,,,,,,,,,,,AU06EL20,1,0xC010,G:\Experimente\CoScience\Tasks\Logfiles\,2022_Mar_01_1148,Flanker,2020.1.3,59.94834174175183,
SSS SSS,SSSSSSS,30,S,,,,,,,,,0,0,0,0,14,1,169,5,,,,,,,0.7712628569816499,415.30749380990346,None,4,,,,,,,,,,,,,134,130,137,414.9905646232164,415.09063212503133,415.0739500754953,415.27412212635863,4,1,0.21180634155098232,415.0739500754953,None,None,None,False,None,None,None,None,None,None,None,None,None,None,None,None,,,,,,,,,,,,,,,,,,,,,,,,,,,,,,,AU06EL20,1,0xC010,G:\Experimente\CoScience\Tasks\Logfiles\,2022_Mar_01_1148,Flanker,2020.1.3,59.94834174175183,
HHS SHH,HHSSSHH,10,S,,,,,,,,,0,0,0,0,14,2,170,1,,,,,,,0.7662754255512256,416.40843002564907,None,4,,,,,,,,,,,,,114,110,117,416.09149237935526,416.1916013040627,416.1748967928197,416.3750670934187,4,1,0.216865477108513,416.1748967928197,None,None,None,False,None,None,None,None,None,None,None,None,None,None,None,None,,,,,,,,,,,,,,,,,,,,,,,,,,,,,,,AU06EL20,1,0xC010,G:\Experimente\CoScience\Tasks\Logfiles\,2022_Mar_01_1148,Flanker,2020.1.3,59.94834174175183,
SSS SSS,SSSSSSS,30,S,,,,,,,,,0,0,0,0,14,3,171,4,,,,,,,0.845979055206983,417.5093752844168,None,4,,,,,,,,,,,,,134,130,137,417.17575704714363,417.27584205158746,417.2591605854741,417.4593335114714,4,1,0.21856994168410893,417.2591605854741,None,None,None,False,None,None,None,None,None,None,None,None,None,None,None,None,,,,,,,,,,,,,,,,,,,,,,,,,,,,,,,AU06EL20,1,0xC010,G:\Experimente\CoScience\Tasks\Logfiles\,2022_Mar_01_1148,Flanker,2020.1.3,59.94834174175183,
HHS SHH,HHSSSHH,10,S,,,,,,,,,0,0,0,0,14,4,172,1,,,,,,,0.7673092907097279,418.6603628995563,None,4,,,,,,,,,,,,,114,110,117,418.36010671937584,418.46020514250813,418.4435114245516,418.6437021448892,4,1,0.19019788474906818,418.4435114245516,None,None,None,False,None,None,None,None,None,None,None,None,None,None,None,None,,,,,,,,,,,,,,,,,,,,,,,,,,,,,,,AU06EL20,1,0xC010,G:\Experimente\CoScience\Tasks\Logfiles\,2022_Mar_01_1148,Flanker,2020.1.3,59.94834174175183,
HHH HHH,HHHHHHH,30,H,,,,,,,,,0,0,0,0,14,5,173,9,,,,,,,0.8311160204418773,419.87807667086054,None,2,,,,,,,,,,,,,134,130,137,419.4277024646053,419.52777550891733,419.51109608477964,419.7112675522203,2,1,0.33859248506996664,419.51109608477964,None,None,None,False,None,None,None,None,None,None,None,None,None,None,None,None,,,,,,,,,,,,,,,,,,,,,,,,,,,,,,,AU06EL20,1,0xC010,G:\Experimente\CoScience\Tasks\Logfiles\,2022_Mar_01_1148,Flanker,2020.1.3,59.94834174175183,
SSS SSS,SSSSSSS,30,S,,,,,,,,,0,0,0,0,14,6,174,3,,,,,,,0.8661293775374825,420.97901988765625,None,4,,,,,,,,,,,,,134,130,139,420.7121266397062,420.81221164415,420.795531928301,None,2,0,0.16114235006534727,420.795531928301,None,None,None,False,None,None,None,None,None,None,None,None,None,None,None,None,,,,,,,,,,,,,,,,,,,,,,,,,,,,,,,AU06EL20,1,0xC010,G:\Experimente\CoScience\Tasks\Logfiles\,2022_Mar_01_1148,Flanker,2020.1.3,59.94834174175183,
HHH HHH,HHHHHHH,30,H,,,,,,,,,0,0,0,0,14,7,175,10,,,,,,,0.996814387259482,422.33018101221205,None,2,,,,,,,,,,,,,134,130,137,421.8464339555703,421.94651983514814,421.92984887061357,422.1300092530564,2,1,0.37781529823405435,421.92984887061357,None,None,None,False,None,None,None,None,None,None,None,None,None,None,None,None,,,,,,,,,,,,,,,,,,,,,,,,,,,,,,,AU06EL20,1,0xC010,G:\Experimente\CoScience\Tasks\Logfiles\,2022_Mar_01_1148,Flanker,2020.1.3,59.94834174175183,
SSS SSS,SSSHSSS,0,H,,,,,,,,,0,0,0,0,14,8,176,6,,,,,,,0.8847122524234314,423.8815138959235,None,2,,,,,,,,,,,,,104,100,107,423.33106314482757,423.43112802124415,423.4144625992103,423.61461714744473,2,1,0.43919031661062036,423.4144625992103,None,None,None,False,None,None,None,None,None,None,None,None,None,None,None,None,,,,,,,,,,,,,,,,,,,,,,,,,,,,,,,AU06EL20,1,0xC010,G:\Experimente\CoScience\Tasks\Logfiles\,2022_Mar_01_1148,Flanker,2020.1.3,59.94834174175183,
SSS SSS,SSSSSSS,30,S,,,,,,,,,0,0,0,0,14,9,177,5,,,,,,,0.878869012863133,425.1159065079464,None,4,,,,,,,,,,,,,134,130,137,424.7656073879789,424.8656921007114,424.84900975946766,425.0491829771727,4,1,0.24260863883318962,424.84900975946766,None,None,None,False,None,None,None,None,None,None,None,None,None,None,None,None,,,,,,,,,,,,,,,,,,,,,,,,,,,,,,,AU06EL20,1,0xC010,G:\Experimente\CoScience\Tasks\Logfiles\,2022_Mar_01_1148,Flanker,2020.1.3,59.94834174175183,
HHH HHH,HHHHHHH,30,H,,,,,,,,,0,0,0,0,14,10,178,11,,,,,,,0.9697072572960412,426.46707084131594,None,2,,,,,,,,,,,,,134,130,137,426.0000011668435,426.1001278858912,426.0834038300436,426.28357617261827,2,1,0.36223883157072123,426.0834038300436,None,None,None,False,None,None,None,None,None,None,None,None,None,None,None,None,,,,,,,,,,,,,,,,,,,,,,,,,,,,,,,AU06EL20,1,0xC010,G:\Experimente\CoScience\Tasks\Logfiles\,2022_Mar_01_1148,Flanker,2020.1.3,59.94834174175183,
SSH HSS,SSHHHSS,10,H,,,,,,,,,0,0,0,0,14,11,179,7,,,,,,,0.8240991122561776,427.76821411318997,None,2,,,,,,,,,,,,,114,110,117,427.4512405865007,427.5513311334489,427.5346517093076,427.7348220099102,2,1,0.2149005150422454,427.5346517093076,None,None,None,False,None,None,None,None,None,None,None,None,None,None,None,None,,,,,,,,,,,,,,,,,,,,,,,,,,,,,,,AU06EL20,1,0xC010,G:\Experimente\CoScience\Tasks\Logfiles\,2022_Mar_01_1148,Flanker,2020.1.3,59.94834174175183,
HHS SHH,HHSSSHH,10,S,,,,,,,,,0,0,0,0,15,0,180,1,,,,,,,0.9784090741417802,428.9358548985201,None,4,,,,,,,,,,,,,114,110,119,428.6022509550621,428.7023210822681,428.6856407829964,428.8858122504407,2,0,0.22290563514616224,428.6856407829964,None,None,None,False,None,None,None,None,None,None,None,None,None,None,None,None,,,,,,,,,,,,,,,,,,,,,,,,,,,,,,,AU06EL20,1,0xC010,G:\Experimente\CoScience\Tasks\Logfiles\,2022_Mar_01_1148,Flanker,2020.1.3,59.94834174175183,
SHH HHS,SHHHHHS,20,H,,,,,,,,,0,0,0,0,15,1,181,8,,,,,,,0.8541795406991844,430.3203760381966,None,2,,,,,,,,,,,,,124,120,127,429.9200336867307,430.02011927459716,430.0034392670368,430.20360840079775,2,1,0.2971173749792797,430.0034392670368,None,None,None,False,None,None,None,None,None,None,None,None,None,None,None,None,,,,,,,,,,,,,,,,,,,,,,,,,,,,,,,AU06EL20,1,0xC010,G:\Experimente\CoScience\Tasks\Logfiles\,2022_Mar_01_1148,Flanker,2020.1.3,59.94834174175183,
SSS SSS,SSSSSSS,30,S,,,,,,,,,0,0,0,0,15,2,182,4,,,,,,,0.8155142701639984,431.5380898095009,None,4,,,,,,,,,,,,,134,130,137,431.187788939269,431.2878742354278,431.2711939361561,431.4713861150467,4,1,0.23533979608328082,431.2711939361561,None,None,None,False,None,None,None,None,None,None,None,None,None,None,None,None,,,,,,,,,,,,,,,,,,,,,,,,,,,,,,,AU06EL20,1,0xC010,G:\Experimente\CoScience\Tasks\Logfiles\,2022_Mar_01_1148,Flanker,2020.1.3,59.94834174175183,
SSS SSS,SSSSSSS,30,S,,,,,,,,,0,0,0,0,15,3,183,3,,,,,,,0.8093671012164694,432.6724026678694,None,4,,,,,,,,,,,,,134,130,137,432.3554586039445,432.45554390009966,432.4388630174053,432.6390341931419,4,1,0.21667003106267657,432.4388630174053,None,None,None,False,None,None,None,None,None,None,None,None,None,None,None,None,,,,,,,,,,,,,,,,,,,,,,,,,,,,,,,AU06EL20,1,0xC010,G:\Experimente\CoScience\Tasks\Logfiles\,2022_Mar_01_1148,Flanker,2020.1.3,59.94834174175183,
HHH HHH,HHHSHHH,0,S,,,,,,,,,0,0,0,0,15,4,184,0,,,,,,,0.842062164856217,433.84006708175184,None,4,,,,,,,,,,,,,104,100,109,433.48976591980863,433.5898512159674,433.5731706249844,433.77334267584774,2,0,0.2503450935437286,433.5731706249844,None,None,None,False,None,None,None,None,None,None,None,None,None,None,None,None,,,,,,,,,,,,,,,,,,,,,,,,,,,,,,,AU06EL20,1,0xC010,G:\Experimente\CoScience\Tasks\Logfiles\,2022_Mar_01_1148,Flanker,2020.1.3,59.94834174175183,
SSS SSS,SSSSSSS,30,S,,,,,,,,,0,0,0,0,15,5,185,5,,,,,,,0.9154749139715086,435.0410976366784,None,4,,,,,,,,,,,,,134,130,137,434.69079705815784,434.790881770894,434.77420117991096,434.9743732307743,4,1,0.23529399753169855,434.77420117991096,None,None,None,False,None,None,None,None,None,None,None,None,None,None,None,None,,,,,,,,,,,,,,,,,,,,,,,,,,,,,,,AU06EL20,1,0xC010,G:\Experimente\CoScience\Tasks\Logfiles\,2022_Mar_01_1148,Flanker,2020.1.3,59.94834174175183,
SSS SSS,SSSSSSS,30,S,,,,,,,,,0,0,0,0,15,6,186,3,,,,,,,0.7518990476322791,436.20876496766687,None,4,,,,,,,,,,,,,134,130,137,435.9585709801704,436.05863614830196,436.0419558490303,None,4,1,0.14753201231360435,436.0419558490303,None,None,None,False,None,None,None,None,None,None,None,None,None,None,None,None,,,,,,,,,,,,,,,,,,,,,,,,,,,,,,,AU06EL20,1,0xC010,G:\Experimente\CoScience\Tasks\Logfiles\,2022_Mar_01_1148,Flanker,2020.1.3,59.94834174175183,
HHH HHH,HHHHHHH,30,H,,,,,,,,,0,0,0,0,15,7,187,11,,,,,,,0.9928786309007694,437.27634933618356,None,2,,,,,,,,,,,,,134,130,139,436.97609344771445,437.07617786873925,437.0594978611789,437.2596824555967,4,0,0.19596383489624714,437.0594978611789,None,None,None,False,None,None,None,None,None,None,None,None,None,None,None,None,,,,,,,,,,,,,,,,,,,,,,,,,,,,,,,AU06EL20,1,0xC010,G:\Experimente\CoScience\Tasks\Logfiles\,2022_Mar_01_1148,Flanker,2020.1.3,59.94834174175183,
SSS SSS,SSSSSSS,30,S,,,,,,,,,0,0,0,0,15,8,188,3,,,,,,,0.974685884218624,438.57746635410695,None,4,,,,,,,,,,,,,134,130,137,438.2772092987998,438.3772948866663,438.3606151708136,438.5607840128632,4,1,0.19982608218924724,438.3606151708136,None,None,None,False,None,None,None,None,None,None,None,None,None,None,None,None,,,,,,,,,,,,,,,,,,,,,,,,,,,,,,,AU06EL20,1,0xC010,G:\Experimente\CoScience\Tasks\Logfiles\,2022_Mar_01_1148,Flanker,2020.1.3,59.94834174175183,
SSS SSS,SSSSSSS,30,S,,,,,,,,,0,0,0,0,15,9,189,4,,,,,,,0.7774801172752098,439.8952665884117,None,4,,,,,,,,,,,,,134,130,137,439.56164572574016,439.6617581509763,439.64505072262364,439.84522219006794,4,1,0.22237647226575064,439.64505072262364,None,None,None,False,None,None,None,None,None,None,None,None,None,None,None,None,,,,,,,,,,,,,,,,,,,,,,,,,,,,,,,AU06EL20,1,0xC010,G:\Experimente\CoScience\Tasks\Logfiles\,2022_Mar_01_1148,Flanker,2020.1.3,59.94834174175183,
HSS SSH,HSSSSSH,20,S,,,,,,,,,0,0,0,0,15,10,190,2,,,,,,,0.8664895656130347,441.0462550786815,None,4,,,,,,,,,,,,,124,120,127,440.6792718672059,440.7793574550724,440.7626777392197,440.96287225179367,4,1,0.25777291852864437,440.7626777392197,None,None,None,False,None,None,None,None,None,None,None,None,None,None,None,None,,,,,,,,,,,,,,,,,,,,,,,,,,,,,,,AU06EL20,1,0xC010,G:\Experimente\CoScience\Tasks\Logfiles\,2022_Mar_01_1148,Flanker,2020.1.3,59.94834174175183,
SSS SSS,SSSHSSS,0,H,,,,,,,,,0,0,0,0,15,11,191,6,,,,,,,0.809387034836385,496.27701472788067,None,2,,,,,,,,,,,,,104,100,109,441.91366652120087,442.01375210906735,441.997070642954,None,4,0,0.17832847538011265,441.997070642954,None,None,None,False,None,None,None,None,None,442.2139375786155,None,space,444.1989675781242,None,496.17692884830285,None,51.957495443479274,,,,,,,,,,,,,,,,,,,,,,,,,,,,,,AU06EL20,1,0xC010,G:\Experimente\CoScience\Tasks\Logfiles\,2022_Mar_01_1148,Flanker,2020.1.3,59.94834174175183,
SHH HHS,SHHHHHS,20,H,,,,,,,,,0,0,0,0,16,0,192,8,,,,,,,0.8096996642747634,499.1961890354196,None,2,,,,,,,,,,,,,124,120,0,497.09438439745463,497.1944696936098,497.1777893943381,497.3779596949407,None,0,,497.1777893943381,None,498.19532673912,None,False,None,None,None,None,None,None,None,None,None,None,None,None,,,,,,,,,,,,,,,,,,,,,,,,,,,,,,,AU06EL20,1,0xC010,G:\Experimente\CoScience\Tasks\Logfiles\,2022_Mar_01_1148,Flanker,2020.1.3,59.94834174175183,
SSS SSS,SSSSSSS,30,S,,,,,,,,,0,0,0,0,16,1,193,5,,,,,,,0.8044496162477411,500.3638642425922,None,4,,,,,,,,,,,,,134,130,137,500.01355753814823,500.1136410840427,500.09696136819366,500.29713487761,4,1,0.23869884272426134,500.09696136819366,None,None,None,False,None,None,None,None,None,None,None,None,None,None,None,None,,,,,,,,,,,,,,,,,,,,,,,,,,,,,,,AU06EL20,1,0xC010,G:\Experimente\CoScience\Tasks\Logfiles\,2022_Mar_01_1148,Flanker,2020.1.3,59.94834174175183,
SSS SSS,SSSSSSS,30,S,,,,,,,,,0,0,0,0,16,2,194,3,,,,,,,0.8417200809271145,501.49816484911753,None,4,,,,,,,,,,,,,134,130,137,501.18122866137674,501.28131220726755,501.26463161628817,501.46480425057416,4,1,0.21199624509972637,501.26463161628817,None,None,None,False,None,None,None,None,None,None,None,None,None,None,None,None,,,,,,,,,,,,,,,,,,,,,,,,,,,,,,,AU06EL20,1,0xC010,G:\Experimente\CoScience\Tasks\Logfiles\,2022_Mar_01_1148,Flanker,2020.1.3,59.94834174175183,
HHH HHH,HHHHHHH,30,H,,,,,,,,,0,0,0,0,16,3,195,9,,,,,,,0.9331280356355933,502.79928099191056,None,2,,,,,,,,,,,,,134,130,137,502.3488977426259,502.4489920818105,502.4322995306957,502.632472456693,2,1,0.3413188115955563,502.4322995306957,None,None,None,False,None,None,None,None,None,None,None,None,None,None,None,None,,,,,,,,,,,,,,,,,,,,,,,,,,,,,,,AU06EL20,1,0xC010,G:\Experimente\CoScience\Tasks\Logfiles\,2022_Mar_01_1148,Flanker,2020.1.3,59.94834174175183,
HHH HHH,HHHHHHH,30,H,,,,,,,,,0,0,0,0,16,4,196,10,,,,,,,0.7620341476021297,504.0336773961699,None,2,,,,,,,,,,,,,134,130,137,503.7334191740174,503.8335047618839,503.8168232957705,504.0169947632112,2,1,0.18684058836879558,503.8168232957705,None,None,None,False,None,None,None,None,None,None,None,None,None,None,None,None,,,,,,,,,,,,,,,,,,,,,,,,,,,,,,,AU06EL20,1,0xC010,G:\Experimente\CoScience\Tasks\Logfiles\,2022_Mar_01_1148,Flanker,2020.1.3,59.94834174175183,
HHH HHH,HHHHHHH,30,H,,,,,,,,,0,0,0,0,16,5,197,10,,,,,,,0.8278868924830864,505.11794089711657,None,2,,,,,,,,,,,,,134,130,137,504.80100237568877,504.90110517447647,504.8844064974419,505.0845782565975,2,1,0.21017947197833564,504.8844064974419,None,None,None,False,None,None,None,None,None,None,None,None,None,None,None,None,,,,,,,,,,,,,,,,,,,,,,,,,,,,,,,AU06EL20,1,0xC010,G:\Experimente\CoScience\Tasks\Logfiles\,2022_Mar_01_1148,Flanker,2020.1.3,59.94834174175183,
SSS SSS,SSSSSSS,30,S,,,,,,,,,0,0,0,0,16,6,198,4,,,,,,,0.7869013155020599,506.35233292571684,None,4,,,,,,,,,,,,,134,130,137,505.9519920328039,506.05207587040604,506.0353949877117,506.235565871737,4,1,0.28718375662720064,506.0353949877117,None,None,None,False,None,None,None,None,None,None,None,None,None,None,None,None,,,,,,,,,,,,,,,,,,,,,,,,,,,,,,,AU06EL20,1,0xC010,G:\Experimente\CoScience\Tasks\Logfiles\,2022_Mar_01_1148,Flanker,2020.1.3,59.94834174175183,
SSH HSS,SSHHHSS,10,H,,,,,,,,,0,0,0,0,16,7,199,7,,,,,,,0.9658717511355808,507.5700455301794,None,2,,,,,,,,,,,,,114,110,119,507.15302171259646,507.25310730046294,507.23642554263824,507.43659584324087,4,0,0.3131372416319209,507.23642554263824,None,None,None,False,None,None,None,None,None,None,None,None,None,None,None,None,,,,,,,,,,,,,,,,,,,,,,,,,,,,,,,AU06EL20,1,0xC010,G:\Experimente\CoScience\Tasks\Logfiles\,2022_Mar_01_1148,Flanker,2020.1.3,59.94834174175183,
SSS SSS,SSSSSSS,30,S,,,,,,,,,0,0,0,0,16,8,200,5,,,,,,,0.9909191159573365,508.8544816654121,None,4,,,,,,,,,,,,,134,130,137,508.53754518595997,508.63763077382646,508.6209495994244,508.8211207751574,4,1,0.21259075113994186,508.6209495994244,None,None,None,False,None,None,None,None,None,None,None,None,None,None,None,None,,,,,,,,,,,,,,,,,,,,,,,,,,,,,,,AU06EL20,1,0xC010,G:\Experimente\CoScience\Tasks\Logfiles\,2022_Mar_01_1148,Flanker,2020.1.3,59.94834174175183,
