"Onset","Duration","Participant","date_time","Order_Experimenter","Response_Mapping","Running","Trial","Event","ExperimenterPresence","Congruency","Target","Response","Accuracy","RT","RT_Condition","Post_Trial","Cutoff","TaskPerf"
147.794022326356,0.1,"AU06EL20","2022_Mar_01_1148","NotPresent_First","S_blue","Practice",0,"PracFlankers",NA,0,"H","2",1,0.864019724298487,NA,NA,NA,78.8194444444444
147.894097996066,0.2,"AU06EL20","2022_Mar_01_1148","NotPresent_First","S_blue","Practice",0,"PracTarget",NA,0,"H","2",1,0.864019724298487,NA,NA,NA,78.8194444444444
148.758117720365,0,"AU06EL20","2022_Mar_01_1148","NotPresent_First","S_blue","Practice",0,"PracResponse",NA,0,"H","2",1,0.864019724298487,NA,NA,NA,78.8194444444444
149.695647037272,0.1,"AU06EL20","2022_Mar_01_1148","NotPresent_First","S_blue","Practice",1,"PracFlankers",NA,1,"S","4",1,0.691068348940462,NA,NA,NA,78.8194444444444
149.779050867313,0.2,"AU06EL20","2022_Mar_01_1148","NotPresent_First","S_blue","Practice",1,"PracTarget",NA,1,"S","4",1,0.691068348940462,NA,NA,NA,78.8194444444444
150.470119216254,0,"AU06EL20","2022_Mar_01_1148","NotPresent_First","S_blue","Practice",1,"PracResponse",NA,1,"S","4",1,0.691068348940462,NA,NA,NA,78.8194444444444
151.31370286833,0.1,"AU06EL20","2022_Mar_01_1148","NotPresent_First","S_blue","Practice",2,"PracFlankers",NA,0.66,"S","4",1,0.625977813664576,NA,NA,NA,78.8194444444444
151.397107281795,0.2,"AU06EL20","2022_Mar_01_1148","NotPresent_First","S_blue","Practice",2,"PracTarget",NA,0.66,"S","4",1,0.625977813664576,NA,NA,NA,78.8194444444444
152.023085095459,0,"AU06EL20","2022_Mar_01_1148","NotPresent_First","S_blue","Practice",2,"PracResponse",NA,0.66,"S","4",1,0.625977813664576,NA,NA,NA,78.8194444444444
152.931760157944,0.1,"AU06EL20","2022_Mar_01_1148","NotPresent_First","S_blue","Practice",3,"PracFlankers",NA,0.66,"H","2",1,0.579912638533642,NA,NA,NA,78.8194444444444
153.015169530487,0.2,"AU06EL20","2022_Mar_01_1148","NotPresent_First","S_blue","Practice",3,"PracTarget",NA,0.66,"H","2",1,0.579912638533642,NA,NA,NA,78.8194444444444
153.59508216902,0,"AU06EL20","2022_Mar_01_1148","NotPresent_First","S_blue","Practice",3,"PracResponse",NA,0.66,"H","2",1,0.579912638533642,NA,NA,NA,78.8194444444444
154.46641186725,0.1,"AU06EL20","2022_Mar_01_1148","NotPresent_First","S_blue","Practice",4,"PracFlankers",NA,1,"H","2",1,0.405242504790294,NA,NA,NA,78.8194444444444
154.549818906109,0.2,"AU06EL20","2022_Mar_01_1148","NotPresent_First","S_blue","Practice",4,"PracTarget",NA,1,"H","2",1,0.405242504790294,NA,NA,NA,78.8194444444444
154.955061410899,0,"AU06EL20","2022_Mar_01_1148","NotPresent_First","S_blue","Practice",4,"PracResponse",NA,1,"H","2",1,0.405242504790294,NA,NA,NA,78.8194444444444
155.93472831249,0.1,"AU06EL20","2022_Mar_01_1148","NotPresent_First","S_blue","Practice",5,"PracFlankers",NA,0.33,"S","4",1,0.400932773560271,NA,NA,NA,78.8194444444444
156.018120474111,0.2,"AU06EL20","2022_Mar_01_1148","NotPresent_First","S_blue","Practice",5,"PracTarget",NA,0.33,"S","4",1,0.400932773560271,NA,NA,NA,78.8194444444444
156.419053247671,0,"AU06EL20","2022_Mar_01_1148","NotPresent_First","S_blue","Practice",5,"PracResponse",NA,0.33,"S","4",1,0.400932773560271,NA,NA,NA,78.8194444444444
157.285876018361,0.1,"AU06EL20","2022_Mar_01_1148","NotPresent_First","S_blue","Practice",6,"PracFlankers",NA,0,"S","4",1,0.449717857583892,NA,NA,NA,78.8194444444444
157.369300268141,0.2,"AU06EL20","2022_Mar_01_1148","NotPresent_First","S_blue","Practice",6,"PracTarget",NA,0,"S","4",1,0.449717857583892,NA,NA,NA,78.8194444444444
157.819018125725,0,"AU06EL20","2022_Mar_01_1148","NotPresent_First","S_blue","Practice",6,"PracResponse",NA,0,"S","4",1,0.449717857583892,NA,NA,NA,78.8194444444444
158.603676544373,0.1,"AU06EL20","2022_Mar_01_1148","NotPresent_First","S_blue","Practice",7,"PracFlankers",NA,0.33,"H","2",1,0.485934302123496,NA,NA,NA,78.8194444444444
158.687082124679,0.2,"AU06EL20","2022_Mar_01_1148","NotPresent_First","S_blue","Practice",7,"PracTarget",NA,0.33,"H","2",1,0.485934302123496,NA,NA,NA,78.8194444444444
159.173016426803,0,"AU06EL20","2022_Mar_01_1148","NotPresent_First","S_blue","Practice",7,"PracResponse",NA,0.33,"H","2",1,0.485934302123496,NA,NA,NA,78.8194444444444
160.171690310777,0.1,"AU06EL20","2022_Mar_01_1148","NotPresent_First","S_blue","Practice",8,"PracFlankers",NA,1,"H","2",1,0.25689428644182,NA,NA,NA,78.8194444444444
160.255093557398,0.2,"AU06EL20","2022_Mar_01_1148","NotPresent_First","S_blue","Practice",8,"PracTarget",NA,1,"H","2",1,0.25689428644182,NA,NA,NA,78.8194444444444
160.51198784384,0,"AU06EL20","2022_Mar_01_1148","NotPresent_First","S_blue","Practice",8,"PracResponse",NA,1,"H","2",1,0.25689428644182,NA,NA,NA,78.8194444444444
161.33936055887,0.1,"AU06EL20","2022_Mar_01_1148","NotPresent_First","S_blue","Practice",9,"PracFlankers",NA,1,"S","2",0,0.588200717840664,NA,NA,NA,78.8194444444444
161.422765264046,0.2,"AU06EL20","2022_Mar_01_1148","NotPresent_First","S_blue","Practice",9,"PracTarget",NA,1,"S","2",0,0.588200717840664,NA,NA,NA,78.8194444444444
162.010965981886,0,"AU06EL20","2022_Mar_01_1148","NotPresent_First","S_blue","Practice",9,"PracResponse",NA,1,"S","2",0,0.588200717840664,NA,NA,NA,78.8194444444444
162.840650502792,0.1,"AU06EL20","2022_Mar_01_1148","NotPresent_First","S_blue","Practice",10,"PracFlankers",NA,1,"H","2",1,0.605901128803453,NA,NA,NA,78.8194444444444
162.924054041125,0.2,"AU06EL20","2022_Mar_01_1148","NotPresent_First","S_blue","Practice",10,"PracTarget",NA,1,"H","2",1,0.605901128803453,NA,NA,NA,78.8194444444444
163.529955169928,0,"AU06EL20","2022_Mar_01_1148","NotPresent_First","S_blue","Practice",10,"PracResponse",NA,1,"H","2",1,0.605901128803453,NA,NA,NA,78.8194444444444
164.492068099238,0.1,"AU06EL20","2022_Mar_01_1148","NotPresent_First","S_blue","Practice",11,"PracFlankers",NA,1,"S","4",1,0.370447273906393,NA,NA,NA,78.8194444444444
164.575473096122,0.2,"AU06EL20","2022_Mar_01_1148","NotPresent_First","S_blue","Practice",11,"PracTarget",NA,1,"S","4",1,0.370447273906393,NA,NA,NA,78.8194444444444
164.945920370028,0,"AU06EL20","2022_Mar_01_1148","NotPresent_First","S_blue","Practice",11,"PracResponse",NA,1,"S","4",1,0.370447273906393,NA,NA,NA,78.8194444444444
165.97670720665,0.1,"AU06EL20","2022_Mar_01_1148","NotPresent_First","S_blue","Practice",12,"PracFlankers",NA,0.66,"S","4",1,0.392819720564148,NA,NA,NA,78.8194444444444
166.060081282219,0.2,"AU06EL20","2022_Mar_01_1148","NotPresent_First","S_blue","Practice",12,"PracTarget",NA,0.66,"S","4",1,0.392819720564148,NA,NA,NA,78.8194444444444
166.452901002784,0,"AU06EL20","2022_Mar_01_1148","NotPresent_First","S_blue","Practice",12,"PracResponse",NA,0.66,"S","4",1,0.392819720564148,NA,NA,NA,78.8194444444444
167.411243281907,0.1,"AU06EL20","2022_Mar_01_1148","NotPresent_First","S_blue","Practice",13,"PracFlankers",NA,1,"S","4",1,0.248236901614291,NA,NA,NA,78.8194444444444
167.494649445633,0.2,"AU06EL20","2022_Mar_01_1148","NotPresent_First","S_blue","Practice",13,"PracTarget",NA,1,"S","4",1,0.248236901614291,NA,NA,NA,78.8194444444444
167.742886347247,0,"AU06EL20","2022_Mar_01_1148","NotPresent_First","S_blue","Practice",13,"PracResponse",NA,1,"S","4",1,0.248236901614291,NA,NA,NA,78.8194444444444
168.645636477351,0.1,"AU06EL20","2022_Mar_01_1148","NotPresent_First","S_blue","Practice",14,"PracFlankers",NA,1,"H","2",1,0.392842182274762,NA,NA,NA,78.8194444444444
168.729041765946,0.2,"AU06EL20","2022_Mar_01_1148","NotPresent_First","S_blue","Practice",14,"PracTarget",NA,1,"H","2",1,0.392842182274762,NA,NA,NA,78.8194444444444
169.121883948221,0,"AU06EL20","2022_Mar_01_1148","NotPresent_First","S_blue","Practice",14,"PracResponse",NA,1,"H","2",1,0.392842182274762,NA,NA,NA,78.8194444444444
183.992168447658,0.1,"AU06EL20","2022_Mar_01_1148","NotPresent_First","S_blue","MainTask",0,"Flanker","absent",1,"S","4",1,0.442865285747757,"fast",NA,0.609916460514069,78.8194444444444
184.058878559743,0.2,"AU06EL20","2022_Mar_01_1148","NotPresent_First","S_blue","MainTask",0,"Target","absent",1,"S","4",1,0.442865285747757,"fast",NA,0.609916460514069,78.8194444444444
184.501743845491,0,"AU06EL20","2022_Mar_01_1148","NotPresent_First","S_blue","MainTask",0,"Response","absent",1,"S","4",1,0.442865285747757,"fast",NA,0.609916460514069,78.8194444444444
185.426717066466,0.1,"AU06EL20","2022_Mar_01_1148","NotPresent_First","S_blue","MainTask",1,"Flanker","absent",0.33,"S","4",1,0.351601607442717,"fast","post_correct",0.609916460514069,78.8194444444444
185.510129356113,0.2,"AU06EL20","2022_Mar_01_1148","NotPresent_First","S_blue","MainTask",1,"Target","absent",0.33,"S","4",1,0.351601607442717,"fast","post_correct",0.609916460514069,78.8194444444444
185.861730963556,0,"AU06EL20","2022_Mar_01_1148","NotPresent_First","S_blue","MainTask",1,"Response","absent",0.33,"S","4",1,0.351601607442717,"fast","post_correct",0.609916460514069,78.8194444444444
186.677816815129,0.1,"AU06EL20","2022_Mar_01_1148","NotPresent_First","S_blue","MainTask",2,"Flanker","absent",0.33,"H","2",1,0.34652759464916,"fast","post_correct",0.609916460514069,78.8194444444444
186.761171637803,0.2,"AU06EL20","2022_Mar_01_1148","NotPresent_First","S_blue","MainTask",2,"Target","absent",0.33,"H","2",1,0.34652759464916,"fast","post_correct",0.609916460514069,78.8194444444444
187.107699232452,0,"AU06EL20","2022_Mar_01_1148","NotPresent_First","S_blue","MainTask",2,"Response","absent",0.33,"H","2",1,0.34652759464916,"fast","post_correct",0.609916460514069,78.8194444444444
187.91218725715,0.1,"AU06EL20","2022_Mar_01_1148","NotPresent_First","S_blue","MainTask",3,"Flanker","absent",0,"S","4",1,0.33309053294397,"fast","post_correct",0.609916460514069,78.8194444444444
187.995592254036,0.2,"AU06EL20","2022_Mar_01_1148","NotPresent_First","S_blue","MainTask",3,"Target","absent",0,"S","4",1,0.33309053294397,"fast","post_correct",0.609916460514069,78.8194444444444
188.32868278698,0,"AU06EL20","2022_Mar_01_1148","NotPresent_First","S_blue","MainTask",3,"Response","absent",0,"S","4",1,0.33309053294397,"fast","post_correct",0.609916460514069,78.8194444444444
189.313392488337,0.1,"AU06EL20","2022_Mar_01_1148","NotPresent_First","S_blue","MainTask",4,"Flanker","absent",1,"S","2",0,0.249864646319111,"fast","post_correct",0.609916460514069,78.8194444444444
189.39679573496,0.2,"AU06EL20","2022_Mar_01_1148","NotPresent_First","S_blue","MainTask",4,"Target","absent",1,"S","2",0,0.249864646319111,"fast","post_correct",0.609916460514069,78.8194444444444
189.646660381279,0,"AU06EL20","2022_Mar_01_1148","NotPresent_First","S_blue","MainTask",4,"Response","absent",1,"S","2",0,0.249864646319111,"fast","post_correct",0.609916460514069,78.8194444444444
190.631190388955,0.1,"AU06EL20","2022_Mar_01_1148","NotPresent_First","S_blue","MainTask",5,"Flanker","absent",0.33,"S","4",1,0.508050335234657,"fast","post_error",0.609916460514069,78.8194444444444
190.714596552682,0.2,"AU06EL20","2022_Mar_01_1148","NotPresent_First","S_blue","MainTask",5,"Target","absent",0.33,"S","4",1,0.508050335234657,"fast","post_error",0.609916460514069,78.8194444444444
191.222646887916,0,"AU06EL20","2022_Mar_01_1148","NotPresent_First","S_blue","MainTask",5,"Response","absent",0.33,"S","4",1,0.508050335234657,"fast","post_error",0.609916460514069,78.8194444444444
192.082437101377,0.1,"AU06EL20","2022_Mar_01_1148","NotPresent_First","S_blue","MainTask",6,"Flanker","absent",0.66,"H","2",1,0.337796115349192,"fast","post_correct",0.609916460514069,78.8194444444444
192.165841514841,0.2,"AU06EL20","2022_Mar_01_1148","NotPresent_First","S_blue","MainTask",6,"Target","absent",0.66,"H","2",1,0.337796115349192,"fast","post_correct",0.609916460514069,78.8194444444444
192.50363763019,0,"AU06EL20","2022_Mar_01_1148","NotPresent_First","S_blue","MainTask",6,"Response","absent",0.66,"H","2",1,0.337796115349192,"fast","post_correct",0.609916460514069,78.8194444444444
193.333512054645,0.1,"AU06EL20","2022_Mar_01_1148","NotPresent_First","S_blue","MainTask",7,"Flanker","absent",1,"H","2",1,0.266694593086868,"fast","post_correct",0.609916460514069,78.8194444444444
193.416916759819,0.2,"AU06EL20","2022_Mar_01_1148","NotPresent_First","S_blue","MainTask",7,"Target","absent",1,"H","2",1,0.266694593086868,"fast","post_correct",0.609916460514069,78.8194444444444
193.683611352906,0,"AU06EL20","2022_Mar_01_1148","NotPresent_First","S_blue","MainTask",7,"Response","absent",1,"H","2",1,0.266694593086868,"fast","post_correct",0.609916460514069,78.8194444444444
194.617947898167,0.1,"AU06EL20","2022_Mar_01_1148","NotPresent_First","S_blue","MainTask",8,"Flanker","absent",1,"H","2",1,0.235258992268427,"fast","post_correct",0.609916460514069,78.8194444444444
194.701353478473,0.2,"AU06EL20","2022_Mar_01_1148","NotPresent_First","S_blue","MainTask",8,"Target","absent",1,"H","2",1,0.235258992268427,"fast","post_correct",0.609916460514069,78.8194444444444
194.936612470741,0,"AU06EL20","2022_Mar_01_1148","NotPresent_First","S_blue","MainTask",8,"Response","absent",1,"H","2",1,0.235258992268427,"fast","post_correct",0.609916460514069,78.8194444444444
195.802300195795,0.1,"AU06EL20","2022_Mar_01_1148","NotPresent_First","S_blue","MainTask",9,"Flanker","absent",1,"S","4",1,0.340877161866956,"fast","post_correct",0.609916460514069,78.8194444444444
195.88570460926,0.2,"AU06EL20","2022_Mar_01_1148","NotPresent_First","S_blue","MainTask",9,"Target","absent",1,"S","4",1,0.340877161866956,"fast","post_correct",0.609916460514069,78.8194444444444
196.226581771127,0,"AU06EL20","2022_Mar_01_1148","NotPresent_First","S_blue","MainTask",9,"Response","absent",1,"S","4",1,0.340877161866956,"fast","post_correct",0.609916460514069,78.8194444444444
197.203502801587,0.1,"AU06EL20","2022_Mar_01_1148","NotPresent_First","S_blue","MainTask",10,"Flanker","absent",1,"S","4",1,0.241649786352355,"fast","post_correct",0.609916460514069,78.8194444444444
197.286905756499,0.2,"AU06EL20","2022_Mar_01_1148","NotPresent_First","S_blue","MainTask",10,"Target","absent",1,"S","4",1,0.241649786352355,"fast","post_correct",0.609916460514069,78.8194444444444
197.528555542851,0,"AU06EL20","2022_Mar_01_1148","NotPresent_First","S_blue","MainTask",10,"Response","absent",1,"S","4",1,0.241649786352355,"fast","post_correct",0.609916460514069,78.8194444444444
198.421216864603,0.1,"AU06EL20","2022_Mar_01_1148","NotPresent_First","S_blue","MainTask",11,"Flanker","absent",0.66,"S","4",1,0.231918031677196,"fast","post_correct",0.609916460514069,78.8194444444444
198.504621569777,0.2,"AU06EL20","2022_Mar_01_1148","NotPresent_First","S_blue","MainTask",11,"Target","absent",0.66,"S","4",1,0.231918031677196,"fast","post_correct",0.609916460514069,78.8194444444444
198.736539601454,0,"AU06EL20","2022_Mar_01_1148","NotPresent_First","S_blue","MainTask",11,"Response","absent",0.66,"S","4",1,0.231918031677196,"fast","post_correct",0.609916460514069,78.8194444444444
199.705653583256,0.1,"AU06EL20","2022_Mar_01_1148","NotPresent_First","S_blue","MainTask",12,"Flanker","absent",0.33,"H","4",0,0.240471567560235,"fast","post_correct",0.609916460514069,78.8194444444444
199.789057121587,0.2,"AU06EL20","2022_Mar_01_1148","NotPresent_First","S_blue","MainTask",12,"Target","absent",0.33,"H","4",0,0.240471567560235,"fast","post_correct",0.609916460514069,78.8194444444444
200.029528689147,0,"AU06EL20","2022_Mar_01_1148","NotPresent_First","S_blue","MainTask",12,"Response","absent",0.33,"H","4",0,0.240471567560235,"fast","post_correct",0.609916460514069,78.8194444444444
200.839960315701,0.1,"AU06EL20","2022_Mar_01_1148","NotPresent_First","S_blue","MainTask",13,"Flanker","absent",0.33,"H","2",1,0.361144041986336,"fast","post_error",0.609916460514069,78.8194444444444
200.923364729164,0.2,"AU06EL20","2022_Mar_01_1148","NotPresent_First","S_blue","MainTask",13,"Target","absent",0.33,"H","2",1,0.361144041986336,"fast","post_error",0.609916460514069,78.8194444444444
201.28450877115,0,"AU06EL20","2022_Mar_01_1148","NotPresent_First","S_blue","MainTask",13,"Response","absent",0.33,"H","2",1,0.361144041986336,"fast","post_error",0.609916460514069,78.8194444444444
202.25784642958,0.1,"AU06EL20","2022_Mar_01_1148","NotPresent_First","S_blue","MainTask",14,"Flanker","absent",0.66,"S","4",1,0.320260812542983,"fast","post_correct",0.609916460514069,78.8194444444444
202.341247634227,0.2,"AU06EL20","2022_Mar_01_1148","NotPresent_First","S_blue","MainTask",14,"Target","absent",0.66,"S","4",1,0.320260812542983,"fast","post_correct",0.609916460514069,78.8194444444444
202.66150844677,0,"AU06EL20","2022_Mar_01_1148","NotPresent_First","S_blue","MainTask",14,"Response","absent",0.66,"S","4",1,0.320260812542983,"fast","post_correct",0.609916460514069,78.8194444444444
203.625696896434,0.1,"AU06EL20","2022_Mar_01_1148","NotPresent_First","S_blue","MainTask",15,"Flanker","absent",0.33,"H","4",0,0.269390581717744,"fast","post_correct",0.609916460514069,78.8194444444444
203.709090808319,0.2,"AU06EL20","2022_Mar_01_1148","NotPresent_First","S_blue","MainTask",15,"Target","absent",0.33,"H","4",0,0.269390581717744,"fast","post_correct",0.609916460514069,78.8194444444444
203.978481390037,0,"AU06EL20","2022_Mar_01_1148","NotPresent_First","S_blue","MainTask",15,"Response","absent",0.33,"H","4",0,0.269390581717744,"fast","post_correct",0.609916460514069,78.8194444444444
204.943485462314,0.1,"AU06EL20","2022_Mar_01_1148","NotPresent_First","S_blue","MainTask",16,"Flanker","absent",1,"S","4",1,0.405568928863431,"fast","post_error",0.609916460514069,78.8194444444444
205.026890459199,0.2,"AU06EL20","2022_Mar_01_1148","NotPresent_First","S_blue","MainTask",16,"Target","absent",1,"S","4",1,0.405568928863431,"fast","post_error",0.609916460514069,78.8194444444444
205.432459388063,0,"AU06EL20","2022_Mar_01_1148","NotPresent_First","S_blue","MainTask",16,"Response","absent",1,"S","4",1,0.405568928863431,"fast","post_error",0.609916460514069,78.8194444444444
206.411413057429,0.1,"AU06EL20","2022_Mar_01_1148","NotPresent_First","S_blue","MainTask",17,"Flanker","absent",0,"S","4",1,0.422614157994758,"fast","post_correct",0.609916460514069,78.8194444444444
206.494852767866,0.2,"AU06EL20","2022_Mar_01_1148","NotPresent_First","S_blue","MainTask",17,"Target","absent",0,"S","4",1,0.422614157994758,"fast","post_correct",0.609916460514069,78.8194444444444
206.917466925861,0,"AU06EL20","2022_Mar_01_1148","NotPresent_First","S_blue","MainTask",17,"Response","absent",0,"S","4",1,0.422614157994758,"fast","post_correct",0.609916460514069,78.8194444444444
207.812617413485,0.1,"AU06EL20","2022_Mar_01_1148","NotPresent_First","S_blue","MainTask",18,"Flanker","absent",0,"S","4",1,0.456421365344795,"fast","post_correct",0.609916460514069,78.8194444444444
207.896020951817,0.2,"AU06EL20","2022_Mar_01_1148","NotPresent_First","S_blue","MainTask",18,"Target","absent",0,"S","4",1,0.456421365344795,"fast","post_correct",0.609916460514069,78.8194444444444
208.352442317162,0,"AU06EL20","2022_Mar_01_1148","NotPresent_First","S_blue","MainTask",18,"Response","absent",0,"S","4",1,0.456421365344795,"fast","post_correct",0.609916460514069,78.8194444444444
209.263863542486,0.1,"AU06EL20","2022_Mar_01_1148","NotPresent_First","S_blue","MainTask",19,"Flanker","absent",1,"H","2",1,0.269139710670061,"fast","post_correct",0.609916460514069,78.8194444444444
209.347266789107,0.2,"AU06EL20","2022_Mar_01_1148","NotPresent_First","S_blue","MainTask",19,"Target","absent",1,"H","2",1,0.269139710670061,"fast","post_correct",0.609916460514069,78.8194444444444
209.616406499777,0,"AU06EL20","2022_Mar_01_1148","NotPresent_First","S_blue","MainTask",19,"Response","absent",1,"H","2",1,0.269139710670061,"fast","post_correct",0.609916460514069,78.8194444444444
210.61504654533,0.1,"AU06EL20","2022_Mar_01_1148","NotPresent_First","S_blue","MainTask",20,"Flanker","absent",0,"S","4",1,0.365985853206439,"fast","post_correct",0.609916460514069,78.8194444444444
210.698427913663,0.2,"AU06EL20","2022_Mar_01_1148","NotPresent_First","S_blue","MainTask",20,"Target","absent",0,"S","4",1,0.365985853206439,"fast","post_correct",0.609916460514069,78.8194444444444
211.06441376687,0,"AU06EL20","2022_Mar_01_1148","NotPresent_First","S_blue","MainTask",20,"Response","absent",0,"S","4",1,0.365985853206439,"fast","post_correct",0.609916460514069,78.8194444444444
211.982865799158,0.1,"AU06EL20","2022_Mar_01_1148","NotPresent_First","S_blue","MainTask",21,"Flanker","absent",0.33,"H","2",1,0.39010477075135,"fast","post_correct",0.609916460514069,78.8194444444444
212.06626875407,0.2,"AU06EL20","2022_Mar_01_1148","NotPresent_First","S_blue","MainTask",21,"Target","absent",0.33,"H","2",1,0.39010477075135,"fast","post_correct",0.609916460514069,78.8194444444444
212.456373524821,0,"AU06EL20","2022_Mar_01_1148","NotPresent_First","S_blue","MainTask",21,"Response","absent",0.33,"H","2",1,0.39010477075135,"fast","post_correct",0.609916460514069,78.8194444444444
213.367388105678,0.1,"AU06EL20","2022_Mar_01_1148","NotPresent_First","S_blue","MainTask",22,"Flanker","absent",1,"S","4",1,0.387561346722578,"fast","post_correct",0.609916460514069,78.8194444444444
213.450793102564,0.2,"AU06EL20","2022_Mar_01_1148","NotPresent_First","S_blue","MainTask",22,"Target","absent",1,"S","4",1,0.387561346722578,"fast","post_correct",0.609916460514069,78.8194444444444
213.838354449286,0,"AU06EL20","2022_Mar_01_1148","NotPresent_First","S_blue","MainTask",22,"Response","absent",1,"S","4",1,0.387561346722578,"fast","post_correct",0.609916460514069,78.8194444444444
214.735258408848,0.1,"AU06EL20","2022_Mar_01_1148","NotPresent_First","S_blue","MainTask",23,"Flanker","absent",1,"H","2",1,0.217721647488361,"fast","post_correct",0.609916460514069,78.8194444444444
214.818633359548,0.2,"AU06EL20","2022_Mar_01_1148","NotPresent_First","S_blue","MainTask",23,"Target","absent",1,"H","2",1,0.217721647488361,"fast","post_correct",0.609916460514069,78.8194444444444
215.036355007036,0,"AU06EL20","2022_Mar_01_1148","NotPresent_First","S_blue","MainTask",23,"Response","absent",1,"H","2",1,0.217721647488361,"fast","post_correct",0.609916460514069,78.8194444444444
215.836174204856,0.1,"AU06EL20","2022_Mar_01_1148","NotPresent_First","S_blue","MainTask",24,"Flanker","absent",0.66,"H","2",1,0.559767693408503,"fast","post_correct",0.609916460514069,78.8194444444444
215.919546821873,0.2,"AU06EL20","2022_Mar_01_1148","NotPresent_First","S_blue","MainTask",24,"Target","absent",0.66,"H","2",1,0.559767693408503,"fast","post_correct",0.609916460514069,78.8194444444444
216.479314515282,0,"AU06EL20","2022_Mar_01_1148","NotPresent_First","S_blue","MainTask",24,"Response","absent",0.66,"H","2",1,0.559767693408503,"fast","post_correct",0.609916460514069,78.8194444444444
217.487594426695,0.1,"AU06EL20","2022_Mar_01_1148","NotPresent_First","S_blue","MainTask",25,"Flanker","absent",0.33,"H","2",1,0.339300466503119,"fast","post_correct",0.609916460514069,78.8194444444444
217.570998548448,0.2,"AU06EL20","2022_Mar_01_1148","NotPresent_First","S_blue","MainTask",25,"Target","absent",0.33,"H","2",1,0.339300466503119,"fast","post_correct",0.609916460514069,78.8194444444444
217.910299014951,0,"AU06EL20","2022_Mar_01_1148","NotPresent_First","S_blue","MainTask",25,"Response","absent",0.33,"H","2",1,0.339300466503119,"fast","post_correct",0.609916460514069,78.8194444444444
218.738668213122,0.1,"AU06EL20","2022_Mar_01_1148","NotPresent_First","S_blue","MainTask",26,"Flanker","absent",1,"S","4",1,0.414206185663716,"fast","post_correct",0.609916460514069,78.8194444444444
218.822073210005,0.2,"AU06EL20","2022_Mar_01_1148","NotPresent_First","S_blue","MainTask",26,"Target","absent",1,"S","4",1,0.414206185663716,"fast","post_correct",0.609916460514069,78.8194444444444
219.236279395669,0,"AU06EL20","2022_Mar_01_1148","NotPresent_First","S_blue","MainTask",26,"Response","absent",1,"S","4",1,0.414206185663716,"fast","post_correct",0.609916460514069,78.8194444444444
220.173235209693,0.1,"AU06EL20","2022_Mar_01_1148","NotPresent_First","S_blue","MainTask",27,"Flanker","absent",1,"H","2",1,0.34762617646993,"fast","post_correct",0.609916460514069,78.8194444444444
220.256639623156,0.2,"AU06EL20","2022_Mar_01_1148","NotPresent_First","S_blue","MainTask",27,"Target","absent",1,"H","2",1,0.34762617646993,"fast","post_correct",0.609916460514069,78.8194444444444
220.604265799626,0,"AU06EL20","2022_Mar_01_1148","NotPresent_First","S_blue","MainTask",27,"Response","absent",1,"H","2",1,0.34762617646993,"fast","post_correct",0.609916460514069,78.8194444444444
221.524396334249,0.1,"AU06EL20","2022_Mar_01_1148","NotPresent_First","S_blue","MainTask",28,"Flanker","absent",1,"H","2",1,0.566449031170123,"fast","post_correct",0.609916460514069,78.8194444444444
221.607797830608,0.2,"AU06EL20","2022_Mar_01_1148","NotPresent_First","S_blue","MainTask",28,"Target","absent",1,"H","2",1,0.566449031170123,"fast","post_correct",0.609916460514069,78.8194444444444
222.174246861778,0,"AU06EL20","2022_Mar_01_1148","NotPresent_First","S_blue","MainTask",28,"Response","absent",1,"H","2",1,0.566449031170123,"fast","post_correct",0.609916460514069,78.8194444444444
223.109090399923,0.1,"AU06EL20","2022_Mar_01_1148","NotPresent_First","S_blue","MainTask",29,"Flanker","absent",1,"S","4",1,0.379762174246935,"fast","post_correct",0.609916460514069,78.8194444444444
223.192491896281,0.2,"AU06EL20","2022_Mar_01_1148","NotPresent_First","S_blue","MainTask",29,"Target","absent",1,"S","4",1,0.379762174246935,"fast","post_correct",0.609916460514069,78.8194444444444
223.572254070528,0,"AU06EL20","2022_Mar_01_1148","NotPresent_First","S_blue","MainTask",29,"Response","absent",1,"S","4",1,0.379762174246935,"fast","post_correct",0.609916460514069,78.8194444444444
224.493612414733,0.1,"AU06EL20","2022_Mar_01_1148","NotPresent_First","S_blue","MainTask",30,"Flanker","absent",0.66,"S","4",1,0.321194869628016,"fast","post_correct",0.609916460514069,78.8194444444444
224.577016536487,0.2,"AU06EL20","2022_Mar_01_1148","NotPresent_First","S_blue","MainTask",30,"Target","absent",0.66,"S","4",1,0.321194869628016,"fast","post_correct",0.609916460514069,78.8194444444444
224.898211406115,0,"AU06EL20","2022_Mar_01_1148","NotPresent_First","S_blue","MainTask",30,"Response","absent",0.66,"S","4",1,0.321194869628016,"fast","post_correct",0.609916460514069,78.8194444444444
225.844783165736,0.1,"AU06EL20","2022_Mar_01_1148","NotPresent_First","S_blue","MainTask",31,"Flanker","absent",1,"H","2",1,0.324005792204844,"fast","post_correct",0.609916460514069,78.8194444444444
225.928177077622,0.2,"AU06EL20","2022_Mar_01_1148","NotPresent_First","S_blue","MainTask",31,"Target","absent",1,"H","2",1,0.324005792204844,"fast","post_correct",0.609916460514069,78.8194444444444
226.252182869826,0,"AU06EL20","2022_Mar_01_1148","NotPresent_First","S_blue","MainTask",31,"Response","absent",1,"H","2",1,0.324005792204844,"fast","post_correct",0.609916460514069,78.8194444444444
227.245974686528,0.1,"AU06EL20","2022_Mar_01_1148","NotPresent_First","S_blue","MainTask",32,"Flanker","absent",1,"H","2",1,0.228777184503997,"fast","post_correct",0.609916460514069,78.8194444444444
227.329387559597,0.2,"AU06EL20","2022_Mar_01_1148","NotPresent_First","S_blue","MainTask",32,"Target","absent",1,"H","2",1,0.228777184503997,"fast","post_correct",0.609916460514069,78.8194444444444
227.558164744101,0,"AU06EL20","2022_Mar_01_1148","NotPresent_First","S_blue","MainTask",32,"Response","absent",1,"H","2",1,0.228777184503997,"fast","post_correct",0.609916460514069,78.8194444444444
228.530411988602,0.1,"AU06EL20","2022_Mar_01_1148","NotPresent_First","S_blue","MainTask",33,"Flanker","absent",0,"H","2",1,0.400335350414025,"fast","post_correct",0.609916460514069,78.8194444444444
228.613817277197,0.2,"AU06EL20","2022_Mar_01_1148","NotPresent_First","S_blue","MainTask",33,"Target","absent",0,"H","2",1,0.400335350414025,"fast","post_correct",0.609916460514069,78.8194444444444
229.014152627611,0,"AU06EL20","2022_Mar_01_1148","NotPresent_First","S_blue","MainTask",33,"Response","absent",0,"H","2",1,0.400335350414025,"fast","post_correct",0.609916460514069,78.8194444444444
229.864892813886,0.1,"AU06EL20","2022_Mar_01_1148","NotPresent_First","S_blue","MainTask",34,"Flanker","absent",0.66,"S","4",1,0.407832602501003,"fast","post_correct",0.609916460514069,78.8194444444444
229.94829751906,0.2,"AU06EL20","2022_Mar_01_1148","NotPresent_First","S_blue","MainTask",34,"Target","absent",0.66,"S","4",1,0.407832602501003,"fast","post_correct",0.609916460514069,78.8194444444444
230.356130121561,0,"AU06EL20","2022_Mar_01_1148","NotPresent_First","S_blue","MainTask",34,"Response","absent",0.66,"S","4",1,0.407832602501003,"fast","post_correct",0.609916460514069,78.8194444444444
231.31613981802,0.1,"AU06EL20","2022_Mar_01_1148","NotPresent_First","S_blue","MainTask",35,"Flanker","absent",0.66,"H","2",1,0.337589876011407,"fast","post_correct",0.609916460514069,78.8194444444444
231.399543648062,0.2,"AU06EL20","2022_Mar_01_1148","NotPresent_First","S_blue","MainTask",35,"Target","absent",0.66,"H","2",1,0.337589876011407,"fast","post_correct",0.609916460514069,78.8194444444444
231.737133524073,0,"AU06EL20","2022_Mar_01_1148","NotPresent_First","S_blue","MainTask",35,"Response","absent",0.66,"H","2",1,0.337589876011407,"fast","post_correct",0.609916460514069,78.8194444444444
232.600575953251,0.1,"AU06EL20","2022_Mar_01_1148","NotPresent_First","S_blue","MainTask",36,"Flanker","absent",0.33,"S","4",1,0.357120187067267,"fast","post_correct",0.609916460514069,78.8194444444444
232.683980075004,0.2,"AU06EL20","2022_Mar_01_1148","NotPresent_First","S_blue","MainTask",36,"Target","absent",0.33,"S","4",1,0.357120187067267,"fast","post_correct",0.609916460514069,78.8194444444444
233.041100262071,0,"AU06EL20","2022_Mar_01_1148","NotPresent_First","S_blue","MainTask",36,"Response","absent",0.33,"S","4",1,0.357120187067267,"fast","post_correct",0.609916460514069,78.8194444444444
233.834969732117,0.1,"AU06EL20","2022_Mar_01_1148","NotPresent_First","S_blue","MainTask",37,"Flanker","absent",0.66,"S","4",1,0.296720065251066,"fast","post_correct",0.609916460514069,78.8194444444444
233.918373562159,0.2,"AU06EL20","2022_Mar_01_1148","NotPresent_First","S_blue","MainTask",37,"Target","absent",0.66,"S","4",1,0.296720065251066,"fast","post_correct",0.609916460514069,78.8194444444444
234.21509362741,0,"AU06EL20","2022_Mar_01_1148","NotPresent_First","S_blue","MainTask",37,"Response","absent",0.66,"S","4",1,0.296720065251066,"fast","post_correct",0.609916460514069,78.8194444444444
235.152767341024,0.1,"AU06EL20","2022_Mar_01_1148","NotPresent_First","S_blue","MainTask",38,"Flanker","absent",0.33,"H","2",1,0.346908276878821,"fast","post_correct",0.609916460514069,78.8194444444444
235.236173213039,0.2,"AU06EL20","2022_Mar_01_1148","NotPresent_First","S_blue","MainTask",38,"Target","absent",0.33,"H","2",1,0.346908276878821,"fast","post_correct",0.609916460514069,78.8194444444444
235.583081489918,0,"AU06EL20","2022_Mar_01_1148","NotPresent_First","S_blue","MainTask",38,"Response","absent",0.33,"H","2",1,0.346908276878821,"fast","post_correct",0.609916460514069,78.8194444444444
236.604014636867,0.1,"AU06EL20","2022_Mar_01_1148","NotPresent_First","S_blue","MainTask",39,"Flanker","absent",0.66,"H","2",1,0.290637900898219,"fast","post_correct",0.609916460514069,78.8194444444444
236.687417591778,0.2,"AU06EL20","2022_Mar_01_1148","NotPresent_First","S_blue","MainTask",39,"Target","absent",0.66,"H","2",1,0.290637900898219,"fast","post_correct",0.609916460514069,78.8194444444444
236.978055492677,0,"AU06EL20","2022_Mar_01_1148","NotPresent_First","S_blue","MainTask",39,"Response","absent",0.66,"H","2",1,0.290637900898219,"fast","post_correct",0.609916460514069,78.8194444444444
237.955175178002,0.1,"AU06EL20","2022_Mar_01_1148","NotPresent_First","S_blue","MainTask",40,"Flanker","absent",1,"H","2",1,0.271452683386087,"fast","post_correct",0.609916460514069,78.8194444444444
238.038579299755,0.2,"AU06EL20","2022_Mar_01_1148","NotPresent_First","S_blue","MainTask",40,"Target","absent",1,"H","2",1,0.271452683386087,"fast","post_correct",0.609916460514069,78.8194444444444
238.310031983141,0,"AU06EL20","2022_Mar_01_1148","NotPresent_First","S_blue","MainTask",40,"Response","absent",1,"H","2",1,0.271452683386087,"fast","post_correct",0.609916460514069,78.8194444444444
239.139523975104,0.1,"AU06EL20","2022_Mar_01_1148","NotPresent_First","S_blue","MainTask",41,"Flanker","absent",1,"H","2",1,0.379114285180549,"fast","post_correct",0.609916460514069,78.8194444444444
239.222930430542,0.2,"AU06EL20","2022_Mar_01_1148","NotPresent_First","S_blue","MainTask",41,"Target","absent",1,"H","2",1,0.379114285180549,"fast","post_correct",0.609916460514069,78.8194444444444
239.602044715723,0,"AU06EL20","2022_Mar_01_1148","NotPresent_First","S_blue","MainTask",41,"Response","absent",1,"H","2",1,0.379114285180549,"fast","post_correct",0.609916460514069,78.8194444444444
240.557409213852,0.1,"AU06EL20","2022_Mar_01_1148","NotPresent_First","S_blue","MainTask",42,"Flanker","absent",1,"H","2",1,0.301213574106441,"fast","post_correct",0.609916460514069,78.8194444444444
240.640814210736,0.2,"AU06EL20","2022_Mar_01_1148","NotPresent_First","S_blue","MainTask",42,"Target","absent",1,"H","2",1,0.301213574106441,"fast","post_correct",0.609916460514069,78.8194444444444
240.942027784842,0,"AU06EL20","2022_Mar_01_1148","NotPresent_First","S_blue","MainTask",42,"Response","absent",1,"H","2",1,0.301213574106441,"fast","post_correct",0.609916460514069,78.8194444444444
241.74176092806,0.1,"AU06EL20","2022_Mar_01_1148","NotPresent_First","S_blue","MainTask",43,"Flanker","absent",0.66,"H","2",1,0.281823284101847,"fast","post_correct",0.609916460514069,78.8194444444444
241.82516388297,0.2,"AU06EL20","2022_Mar_01_1148","NotPresent_First","S_blue","MainTask",43,"Target","absent",0.66,"H","2",1,0.281823284101847,"fast","post_correct",0.609916460514069,78.8194444444444
242.106987167072,0,"AU06EL20","2022_Mar_01_1148","NotPresent_First","S_blue","MainTask",43,"Response","absent",0.66,"H","2",1,0.281823284101847,"fast","post_correct",0.609916460514069,78.8194444444444
243.026203480924,0.1,"AU06EL20","2022_Mar_01_1148","NotPresent_First","S_blue","MainTask",44,"Flanker","absent",0.33,"S","4",1,0.326375940183425,"fast","post_correct",0.609916460514069,78.8194444444444
243.109600309914,0.2,"AU06EL20","2022_Mar_01_1148","NotPresent_First","S_blue","MainTask",44,"Target","absent",0.33,"S","4",1,0.326375940183425,"fast","post_correct",0.609916460514069,78.8194444444444
243.435976250097,0,"AU06EL20","2022_Mar_01_1148","NotPresent_First","S_blue","MainTask",44,"Response","absent",0.33,"S","4",1,0.326375940183425,"fast","post_correct",0.609916460514069,78.8194444444444
244.277271433139,0.1,"AU06EL20","2022_Mar_01_1148","NotPresent_First","S_blue","MainTask",45,"Flanker","absent",0.33,"H","4",0,0.182275610433862,"fast","post_correct",0.609916460514069,78.8194444444444
244.360675554892,0.2,"AU06EL20","2022_Mar_01_1148","NotPresent_First","S_blue","MainTask",45,"Target","absent",0.33,"H","4",0,0.182275610433862,"fast","post_correct",0.609916460514069,78.8194444444444
244.542951165326,0,"AU06EL20","2022_Mar_01_1148","NotPresent_First","S_blue","MainTask",45,"Response","absent",0.33,"H","4",0,0.182275610433862,"fast","post_correct",0.609916460514069,78.8194444444444
245.344854634814,0.1,"AU06EL20","2022_Mar_01_1148","NotPresent_First","S_blue","MainTask",46,"Flanker","absent",1,"H","2",1,0.361675830265085,"fast","post_error",0.609916460514069,78.8194444444444
245.428259339988,0.2,"AU06EL20","2022_Mar_01_1148","NotPresent_First","S_blue","MainTask",46,"Target","absent",1,"H","2",1,0.361675830265085,"fast","post_error",0.609916460514069,78.8194444444444
245.789935170253,0,"AU06EL20","2022_Mar_01_1148","NotPresent_First","S_blue","MainTask",46,"Response","absent",1,"H","2",1,0.361675830265085,"fast","post_error",0.609916460514069,78.8194444444444
246.612611054195,0.1,"AU06EL20","2022_Mar_01_1148","NotPresent_First","S_blue","MainTask",47,"Flanker","absent",0.33,"S","4",1,0.274907702792916,"fast","post_correct",0.609916460514069,78.8194444444444
246.696016051079,0.2,"AU06EL20","2022_Mar_01_1148","NotPresent_First","S_blue","MainTask",47,"Target","absent",0.33,"S","4",1,0.274907702792916,"fast","post_correct",0.609916460514069,78.8194444444444
246.970923753872,0,"AU06EL20","2022_Mar_01_1148","NotPresent_First","S_blue","MainTask",47,"Response","absent",0.33,"S","4",1,0.274907702792916,"fast","post_correct",0.609916460514069,78.8194444444444
247.780281593999,0.1,"AU06EL20","2022_Mar_01_1148","NotPresent_First","S_blue","MainTask",48,"Flanker","absent",1,"S","4",1,0.255221910027103,"fast","post_correct",0.609916460514069,78.8194444444444
247.863685715753,0.2,"AU06EL20","2022_Mar_01_1148","NotPresent_First","S_blue","MainTask",48,"Target","absent",1,"S","4",1,0.255221910027103,"fast","post_correct",0.609916460514069,78.8194444444444
248.11890762578,0,"AU06EL20","2022_Mar_01_1148","NotPresent_First","S_blue","MainTask",48,"Response","absent",1,"S","4",1,0.255221910027103,"fast","post_correct",0.609916460514069,78.8194444444444
249.131440384872,0.1,"AU06EL20","2022_Mar_01_1148","NotPresent_First","S_blue","MainTask",49,"Flanker","absent",1,"H","2",1,0.344043971277642,"fast","post_correct",0.609916460514069,78.8194444444444
249.214846548597,0.2,"AU06EL20","2022_Mar_01_1148","NotPresent_First","S_blue","MainTask",49,"Target","absent",1,"H","2",1,0.344043971277642,"fast","post_correct",0.609916460514069,78.8194444444444
249.558890519875,0,"AU06EL20","2022_Mar_01_1148","NotPresent_First","S_blue","MainTask",49,"Response","absent",1,"H","2",1,0.344043971277642,"fast","post_correct",0.609916460514069,78.8194444444444
250.349154156174,0.1,"AU06EL20","2022_Mar_01_1148","NotPresent_First","S_blue","MainTask",50,"Flanker","absent",1,"H","2",1,0.270334265251222,"fast","post_correct",0.609916460514069,78.8194444444444
250.432558569639,0.2,"AU06EL20","2022_Mar_01_1148","NotPresent_First","S_blue","MainTask",50,"Target","absent",1,"H","2",1,0.270334265251222,"fast","post_correct",0.609916460514069,78.8194444444444
250.70289283489,0,"AU06EL20","2022_Mar_01_1148","NotPresent_First","S_blue","MainTask",50,"Response","absent",1,"H","2",1,0.270334265251222,"fast","post_correct",0.609916460514069,78.8194444444444
251.666951473371,0.1,"AU06EL20","2022_Mar_01_1148","NotPresent_First","S_blue","MainTask",51,"Flanker","absent",1,"S","4",1,0.283490993146188,"fast","post_correct",0.609916460514069,78.8194444444444
251.750354719992,0.2,"AU06EL20","2022_Mar_01_1148","NotPresent_First","S_blue","MainTask",51,"Target","absent",1,"S","4",1,0.283490993146188,"fast","post_correct",0.609916460514069,78.8194444444444
252.033845713138,0,"AU06EL20","2022_Mar_01_1148","NotPresent_First","S_blue","MainTask",51,"Response","absent",1,"S","4",1,0.283490993146188,"fast","post_correct",0.609916460514069,78.8194444444444
252.901345543947,0.1,"AU06EL20","2022_Mar_01_1148","NotPresent_First","S_blue","MainTask",52,"Flanker","absent",1,"H","4",0,0.277105158142149,"fast","post_correct",0.609916460514069,78.8194444444444
252.984750249121,0.2,"AU06EL20","2022_Mar_01_1148","NotPresent_First","S_blue","MainTask",52,"Target","absent",1,"H","4",0,0.277105158142149,"fast","post_correct",0.609916460514069,78.8194444444444
253.261855407263,0,"AU06EL20","2022_Mar_01_1148","NotPresent_First","S_blue","MainTask",52,"Response","absent",1,"H","4",0,0.277105158142149,"fast","post_correct",0.609916460514069,78.8194444444444
254.052334325926,0.1,"AU06EL20","2022_Mar_01_1148","NotPresent_First","S_blue","MainTask",53,"Flanker","absent",0.66,"S","4",1,0.246075326656864,"fast","post_error",0.609916460514069,78.8194444444444
254.135740197944,0.2,"AU06EL20","2022_Mar_01_1148","NotPresent_First","S_blue","MainTask",53,"Target","absent",0.66,"S","4",1,0.246075326656864,"fast","post_error",0.609916460514069,78.8194444444444
254.381815524601,0,"AU06EL20","2022_Mar_01_1148","NotPresent_First","S_blue","MainTask",53,"Response","absent",0.66,"S","4",1,0.246075326656864,"fast","post_error",0.609916460514069,78.8194444444444
255.320089286755,0.1,"AU06EL20","2022_Mar_01_1148","NotPresent_First","S_blue","MainTask",54,"Flanker","absent",1,"H","2",1,0.254336568597864,"fast","post_correct",0.609916460514069,78.8194444444444
255.40349370022,0.2,"AU06EL20","2022_Mar_01_1148","NotPresent_First","S_blue","MainTask",54,"Target","absent",1,"H","2",1,0.254336568597864,"fast","post_correct",0.609916460514069,78.8194444444444
255.657830268818,0,"AU06EL20","2022_Mar_01_1148","NotPresent_First","S_blue","MainTask",54,"Response","absent",1,"H","2",1,0.254336568597864,"fast","post_correct",0.609916460514069,78.8194444444444
256.504452961095,0.1,"AU06EL20","2022_Mar_01_1148","NotPresent_First","S_blue","MainTask",55,"Flanker","absent",1,"H","2",1,0.262941737240908,"fast","post_correct",0.609916460514069,78.8194444444444
256.587844247586,0.2,"AU06EL20","2022_Mar_01_1148","NotPresent_First","S_blue","MainTask",55,"Target","absent",1,"H","2",1,0.262941737240908,"fast","post_correct",0.609916460514069,78.8194444444444
256.850785984827,0,"AU06EL20","2022_Mar_01_1148","NotPresent_First","S_blue","MainTask",55,"Response","absent",1,"H","2",1,0.262941737240908,"fast","post_correct",0.609916460514069,78.8194444444444
257.805567937046,0.1,"AU06EL20","2022_Mar_01_1148","NotPresent_First","S_blue","MainTask",56,"Flanker","absent",0,"H","2",1,0.442812194434737,"fast","post_correct",0.609916460514069,78.8194444444444
257.888960682089,0.2,"AU06EL20","2022_Mar_01_1148","NotPresent_First","S_blue","MainTask",56,"Target","absent",0,"H","2",1,0.442812194434737,"fast","post_correct",0.609916460514069,78.8194444444444
258.331772876523,0,"AU06EL20","2022_Mar_01_1148","NotPresent_First","S_blue","MainTask",56,"Response","absent",0,"H","2",1,0.442812194434737,"fast","post_correct",0.609916460514069,78.8194444444444
259.273506325451,0.1,"AU06EL20","2022_Mar_01_1148","NotPresent_First","S_blue","MainTask",57,"Flanker","absent",1,"S","4",1,0.317890081141741,"fast","post_correct",0.609916460514069,78.8194444444444
259.356888860626,0.2,"AU06EL20","2022_Mar_01_1148","NotPresent_First","S_blue","MainTask",57,"Target","absent",1,"S","4",1,0.317890081141741,"fast","post_correct",0.609916460514069,78.8194444444444
259.674778941768,0,"AU06EL20","2022_Mar_01_1148","NotPresent_First","S_blue","MainTask",57,"Response","absent",1,"S","4",1,0.317890081141741,"fast","post_correct",0.609916460514069,78.8194444444444
260.674688511506,0.1,"AU06EL20","2022_Mar_01_1148","NotPresent_First","S_blue","MainTask",58,"Flanker","absent",0,"H","4",0,0.210625789077312,"fast","post_correct",0.609916460514069,78.8194444444444
260.75811013589,0.2,"AU06EL20","2022_Mar_01_1148","NotPresent_First","S_blue","MainTask",58,"Target","absent",0,"H","4",0,0.210625789077312,"fast","post_correct",0.609916460514069,78.8194444444444
260.968735924967,0,"AU06EL20","2022_Mar_01_1148","NotPresent_First","S_blue","MainTask",58,"Response","absent",0,"H","4",0,0.210625789077312,"fast","post_correct",0.609916460514069,78.8194444444444
261.959124646739,0.1,"AU06EL20","2022_Mar_01_1148","NotPresent_First","S_blue","MainTask",59,"Flanker","absent",0.33,"S","4",1,0.235194524244434,"fast","post_error",0.609916460514069,78.8194444444444
262.042529643622,0.2,"AU06EL20","2022_Mar_01_1148","NotPresent_First","S_blue","MainTask",59,"Target","absent",0.33,"S","4",1,0.235194524244434,"fast","post_error",0.609916460514069,78.8194444444444
262.277724167867,0,"AU06EL20","2022_Mar_01_1148","NotPresent_First","S_blue","MainTask",59,"Response","absent",0.33,"S","4",1,0.235194524244434,"fast","post_error",0.609916460514069,78.8194444444444
263.226879899279,0.1,"AU06EL20","2022_Mar_01_1148","NotPresent_First","S_blue","MainTask",60,"Flanker","absent",1,"H","2",1,0.294435096742745,"fast","post_correct",0.609916460514069,78.8194444444444
263.310286063004,0.2,"AU06EL20","2022_Mar_01_1148","NotPresent_First","S_blue","MainTask",60,"Target","absent",1,"H","2",1,0.294435096742745,"fast","post_correct",0.609916460514069,78.8194444444444
263.604721159747,0,"AU06EL20","2022_Mar_01_1148","NotPresent_First","S_blue","MainTask",60,"Response","absent",1,"H","2",1,0.294435096742745,"fast","post_correct",0.609916460514069,78.8194444444444
264.61140366435,0.1,"AU06EL20","2022_Mar_01_1148","NotPresent_First","S_blue","MainTask",61,"Flanker","absent",0.33,"H","2",1,0.280867932146066,"fast","post_correct",0.609916460514069,78.8194444444444
264.694815370578,0.2,"AU06EL20","2022_Mar_01_1148","NotPresent_First","S_blue","MainTask",61,"Target","absent",0.33,"H","2",1,0.280867932146066,"fast","post_correct",0.609916460514069,78.8194444444444
264.975683302724,0,"AU06EL20","2022_Mar_01_1148","NotPresent_First","S_blue","MainTask",61,"Response","absent",0.33,"H","2",1,0.280867932146066,"fast","post_correct",0.609916460514069,78.8194444444444
265.912520390566,0.1,"AU06EL20","2022_Mar_01_1148","NotPresent_First","S_blue","MainTask",62,"Flanker","absent",0.66,"H","2",1,0.248741560813869,"fast","post_correct",0.609916460514069,78.8194444444444
265.995926846002,0.2,"AU06EL20","2022_Mar_01_1148","NotPresent_First","S_blue","MainTask",62,"Target","absent",0.66,"H","2",1,0.248741560813869,"fast","post_correct",0.609916460514069,78.8194444444444
266.244668406816,0,"AU06EL20","2022_Mar_01_1148","NotPresent_First","S_blue","MainTask",62,"Response","absent",0.66,"H","2",1,0.248741560813869,"fast","post_correct",0.609916460514069,78.8194444444444
267.246999173876,0.1,"AU06EL20","2022_Mar_01_1148","NotPresent_First","S_blue","MainTask",63,"Flanker","absent",0,"H","2",1,0.281255323716323,"fast","post_correct",0.609916460514069,78.8194444444444
267.330405337603,0.2,"AU06EL20","2022_Mar_01_1148","NotPresent_First","S_blue","MainTask",63,"Target","absent",0,"H","2",1,0.281255323716323,"fast","post_correct",0.609916460514069,78.8194444444444
267.61166066132,0,"AU06EL20","2022_Mar_01_1148","NotPresent_First","S_blue","MainTask",63,"Response","absent",0,"H","2",1,0.281255323716323,"fast","post_correct",0.609916460514069,78.8194444444444
268.598160590142,0.1,"AU06EL20","2022_Mar_01_1148","NotPresent_First","S_blue","MainTask",64,"Flanker","absent",0.66,"S","4",1,0.253069378095461,"fast","post_correct",0.609916460514069,78.8194444444444
268.681566462159,0.2,"AU06EL20","2022_Mar_01_1148","NotPresent_First","S_blue","MainTask",64,"Target","absent",0.66,"S","4",1,0.253069378095461,"fast","post_correct",0.609916460514069,78.8194444444444
268.934635840254,0,"AU06EL20","2022_Mar_01_1148","NotPresent_First","S_blue","MainTask",64,"Response","absent",0.66,"S","4",1,0.253069378095461,"fast","post_correct",0.609916460514069,78.8194444444444
269.732467030877,0.1,"AU06EL20","2022_Mar_01_1148","NotPresent_First","S_blue","MainTask",65,"Flanker","absent",1,"S","4",1,0.201758956096455,"fast","post_correct",0.609916460514069,78.8194444444444
269.815907908156,0.2,"AU06EL20","2022_Mar_01_1148","NotPresent_First","S_blue","MainTask",65,"Target","absent",1,"S","4",1,0.201758956096455,"fast","post_correct",0.609916460514069,78.8194444444444
270.017666864253,0,"AU06EL20","2022_Mar_01_1148","NotPresent_First","S_blue","MainTask",65,"Response","absent",1,"S","4",1,0.201758956096455,"fast","post_correct",0.609916460514069,78.8194444444444
270.916819036795,0.1,"AU06EL20","2022_Mar_01_1148","NotPresent_First","S_blue","MainTask",66,"Flanker","absent",1,"S","4",1,0.229380441860485,"fast","post_correct",0.609916460514069,78.8194444444444
271.000223450259,0.2,"AU06EL20","2022_Mar_01_1148","NotPresent_First","S_blue","MainTask",66,"Target","absent",1,"S","4",1,0.229380441860485,"fast","post_correct",0.609916460514069,78.8194444444444
271.229603892119,0,"AU06EL20","2022_Mar_01_1148","NotPresent_First","S_blue","MainTask",66,"Response","absent",1,"S","4",1,0.229380441860485,"fast","post_correct",0.609916460514069,78.8194444444444
272.134532516389,0.1,"AU06EL20","2022_Mar_01_1148","NotPresent_First","S_blue","MainTask",67,"Flanker","absent",0.66,"S","4",1,0.241655620560778,"fast","post_correct",0.609916460514069,78.8194444444444
272.217934596169,0.2,"AU06EL20","2022_Mar_01_1148","NotPresent_First","S_blue","MainTask",67,"Target","absent",0.66,"S","4",1,0.241655620560778,"fast","post_correct",0.609916460514069,78.8194444444444
272.459590216729,0,"AU06EL20","2022_Mar_01_1148","NotPresent_First","S_blue","MainTask",67,"Response","absent",0.66,"S","4",1,0.241655620560778,"fast","post_correct",0.609916460514069,78.8194444444444
273.352237536377,0.1,"AU06EL20","2022_Mar_01_1148","NotPresent_First","S_blue","MainTask",68,"Flanker","absent",0.66,"H","2",1,0.217955307613011,"fast","post_correct",0.609916460514069,78.8194444444444
273.435648075761,0.2,"AU06EL20","2022_Mar_01_1148","NotPresent_First","S_blue","MainTask",68,"Target","absent",0.66,"H","2",1,0.217955307613011,"fast","post_correct",0.609916460514069,78.8194444444444
273.653603383375,0,"AU06EL20","2022_Mar_01_1148","NotPresent_First","S_blue","MainTask",68,"Response","absent",0.66,"H","2",1,0.217955307613011,"fast","post_correct",0.609916460514069,78.8194444444444
274.486551269874,0.1,"AU06EL20","2022_Mar_01_1148","NotPresent_First","S_blue","MainTask",69,"Flanker","absent",0,"H","2",1,0.093606697208088,"fast","post_correct",0.609916460514069,78.8194444444444
274.569955099916,0.2,"AU06EL20","2022_Mar_01_1148","NotPresent_First","S_blue","MainTask",69,"Target","absent",0,"H","2",1,0.093606697208088,"fast","post_correct",0.609916460514069,78.8194444444444
274.663561797124,0,"AU06EL20","2022_Mar_01_1148","NotPresent_First","S_blue","MainTask",69,"Response","absent",0,"H","2",1,0.093606697208088,"fast","post_correct",0.609916460514069,78.8194444444444
275.570815354242,0.1,"AU06EL20","2022_Mar_01_1148","NotPresent_First","S_blue","MainTask",70,"Flanker","absent",0.66,"H","2",1,0.221328064651971,"fast","post_correct",0.609916460514069,78.8194444444444
275.654219767704,0.2,"AU06EL20","2022_Mar_01_1148","NotPresent_First","S_blue","MainTask",70,"Target","absent",0.66,"H","2",1,0.221328064651971,"fast","post_correct",0.609916460514069,78.8194444444444
275.875547832356,0,"AU06EL20","2022_Mar_01_1148","NotPresent_First","S_blue","MainTask",70,"Response","absent",0.66,"H","2",1,0.221328064651971,"fast","post_correct",0.609916460514069,78.8194444444444
276.771838324696,0.1,"AU06EL20","2022_Mar_01_1148","NotPresent_First","S_blue","MainTask",71,"Flanker","absent",0.33,"H","2",1,0.138283621970913,"fast","post_correct",0.609916460514069,78.8194444444444
276.855250614342,0.2,"AU06EL20","2022_Mar_01_1148","NotPresent_First","S_blue","MainTask",71,"Target","absent",0.33,"H","2",1,0.138283621970913,"fast","post_correct",0.609916460514069,78.8194444444444
276.993534236313,0,"AU06EL20","2022_Mar_01_1148","NotPresent_First","S_blue","MainTask",71,"Response","absent",0.33,"H","2",1,0.138283621970913,"fast","post_correct",0.609916460514069,78.8194444444444
277.889473800895,0.1,"AU06EL20","2022_Mar_01_1148","NotPresent_First","S_blue","MainTask",72,"Flanker","absent",0,"S","4",1,0.334662560937431,"fast","post_correct",0.609916460514069,78.8194444444444
277.972876755806,0.2,"AU06EL20","2022_Mar_01_1148","NotPresent_First","S_blue","MainTask",72,"Target","absent",0,"S","4",1,0.334662560937431,"fast","post_correct",0.609916460514069,78.8194444444444
278.307539316744,0,"AU06EL20","2022_Mar_01_1148","NotPresent_First","S_blue","MainTask",72,"Response","absent",0,"S","4",1,0.334662560937431,"fast","post_correct",0.609916460514069,78.8194444444444
279.107185821935,0.1,"AU06EL20","2022_Mar_01_1148","NotPresent_First","S_blue","MainTask",73,"Flanker","absent",0.66,"H","2",1,0.353932666210312,"fast","post_correct",0.609916460514069,78.8194444444444
279.190588193425,0.2,"AU06EL20","2022_Mar_01_1148","NotPresent_First","S_blue","MainTask",73,"Target","absent",0.66,"H","2",1,0.353932666210312,"fast","post_correct",0.609916460514069,78.8194444444444
279.544520859636,0,"AU06EL20","2022_Mar_01_1148","NotPresent_First","S_blue","MainTask",73,"Response","absent",0.66,"H","2",1,0.353932666210312,"fast","post_correct",0.609916460514069,78.8194444444444
280.491709587008,0.1,"AU06EL20","2022_Mar_01_1148","NotPresent_First","S_blue","MainTask",74,"Flanker","absent",0.66,"S","4",1,0.248377214375068,"fast","post_correct",0.609916460514069,78.8194444444444
280.575111666787,0.2,"AU06EL20","2022_Mar_01_1148","NotPresent_First","S_blue","MainTask",74,"Target","absent",0.66,"S","4",1,0.248377214375068,"fast","post_correct",0.609916460514069,78.8194444444444
280.823488881162,0,"AU06EL20","2022_Mar_01_1148","NotPresent_First","S_blue","MainTask",74,"Response","absent",0.66,"S","4",1,0.248377214375068,"fast","post_correct",0.609916460514069,78.8194444444444
281.642697493857,0.1,"AU06EL20","2022_Mar_01_1148","NotPresent_First","S_blue","MainTask",75,"Flanker","absent",1,"S","4",1,0.260372059266956,"fast","post_correct",0.609916460514069,78.8194444444444
281.726101907319,0.2,"AU06EL20","2022_Mar_01_1148","NotPresent_First","S_blue","MainTask",75,"Target","absent",1,"S","4",1,0.260372059266956,"fast","post_correct",0.609916460514069,78.8194444444444
281.986473966586,0,"AU06EL20","2022_Mar_01_1148","NotPresent_First","S_blue","MainTask",75,"Response","absent",1,"S","4",1,0.260372059266956,"fast","post_correct",0.609916460514069,78.8194444444444
282.810368033661,0.1,"AU06EL20","2022_Mar_01_1148","NotPresent_First","S_blue","MainTask",76,"Flanker","absent",1,"H","2",1,0.255692730806913,"fast","post_correct",0.609916460514069,78.8194444444444
282.893771571993,0.2,"AU06EL20","2022_Mar_01_1148","NotPresent_First","S_blue","MainTask",76,"Target","absent",1,"H","2",1,0.255692730806913,"fast","post_correct",0.609916460514069,78.8194444444444
283.1494643028,0,"AU06EL20","2022_Mar_01_1148","NotPresent_First","S_blue","MainTask",76,"Response","absent",1,"H","2",1,0.255692730806913,"fast","post_correct",0.609916460514069,78.8194444444444
283.978035364649,0.1,"AU06EL20","2022_Mar_01_1148","NotPresent_First","S_blue","MainTask",77,"Flanker","absent",1,"S","4",1,0.275977988691011,"fast","post_correct",0.609916460514069,78.8194444444444
284.061440653246,0.2,"AU06EL20","2022_Mar_01_1148","NotPresent_First","S_blue","MainTask",77,"Target","absent",1,"S","4",1,0.275977988691011,"fast","post_correct",0.609916460514069,78.8194444444444
284.337418641937,0,"AU06EL20","2022_Mar_01_1148","NotPresent_First","S_blue","MainTask",77,"Response","absent",1,"S","4",1,0.275977988691011,"fast","post_correct",0.609916460514069,78.8194444444444
285.362558254592,0.1,"AU06EL20","2022_Mar_01_1148","NotPresent_First","S_blue","MainTask",78,"Flanker","absent",1,"H","2",1,0.154487849673387,"fast","post_correct",0.609916460514069,78.8194444444444
285.445963543187,0.2,"AU06EL20","2022_Mar_01_1148","NotPresent_First","S_blue","MainTask",78,"Target","absent",1,"H","2",1,0.154487849673387,"fast","post_correct",0.609916460514069,78.8194444444444
285.60045139286,0,"AU06EL20","2022_Mar_01_1148","NotPresent_First","S_blue","MainTask",78,"Response","absent",1,"H","2",1,0.154487849673387,"fast","post_correct",0.609916460514069,78.8194444444444
286.613633207859,0.1,"AU06EL20","2022_Mar_01_1148","NotPresent_First","S_blue","MainTask",79,"Flanker","absent",1,"H","2",1,0.315359784086468,"fast","post_correct",0.609916460514069,78.8194444444444
286.697037621323,0.2,"AU06EL20","2022_Mar_01_1148","NotPresent_First","S_blue","MainTask",79,"Target","absent",1,"H","2",1,0.315359784086468,"fast","post_correct",0.609916460514069,78.8194444444444
287.01239740541,0,"AU06EL20","2022_Mar_01_1148","NotPresent_First","S_blue","MainTask",79,"Response","absent",1,"H","2",1,0.315359784086468,"fast","post_correct",0.609916460514069,78.8194444444444
287.981474631686,0.1,"AU06EL20","2022_Mar_01_1148","NotPresent_First","S_blue","MainTask",80,"Flanker","absent",0.66,"H","2",1,0.186495494821429,"fast","post_correct",0.609916460514069,78.8194444444444
288.06487846173,0.2,"AU06EL20","2022_Mar_01_1148","NotPresent_First","S_blue","MainTask",80,"Target","absent",0.66,"H","2",1,0.186495494821429,"fast","post_correct",0.609916460514069,78.8194444444444
288.251373956551,0,"AU06EL20","2022_Mar_01_1148","NotPresent_First","S_blue","MainTask",80,"Response","absent",0.66,"H","2",1,0.186495494821429,"fast","post_correct",0.609916460514069,78.8194444444444
289.082420473878,0.1,"AU06EL20","2022_Mar_01_1148","NotPresent_First","S_blue","MainTask",81,"Flanker","absent",1,"S","4",1,0.300579978857058,"fast","post_correct",0.609916460514069,78.8194444444444
289.165824012211,0.2,"AU06EL20","2022_Mar_01_1148","NotPresent_First","S_blue","MainTask",81,"Target","absent",1,"S","4",1,0.300579978857058,"fast","post_correct",0.609916460514069,78.8194444444444
289.466403991068,0,"AU06EL20","2022_Mar_01_1148","NotPresent_First","S_blue","MainTask",81,"Response","absent",1,"S","4",1,0.300579978857058,"fast","post_correct",0.609916460514069,78.8194444444444
290.416899257189,0.1,"AU06EL20","2022_Mar_01_1148","NotPresent_First","S_blue","MainTask",82,"Flanker","absent",0.33,"H","2",1,0.259045359818629,"fast","post_correct",0.609916460514069,78.8194444444444
290.500303962363,0.2,"AU06EL20","2022_Mar_01_1148","NotPresent_First","S_blue","MainTask",82,"Target","absent",0.33,"H","2",1,0.259045359818629,"fast","post_correct",0.609916460514069,78.8194444444444
290.759349322181,0,"AU06EL20","2022_Mar_01_1148","NotPresent_First","S_blue","MainTask",82,"Response","absent",0.33,"H","2",1,0.259045359818629,"fast","post_correct",0.609916460514069,78.8194444444444
291.734704158858,0.1,"AU06EL20","2022_Mar_01_1148","NotPresent_First","S_blue","MainTask",83,"Flanker","absent",0.66,"H","2",1,0.273239410325914,"fast","post_correct",0.609916460514069,78.8194444444444
291.81810186298,0.2,"AU06EL20","2022_Mar_01_1148","NotPresent_First","S_blue","MainTask",83,"Target","absent",0.66,"H","2",1,0.273239410325914,"fast","post_correct",0.609916460514069,78.8194444444444
292.091341273306,0,"AU06EL20","2022_Mar_01_1148","NotPresent_First","S_blue","MainTask",83,"Response","absent",0.66,"H","2",1,0.273239410325914,"fast","post_correct",0.609916460514069,78.8194444444444
293.052497100398,0.1,"AU06EL20","2022_Mar_01_1148","NotPresent_First","S_blue","MainTask",84,"Flanker","absent",0.33,"S","2",0,0.154428049016133,"fast","post_correct",0.609916460514069,78.8194444444444
293.13590093044,0.2,"AU06EL20","2022_Mar_01_1148","NotPresent_First","S_blue","MainTask",84,"Target","absent",0.33,"S","2",0,0.154428049016133,"fast","post_correct",0.609916460514069,78.8194444444444
293.290328979456,0,"AU06EL20","2022_Mar_01_1148","NotPresent_First","S_blue","MainTask",84,"Response","absent",0.33,"S","2",0,0.154428049016133,"fast","post_correct",0.609916460514069,78.8194444444444
294.186821335474,0.1,"AU06EL20","2022_Mar_01_1148","NotPresent_First","S_blue","MainTask",85,"Flanker","absent",1,"H","2",1,0.357108810358113,"fast","post_error",0.609916460514069,78.8194444444444
294.270207662885,0.2,"AU06EL20","2022_Mar_01_1148","NotPresent_First","S_blue","MainTask",85,"Target","absent",1,"H","2",1,0.357108810358113,"fast","post_error",0.609916460514069,78.8194444444444
294.627316473243,0,"AU06EL20","2022_Mar_01_1148","NotPresent_First","S_blue","MainTask",85,"Response","absent",1,"H","2",1,0.357108810358113,"fast","post_error",0.609916460514069,78.8194444444444
295.50460115004,0.1,"AU06EL20","2022_Mar_01_1148","NotPresent_First","S_blue","MainTask",86,"Flanker","absent",0.66,"S","4",1,0.263287705918628,"fast","post_correct",0.609916460514069,78.8194444444444
295.588004980082,0.2,"AU06EL20","2022_Mar_01_1148","NotPresent_First","S_blue","MainTask",86,"Target","absent",0.66,"S","4",1,0.263287705918628,"fast","post_correct",0.609916460514069,78.8194444444444
295.851292686,0,"AU06EL20","2022_Mar_01_1148","NotPresent_First","S_blue","MainTask",86,"Response","absent",0.66,"S","4",1,0.263287705918628,"fast","post_correct",0.609916460514069,78.8194444444444
296.655591098863,0.1,"AU06EL20","2022_Mar_01_1148","NotPresent_First","S_blue","MainTask",87,"Flanker","absent",0.33,"H","2",1,0.330280193787985,"fast","post_correct",0.609916460514069,78.8194444444444
296.738996970878,0.2,"AU06EL20","2022_Mar_01_1148","NotPresent_First","S_blue","MainTask",87,"Target","absent",0.33,"H","2",1,0.330280193787985,"fast","post_correct",0.609916460514069,78.8194444444444
297.069277164666,0,"AU06EL20","2022_Mar_01_1148","NotPresent_First","S_blue","MainTask",87,"Response","absent",0.33,"H","2",1,0.330280193787985,"fast","post_correct",0.609916460514069,78.8194444444444
297.889984294306,0.1,"AU06EL20","2022_Mar_01_1148","NotPresent_First","S_blue","MainTask",88,"Flanker","absent",1,"S","4",1,0.209877259880159,"fast","post_correct",0.609916460514069,78.8194444444444
297.973386082374,0.2,"AU06EL20","2022_Mar_01_1148","NotPresent_First","S_blue","MainTask",88,"Target","absent",1,"S","4",1,0.209877259880159,"fast","post_correct",0.609916460514069,78.8194444444444
298.183263342255,0,"AU06EL20","2022_Mar_01_1148","NotPresent_First","S_blue","MainTask",88,"Response","absent",1,"S","4",1,0.209877259880159,"fast","post_correct",0.609916460514069,78.8194444444444
299.007611310901,0.1,"AU06EL20","2022_Mar_01_1148","NotPresent_First","S_blue","MainTask",89,"Flanker","absent",0.33,"S","4",1,0.258257157993285,"fast","post_correct",0.609916460514069,78.8194444444444
299.091014265812,0.2,"AU06EL20","2022_Mar_01_1148","NotPresent_First","S_blue","MainTask",89,"Target","absent",0.33,"S","4",1,0.258257157993285,"fast","post_correct",0.609916460514069,78.8194444444444
299.349271423805,0,"AU06EL20","2022_Mar_01_1148","NotPresent_First","S_blue","MainTask",89,"Response","absent",0.33,"S","4",1,0.258257157993285,"fast","post_correct",0.609916460514069,78.8194444444444
300.141917459925,0.1,"AU06EL20","2022_Mar_01_1148","NotPresent_First","S_blue","MainTask",90,"Flanker","absent",0,"S","4",1,0.281981391202862,"fast","post_correct",0.609916460514069,78.8194444444444
300.225321873388,0.2,"AU06EL20","2022_Mar_01_1148","NotPresent_First","S_blue","MainTask",90,"Target","absent",0,"S","4",1,0.281981391202862,"fast","post_correct",0.609916460514069,78.8194444444444
300.507303264591,0,"AU06EL20","2022_Mar_01_1148","NotPresent_First","S_blue","MainTask",90,"Response","absent",0,"S","4",1,0.281981391202862,"fast","post_correct",0.609916460514069,78.8194444444444
301.426355053711,0.1,"AU06EL20","2022_Mar_01_1148","NotPresent_First","S_blue","MainTask",91,"Flanker","absent",1,"S","4",1,0.174483730721477,"fast","post_correct",0.609916460514069,78.8194444444444
301.509760342306,0.2,"AU06EL20","2022_Mar_01_1148","NotPresent_First","S_blue","MainTask",91,"Target","absent",1,"S","4",1,0.174483730721477,"fast","post_correct",0.609916460514069,78.8194444444444
301.684244073027,0,"AU06EL20","2022_Mar_01_1148","NotPresent_First","S_blue","MainTask",91,"Response","absent",1,"S","4",1,0.174483730721477,"fast","post_correct",0.609916460514069,78.8194444444444
302.543980611752,0.1,"AU06EL20","2022_Mar_01_1148","NotPresent_First","S_blue","MainTask",92,"Flanker","absent",1,"S","4",1,0.175806929642931,"fast","post_correct",0.609916460514069,78.8194444444444
302.627385316926,0.2,"AU06EL20","2022_Mar_01_1148","NotPresent_First","S_blue","MainTask",92,"Target","absent",1,"S","4",1,0.175806929642931,"fast","post_correct",0.609916460514069,78.8194444444444
302.803192246569,0,"AU06EL20","2022_Mar_01_1148","NotPresent_First","S_blue","MainTask",92,"Response","absent",1,"S","4",1,0.175806929642931,"fast","post_correct",0.609916460514069,78.8194444444444
303.778374390617,0.1,"AU06EL20","2022_Mar_01_1148","NotPresent_First","S_blue","MainTask",93,"Flanker","absent",0,"H","4",0,0.141404632830017,"fast","post_correct",0.609916460514069,78.8194444444444
303.861788430528,0.2,"AU06EL20","2022_Mar_01_1148","NotPresent_First","S_blue","MainTask",93,"Target","absent",0,"H","4",0,0.141404632830017,"fast","post_correct",0.609916460514069,78.8194444444444
304.003193063358,0,"AU06EL20","2022_Mar_01_1148","NotPresent_First","S_blue","MainTask",93,"Response","absent",0,"H","4",0,0.141404632830017,"fast","post_correct",0.609916460514069,78.8194444444444
304.829278168152,0.1,"AU06EL20","2022_Mar_01_1148","NotPresent_First","S_blue","MainTask",94,"Flanker","absent",0.33,"S","4",1,0.237484743538516,"fast","post_error",0.609916460514069,78.8194444444444
304.912680247931,0.2,"AU06EL20","2022_Mar_01_1148","NotPresent_First","S_blue","MainTask",94,"Target","absent",0.33,"S","4",1,0.237484743538516,"fast","post_error",0.609916460514069,78.8194444444444
305.15016499147,0,"AU06EL20","2022_Mar_01_1148","NotPresent_First","S_blue","MainTask",94,"Response","absent",0.33,"S","4",1,0.237484743538516,"fast","post_error",0.609916460514069,78.8194444444444
306.046990772613,0.1,"AU06EL20","2022_Mar_01_1148","NotPresent_First","S_blue","MainTask",95,"Flanker","absent",1,"S","4",1,0.199781158768019,"fast","post_correct",0.609916460514069,78.8194444444444
306.130394310945,0.2,"AU06EL20","2022_Mar_01_1148","NotPresent_First","S_blue","MainTask",95,"Target","absent",1,"S","4",1,0.199781158768019,"fast","post_correct",0.609916460514069,78.8194444444444
306.330175469713,0,"AU06EL20","2022_Mar_01_1148","NotPresent_First","S_blue","MainTask",95,"Response","absent",1,"S","4",1,0.199781158768019,"fast","post_correct",0.609916460514069,78.8194444444444
306.363925501801,11.0497830257154,"AU06EL20","2022_Mar_01_1148","NotPresent_First","S_blue","MainTask",95,"Break","absent",1,"S","4",1,11.0497830257154,"fast","post_correct",NA,78.8194444444444
320.476048232584,0.1,"AU06EL20","2022_Mar_01_1148","NotPresent_First","S_blue","MainTask",96,"Flanker","absent",0,"H","2",1,0.634528432441584,"slow","post_break",0.609916460514069,78.8194444444444
320.55945352118,0.2,"AU06EL20","2022_Mar_01_1148","NotPresent_First","S_blue","MainTask",96,"Target","absent",0,"H","2",1,0.634528432441584,"slow","post_break",0.609916460514069,78.8194444444444
321.193981953622,0,"AU06EL20","2022_Mar_01_1148","NotPresent_First","S_blue","MainTask",96,"Response","absent",0,"H","2",1,0.634528432441584,"slow","post_break",0.609916460514069,78.8194444444444
321.226687370336,0.1,"AU06EL20","2022_Mar_01_1148","NotPresent_First","S_blue","MainTask",96,"TooSlowFeedback","absent",0,"H","2",1,0.634528432441584,"slow","post_break",0.609916460514069,78.8194444444444
323.028240203777,0.1,"AU06EL20","2022_Mar_01_1148","NotPresent_First","S_blue","MainTask",97,"Flanker","absent",1,"S","4",1,0.33329531372874,"fast","post_correct",0.609916460514069,78.8194444444444
323.111644325531,0.2,"AU06EL20","2022_Mar_01_1148","NotPresent_First","S_blue","MainTask",97,"Target","absent",1,"S","4",1,0.33329531372874,"fast","post_correct",0.609916460514069,78.8194444444444
323.444939639259,0,"AU06EL20","2022_Mar_01_1148","NotPresent_First","S_blue","MainTask",97,"Response","absent",1,"S","4",1,0.33329531372874,"fast","post_correct",0.609916460514069,78.8194444444444
324.462813909691,0.1,"AU06EL20","2022_Mar_01_1148","NotPresent_First","S_blue","MainTask",98,"Flanker","absent",0,"S","4",1,0.222719232124291,"fast","post_correct",0.609916460514069,78.8194444444444
324.546209863549,0.2,"AU06EL20","2022_Mar_01_1148","NotPresent_First","S_blue","MainTask",98,"Target","absent",0,"S","4",1,0.222719232124291,"fast","post_correct",0.609916460514069,78.8194444444444
324.768929095673,0,"AU06EL20","2022_Mar_01_1148","NotPresent_First","S_blue","MainTask",98,"Response","absent",0,"S","4",1,0.222719232124291,"fast","post_correct",0.609916460514069,78.8194444444444
325.680517762838,0.1,"AU06EL20","2022_Mar_01_1148","NotPresent_First","S_blue","MainTask",99,"Flanker","absent",1,"H","2",1,0.326984156619801,"fast","post_correct",0.609916460514069,78.8194444444444
325.763913133274,0.2,"AU06EL20","2022_Mar_01_1148","NotPresent_First","S_blue","MainTask",99,"Target","absent",1,"H","2",1,0.326984156619801,"fast","post_correct",0.609916460514069,78.8194444444444
326.090897289894,0,"AU06EL20","2022_Mar_01_1148","NotPresent_First","S_blue","MainTask",99,"Response","absent",1,"H","2",1,0.326984156619801,"fast","post_correct",0.609916460514069,78.8194444444444
326.964961190832,0.1,"AU06EL20","2022_Mar_01_1148","NotPresent_First","S_blue","MainTask",100,"Flanker","absent",0.66,"S","4",1,0.349525211955552,"fast","post_correct",0.609916460514069,78.8194444444444
327.048358894954,0.2,"AU06EL20","2022_Mar_01_1148","NotPresent_First","S_blue","MainTask",100,"Target","absent",0.66,"S","4",1,0.349525211955552,"fast","post_correct",0.609916460514069,78.8194444444444
327.397884106909,0,"AU06EL20","2022_Mar_01_1148","NotPresent_First","S_blue","MainTask",100,"Response","absent",0.66,"S","4",1,0.349525211955552,"fast","post_correct",0.609916460514069,78.8194444444444
328.399519144377,0.1,"AU06EL20","2022_Mar_01_1148","NotPresent_First","S_blue","MainTask",101,"Flanker","absent",1,"S","4",1,0.203959036840388,"fast","post_correct",0.609916460514069,78.8194444444444
328.482924141263,0.2,"AU06EL20","2022_Mar_01_1148","NotPresent_First","S_blue","MainTask",101,"Target","absent",1,"S","4",1,0.203959036840388,"fast","post_correct",0.609916460514069,78.8194444444444
328.686883178103,0,"AU06EL20","2022_Mar_01_1148","NotPresent_First","S_blue","MainTask",101,"Response","absent",1,"S","4",1,0.203959036840388,"fast","post_correct",0.609916460514069,78.8194444444444
329.583870566876,0.1,"AU06EL20","2022_Mar_01_1148","NotPresent_First","S_blue","MainTask",102,"Flanker","absent",0,"S","4",1,0.248576744370439,"fast","post_correct",0.609916460514069,78.8194444444444
329.667274105208,0.2,"AU06EL20","2022_Mar_01_1148","NotPresent_First","S_blue","MainTask",102,"Target","absent",0,"S","4",1,0.248576744370439,"fast","post_correct",0.609916460514069,78.8194444444444
329.915850849578,0,"AU06EL20","2022_Mar_01_1148","NotPresent_First","S_blue","MainTask",102,"Response","absent",0,"S","4",1,0.248576744370439,"fast","post_correct",0.609916460514069,78.8194444444444
330.868306993818,0.1,"AU06EL20","2022_Mar_01_1148","NotPresent_First","S_blue","MainTask",103,"Flanker","absent",0,"H","4",0,0.220121549938995,"fast","post_correct",0.609916460514069,78.8194444444444
330.951716949781,0.2,"AU06EL20","2022_Mar_01_1148","NotPresent_First","S_blue","MainTask",103,"Target","absent",0,"H","4",0,0.220121549938995,"fast","post_correct",0.609916460514069,78.8194444444444
331.17183849972,0,"AU06EL20","2022_Mar_01_1148","NotPresent_First","S_blue","MainTask",103,"Response","absent",0,"H","4",0,0.220121549938995,"fast","post_correct",0.609916460514069,78.8194444444444
332.102697272157,0.1,"AU06EL20","2022_Mar_01_1148","NotPresent_First","S_blue","MainTask",104,"Flanker","absent",1,"S","4",1,0.225732601800701,"fast","post_error",0.609916460514069,78.8194444444444
332.186104311015,0.2,"AU06EL20","2022_Mar_01_1148","NotPresent_First","S_blue","MainTask",104,"Target","absent",1,"S","4",1,0.225732601800701,"fast","post_error",0.609916460514069,78.8194444444444
332.411836912815,0,"AU06EL20","2022_Mar_01_1148","NotPresent_First","S_blue","MainTask",104,"Response","absent",1,"S","4",1,0.225732601800701,"fast","post_error",0.609916460514069,78.8194444444444
333.437179555993,0.1,"AU06EL20","2022_Mar_01_1148","NotPresent_First","S_blue","MainTask",105,"Flanker","absent",1,"H","2",1,0.313214544919902,"fast","post_correct",0.609916460514069,78.8194444444444
333.520583677746,0.2,"AU06EL20","2022_Mar_01_1148","NotPresent_First","S_blue","MainTask",105,"Target","absent",1,"H","2",1,0.313214544919902,"fast","post_correct",0.609916460514069,78.8194444444444
333.833798222666,0,"AU06EL20","2022_Mar_01_1148","NotPresent_First","S_blue","MainTask",105,"Response","absent",1,"H","2",1,0.313214544919902,"fast","post_correct",0.609916460514069,78.8194444444444
334.671571876306,0.1,"AU06EL20","2022_Mar_01_1148","NotPresent_First","S_blue","MainTask",106,"Flanker","absent",0,"H","2",1,0.273810287813831,"fast","post_correct",0.609916460514069,78.8194444444444
334.754973080953,0.2,"AU06EL20","2022_Mar_01_1148","NotPresent_First","S_blue","MainTask",106,"Target","absent",0,"H","2",1,0.273810287813831,"fast","post_correct",0.609916460514069,78.8194444444444
335.028783368767,0,"AU06EL20","2022_Mar_01_1148","NotPresent_First","S_blue","MainTask",106,"Response","absent",0,"H","2",1,0.273810287813831,"fast","post_correct",0.609916460514069,78.8194444444444
336.056093891115,0.1,"AU06EL20","2022_Mar_01_1148","NotPresent_First","S_blue","MainTask",107,"Flanker","absent",1,"H","2",1,0.215271862536611,"fast","post_correct",0.609916460514069,78.8194444444444
336.139499471421,0.2,"AU06EL20","2022_Mar_01_1148","NotPresent_First","S_blue","MainTask",107,"Target","absent",1,"H","2",1,0.215271862536611,"fast","post_correct",0.609916460514069,78.8194444444444
336.354771333958,0,"AU06EL20","2022_Mar_01_1148","NotPresent_First","S_blue","MainTask",107,"Response","absent",1,"H","2",1,0.215271862536611,"fast","post_correct",0.609916460514069,78.8194444444444
337.140358850615,0.1,"AU06EL20","2022_Mar_01_1148","NotPresent_First","S_blue","MainTask",108,"Flanker","absent",0.33,"S","4",1,0.371991005980817,"fast","post_correct",0.609916460514069,78.8194444444444
337.223764139209,0.2,"AU06EL20","2022_Mar_01_1148","NotPresent_First","S_blue","MainTask",108,"Target","absent",0.33,"S","4",1,0.371991005980817,"fast","post_correct",0.609916460514069,78.8194444444444
337.59575514519,0,"AU06EL20","2022_Mar_01_1148","NotPresent_First","S_blue","MainTask",108,"Response","absent",0.33,"S","4",1,0.371991005980817,"fast","post_correct",0.609916460514069,78.8194444444444
338.408113519732,0.1,"AU06EL20","2022_Mar_01_1148","NotPresent_First","S_blue","MainTask",109,"Flanker","absent",0,"S","4",1,0.217244409075647,"fast","post_correct",0.609916460514069,78.8194444444444
338.491526101092,0.2,"AU06EL20","2022_Mar_01_1148","NotPresent_First","S_blue","MainTask",109,"Target","absent",0,"S","4",1,0.217244409075647,"fast","post_correct",0.609916460514069,78.8194444444444
338.708770510168,0,"AU06EL20","2022_Mar_01_1148","NotPresent_First","S_blue","MainTask",109,"Response","absent",0,"S","4",1,0.217244409075647,"fast","post_correct",0.609916460514069,78.8194444444444
339.59246435881,0.1,"AU06EL20","2022_Mar_01_1148","NotPresent_First","S_blue","MainTask",110,"Flanker","absent",1,"S","4",1,0.214853257941286,"fast","post_correct",0.609916460514069,78.8194444444444
339.675867605429,0.2,"AU06EL20","2022_Mar_01_1148","NotPresent_First","S_blue","MainTask",110,"Target","absent",1,"S","4",1,0.214853257941286,"fast","post_correct",0.609916460514069,78.8194444444444
339.89072086337,0,"AU06EL20","2022_Mar_01_1148","NotPresent_First","S_blue","MainTask",110,"Response","absent",1,"S","4",1,0.214853257941286,"fast","post_correct",0.609916460514069,78.8194444444444
340.710091958825,0.1,"AU06EL20","2022_Mar_01_1148","NotPresent_First","S_blue","MainTask",111,"Flanker","absent",1,"S","4",1,0.237201784333593,"fast","post_correct",0.609916460514069,78.8194444444444
340.793495788866,0.2,"AU06EL20","2022_Mar_01_1148","NotPresent_First","S_blue","MainTask",111,"Target","absent",1,"S","4",1,0.237201784333593,"fast","post_correct",0.609916460514069,78.8194444444444
341.0306975732,0,"AU06EL20","2022_Mar_01_1148","NotPresent_First","S_blue","MainTask",111,"Response","absent",1,"S","4",1,0.237201784333593,"fast","post_correct",0.609916460514069,78.8194444444444
341.84439869127,0.1,"AU06EL20","2022_Mar_01_1148","NotPresent_First","S_blue","MainTask",112,"Flanker","absent",1,"S","4",1,0.212881294821273,"fast","post_correct",0.609916460514069,78.8194444444444
341.927802813023,0.2,"AU06EL20","2022_Mar_01_1148","NotPresent_First","S_blue","MainTask",112,"Target","absent",1,"S","4",1,0.212881294821273,"fast","post_correct",0.609916460514069,78.8194444444444
342.140684107844,0,"AU06EL20","2022_Mar_01_1148","NotPresent_First","S_blue","MainTask",112,"Response","absent",1,"S","4",1,0.212881294821273,"fast","post_correct",0.609916460514069,78.8194444444444
342.978706882268,0.1,"AU06EL20","2022_Mar_01_1148","NotPresent_First","S_blue","MainTask",113,"Flanker","absent",1,"S","4",1,0.17455928374693,"fast","post_correct",0.609916460514069,78.8194444444444
343.06211071231,0.2,"AU06EL20","2022_Mar_01_1148","NotPresent_First","S_blue","MainTask",113,"Target","absent",1,"S","4",1,0.17455928374693,"fast","post_correct",0.609916460514069,78.8194444444444
343.236669996057,0,"AU06EL20","2022_Mar_01_1148","NotPresent_First","S_blue","MainTask",113,"Response","absent",1,"S","4",1,0.17455928374693,"fast","post_correct",0.609916460514069,78.8194444444444
344.079650682486,0.1,"AU06EL20","2022_Mar_01_1148","NotPresent_First","S_blue","MainTask",114,"Flanker","absent",0.66,"H","4",0,0.183677862904005,"fast","post_correct",0.609916460514069,78.8194444444444
344.163057721345,0.2,"AU06EL20","2022_Mar_01_1148","NotPresent_First","S_blue","MainTask",114,"Target","absent",0.66,"H","4",0,0.183677862904005,"fast","post_correct",0.609916460514069,78.8194444444444
344.346735584249,0,"AU06EL20","2022_Mar_01_1148","NotPresent_First","S_blue","MainTask",114,"Response","absent",0.66,"H","4",0,0.183677862904005,"fast","post_correct",0.609916460514069,78.8194444444444
345.247321222292,0.1,"AU06EL20","2022_Mar_01_1148","NotPresent_First","S_blue","MainTask",115,"Flanker","absent",1,"H","2",1,0.308925525139784,"fast","post_error",0.609916460514069,78.8194444444444
345.330725635753,0.2,"AU06EL20","2022_Mar_01_1148","NotPresent_First","S_blue","MainTask",115,"Target","absent",1,"H","2",1,0.308925525139784,"fast","post_error",0.609916460514069,78.8194444444444
345.639651160893,0,"AU06EL20","2022_Mar_01_1148","NotPresent_First","S_blue","MainTask",115,"Response","absent",1,"H","2",1,0.308925525139784,"fast","post_error",0.609916460514069,78.8194444444444
346.431671477947,0.1,"AU06EL20","2022_Mar_01_1148","NotPresent_First","S_blue","MainTask",116,"Flanker","absent",1,"S","2",0,0.227574753738736,"fast","post_correct",0.609916460514069,78.8194444444444
346.515075891408,0.2,"AU06EL20","2022_Mar_01_1148","NotPresent_First","S_blue","MainTask",116,"Target","absent",1,"S","2",0,0.227574753738736,"fast","post_correct",0.609916460514069,78.8194444444444
346.742650645147,0,"AU06EL20","2022_Mar_01_1148","NotPresent_First","S_blue","MainTask",116,"Response","absent",1,"S","2",0,0.227574753738736,"fast","post_correct",0.609916460514069,78.8194444444444
347.532615861584,0.1,"AU06EL20","2022_Mar_01_1148","NotPresent_First","S_blue","MainTask",117,"Flanker","absent",0,"H","4",0,0.221616858067136,"fast","post_error",0.609916460514069,78.8194444444444
347.616025525838,0.2,"AU06EL20","2022_Mar_01_1148","NotPresent_First","S_blue","MainTask",117,"Target","absent",0,"H","4",0,0.221616858067136,"fast","post_error",0.609916460514069,78.8194444444444
347.837642383905,0,"AU06EL20","2022_Mar_01_1148","NotPresent_First","S_blue","MainTask",117,"Response","absent",0,"H","4",0,0.221616858067136,"fast","post_error",0.609916460514069,78.8194444444444
348.6502434616,0.1,"AU06EL20","2022_Mar_01_1148","NotPresent_First","S_blue","MainTask",118,"Flanker","absent",1,"S","None",0,NA,NA,"post_error",0.609916460514069,78.8194444444444
348.733646999934,0.2,"AU06EL20","2022_Mar_01_1148","NotPresent_First","S_blue","MainTask",118,"Target","absent",1,"S","None",0,NA,NA,"post_error",0.609916460514069,78.8194444444444
349.75119397116,0.1,"AU06EL20","2022_Mar_01_1148","NotPresent_First","S_blue","MainTask",118,"TooSlowFeedback","absent",1,"S","None",0,NA,NA,"post_error",0.609916460514069,78.8194444444444
351.586098651829,0.1,"AU06EL20","2022_Mar_01_1148","NotPresent_First","S_blue","MainTask",119,"Flanker","absent",1,"H","2",1,0.338068572975317,"fast","post_error",0.609916460514069,78.8194444444444
351.669502190163,0.2,"AU06EL20","2022_Mar_01_1148","NotPresent_First","S_blue","MainTask",119,"Target","absent",1,"H","2",1,0.338068572975317,"fast","post_error",0.609916460514069,78.8194444444444
352.007570763139,0,"AU06EL20","2022_Mar_01_1148","NotPresent_First","S_blue","MainTask",119,"Response","absent",1,"H","2",1,0.338068572975317,"fast","post_error",0.609916460514069,78.8194444444444
352.85385448779,0.1,"AU06EL20","2022_Mar_01_1148","NotPresent_First","S_blue","MainTask",120,"Flanker","absent",1,"S","4",1,0.218313236422546,"fast","post_correct",0.609916460514069,78.8194444444444
352.937258317836,0.2,"AU06EL20","2022_Mar_01_1148","NotPresent_First","S_blue","MainTask",120,"Target","absent",1,"S","4",1,0.218313236422546,"fast","post_correct",0.609916460514069,78.8194444444444
353.155571554258,0,"AU06EL20","2022_Mar_01_1148","NotPresent_First","S_blue","MainTask",120,"Response","absent",1,"S","4",1,0.218313236422546,"fast","post_correct",0.609916460514069,78.8194444444444
354.104926232243,0.1,"AU06EL20","2022_Mar_01_1148","NotPresent_First","S_blue","MainTask",121,"Flanker","absent",0.33,"S","4",1,0.213206552052725,"fast","post_correct",0.609916460514069,78.8194444444444
354.188341147286,0.2,"AU06EL20","2022_Mar_01_1148","NotPresent_First","S_blue","MainTask",121,"Target","absent",0.33,"S","4",1,0.213206552052725,"fast","post_correct",0.609916460514069,78.8194444444444
354.401547699339,0,"AU06EL20","2022_Mar_01_1148","NotPresent_First","S_blue","MainTask",121,"Response","absent",0.33,"S","4",1,0.213206552052725,"fast","post_correct",0.609916460514069,78.8194444444444
355.305958829145,0.1,"AU06EL20","2022_Mar_01_1148","NotPresent_First","S_blue","MainTask",122,"Flanker","absent",0.66,"S","4",1,0.21515984569487,"fast","post_correct",0.609916460514069,78.8194444444444
355.389363534317,0.2,"AU06EL20","2022_Mar_01_1148","NotPresent_First","S_blue","MainTask",122,"Target","absent",0.66,"S","4",1,0.21515984569487,"fast","post_correct",0.609916460514069,78.8194444444444
355.604523380012,0,"AU06EL20","2022_Mar_01_1148","NotPresent_First","S_blue","MainTask",122,"Response","absent",0.66,"S","4",1,0.21515984569487,"fast","post_correct",0.609916460514069,78.8194444444444
356.390224663775,0.1,"AU06EL20","2022_Mar_01_1148","NotPresent_First","S_blue","MainTask",123,"Flanker","absent",1,"H","4",0,0.215874828183587,"fast","post_correct",0.609916460514069,78.8194444444444
356.473628202106,0.2,"AU06EL20","2022_Mar_01_1148","NotPresent_First","S_blue","MainTask",123,"Target","absent",1,"H","4",0,0.215874828183587,"fast","post_correct",0.609916460514069,78.8194444444444
356.689503030289,0,"AU06EL20","2022_Mar_01_1148","NotPresent_First","S_blue","MainTask",123,"Response","absent",1,"H","4",0,0.215874828183587,"fast","post_correct",0.609916460514069,78.8194444444444
357.541212570623,0.1,"AU06EL20","2022_Mar_01_1148","NotPresent_First","S_blue","MainTask",124,"Flanker","absent",0,"H","4",0,0.212897922319826,"fast","post_error",0.609916460514069,78.8194444444444
357.624617859217,0.2,"AU06EL20","2022_Mar_01_1148","NotPresent_First","S_blue","MainTask",124,"Target","absent",0,"H","4",0,0.212897922319826,"fast","post_error",0.609916460514069,78.8194444444444
357.837515781537,0,"AU06EL20","2022_Mar_01_1148","NotPresent_First","S_blue","MainTask",124,"Response","absent",0,"H","4",0,0.212897922319826,"fast","post_error",0.609916460514069,78.8194444444444
358.82567991888,0.1,"AU06EL20","2022_Mar_01_1148","NotPresent_First","S_blue","MainTask",125,"Flanker","absent",1,"S","4",1,0.305421498364012,"fast","post_error",0.609916460514069,78.8194444444444
358.909052827608,0.2,"AU06EL20","2022_Mar_01_1148","NotPresent_First","S_blue","MainTask",125,"Target","absent",1,"S","4",1,0.305421498364012,"fast","post_error",0.609916460514069,78.8194444444444
359.214474325972,0,"AU06EL20","2022_Mar_01_1148","NotPresent_First","S_blue","MainTask",125,"Response","absent",1,"S","4",1,0.305421498364012,"fast","post_error",0.609916460514069,78.8194444444444
360.176808663569,0.1,"AU06EL20","2022_Mar_01_1148","NotPresent_First","S_blue","MainTask",126,"Flanker","absent",1,"S","4",1,0.220240276121331,"fast","post_correct",0.609916460514069,78.8194444444444
360.260213660453,0.2,"AU06EL20","2022_Mar_01_1148","NotPresent_First","S_blue","MainTask",126,"Target","absent",1,"S","4",1,0.220240276121331,"fast","post_correct",0.609916460514069,78.8194444444444
360.480453936574,0,"AU06EL20","2022_Mar_01_1148","NotPresent_First","S_blue","MainTask",126,"Response","absent",1,"S","4",1,0.220240276121331,"fast","post_correct",0.609916460514069,78.8194444444444
361.477926556627,0.1,"AU06EL20","2022_Mar_01_1148","NotPresent_First","S_blue","MainTask",127,"Flanker","absent",0.33,"H","2",1,0.281106259641092,"fast","post_correct",0.609916460514069,78.8194444444444
361.561330970088,0.2,"AU06EL20","2022_Mar_01_1148","NotPresent_First","S_blue","MainTask",127,"Target","absent",0.33,"H","2",1,0.281106259641092,"fast","post_correct",0.609916460514069,78.8194444444444
361.842437229729,0,"AU06EL20","2022_Mar_01_1148","NotPresent_First","S_blue","MainTask",127,"Response","absent",0.33,"H","2",1,0.281106259641092,"fast","post_correct",0.609916460514069,78.8194444444444
362.695638285955,0.1,"AU06EL20","2022_Mar_01_1148","NotPresent_First","S_blue","MainTask",128,"Flanker","absent",1,"H","2",1,0.241388705435384,"fast","post_correct",0.609916460514069,78.8194444444444
362.77904357455,0.2,"AU06EL20","2022_Mar_01_1148","NotPresent_First","S_blue","MainTask",128,"Target","absent",1,"H","2",1,0.241388705435384,"fast","post_correct",0.609916460514069,78.8194444444444
363.020432279985,0,"AU06EL20","2022_Mar_01_1148","NotPresent_First","S_blue","MainTask",128,"Response","absent",1,"H","2",1,0.241388705435384,"fast","post_correct",0.609916460514069,78.8194444444444
364.030117069267,0.1,"AU06EL20","2022_Mar_01_1148","NotPresent_First","S_blue","MainTask",129,"Flanker","absent",1,"H","2",1,0.179877166534425,"fast","post_correct",0.609916460514069,78.8194444444444
364.113523232993,0.2,"AU06EL20","2022_Mar_01_1148","NotPresent_First","S_blue","MainTask",129,"Target","absent",1,"H","2",1,0.179877166534425,"fast","post_correct",0.609916460514069,78.8194444444444
364.293400399527,0,"AU06EL20","2022_Mar_01_1148","NotPresent_First","S_blue","MainTask",129,"Response","absent",1,"H","2",1,0.179877166534425,"fast","post_correct",0.609916460514069,78.8194444444444
365.08102055509,0.1,"AU06EL20","2022_Mar_01_1148","NotPresent_First","S_blue","MainTask",130,"Flanker","absent",1,"H","2",1,0.214956815172627,"fast","post_correct",0.609916460514069,78.8194444444444
365.164425551973,0.2,"AU06EL20","2022_Mar_01_1148","NotPresent_First","S_blue","MainTask",130,"Target","absent",1,"H","2",1,0.214956815172627,"fast","post_correct",0.609916460514069,78.8194444444444
365.379382367146,0,"AU06EL20","2022_Mar_01_1148","NotPresent_First","S_blue","MainTask",130,"Response","absent",1,"H","2",1,0.214956815172627,"fast","post_correct",0.609916460514069,78.8194444444444
366.382138156436,0.1,"AU06EL20","2022_Mar_01_1148","NotPresent_First","S_blue","MainTask",131,"Flanker","absent",0.33,"H","4",0,0.219833923365513,"fast","post_correct",0.609916460514069,78.8194444444444
366.46554169477,0.2,"AU06EL20","2022_Mar_01_1148","NotPresent_First","S_blue","MainTask",131,"Target","absent",0.33,"H","4",0,0.219833923365513,"fast","post_correct",0.609916460514069,78.8194444444444
366.685375618135,0,"AU06EL20","2022_Mar_01_1148","NotPresent_First","S_blue","MainTask",131,"Response","absent",0.33,"H","4",0,0.219833923365513,"fast","post_correct",0.609916460514069,78.8194444444444
367.699937515607,0.1,"AU06EL20","2022_Mar_01_1148","NotPresent_First","S_blue","MainTask",132,"Flanker","absent",1,"H","2",1,0.201049224400776,"fast","post_error",0.609916460514069,78.8194444444444
367.783340470518,0.2,"AU06EL20","2022_Mar_01_1148","NotPresent_First","S_blue","MainTask",132,"Target","absent",1,"H","2",1,0.201049224400776,"fast","post_error",0.609916460514069,78.8194444444444
367.984389694919,0,"AU06EL20","2022_Mar_01_1148","NotPresent_First","S_blue","MainTask",132,"Response","absent",1,"H","2",1,0.201049224400776,"fast","post_error",0.609916460514069,78.8194444444444
368.800881607536,0.1,"AU06EL20","2022_Mar_01_1148","NotPresent_First","S_blue","MainTask",133,"Flanker","absent",1,"S","2",0,0.243056706189236,"fast","post_correct",0.609916460514069,78.8194444444444
368.884287187842,0.2,"AU06EL20","2022_Mar_01_1148","NotPresent_First","S_blue","MainTask",133,"Target","absent",1,"S","2",0,0.243056706189236,"fast","post_correct",0.609916460514069,78.8194444444444
369.127343894032,0,"AU06EL20","2022_Mar_01_1148","NotPresent_First","S_blue","MainTask",133,"Response","absent",1,"S","2",0,0.243056706189236,"fast","post_correct",0.609916460514069,78.8194444444444
370.018594211995,0.1,"AU06EL20","2022_Mar_01_1148","NotPresent_First","S_blue","MainTask",134,"Flanker","absent",1,"H","2",1,0.316328263015748,"fast","post_error",0.609916460514069,78.8194444444444
370.101995708354,0.2,"AU06EL20","2022_Mar_01_1148","NotPresent_First","S_blue","MainTask",134,"Target","absent",1,"H","2",1,0.316328263015748,"fast","post_error",0.609916460514069,78.8194444444444
370.418323971369,0,"AU06EL20","2022_Mar_01_1148","NotPresent_First","S_blue","MainTask",134,"Response","absent",1,"H","2",1,0.316328263015748,"fast","post_error",0.609916460514069,78.8194444444444
371.419797692919,0.1,"AU06EL20","2022_Mar_01_1148","NotPresent_First","S_blue","MainTask",135,"Flanker","absent",0,"H","4",0,0.215103837275819,"fast","post_correct",0.609916460514069,78.8194444444444
371.503202398095,0.2,"AU06EL20","2022_Mar_01_1148","NotPresent_First","S_blue","MainTask",135,"Target","absent",0,"H","4",0,0.215103837275819,"fast","post_correct",0.609916460514069,78.8194444444444
371.718306235371,0,"AU06EL20","2022_Mar_01_1148","NotPresent_First","S_blue","MainTask",135,"Response","absent",0,"H","4",0,0.215103837275819,"fast","post_correct",0.609916460514069,78.8194444444444
372.62082999811,0.1,"AU06EL20","2022_Mar_01_1148","NotPresent_First","S_blue","MainTask",136,"Flanker","absent",0,"S","2",0,0.178062435385073,"fast","post_error",0.609916460514069,78.8194444444444
372.70423353644,0.2,"AU06EL20","2022_Mar_01_1148","NotPresent_First","S_blue","MainTask",136,"Target","absent",0,"S","2",0,0.178062435385073,"fast","post_error",0.609916460514069,78.8194444444444
372.882295971825,0,"AU06EL20","2022_Mar_01_1148","NotPresent_First","S_blue","MainTask",136,"Response","absent",0,"S","2",0,0.178062435385073,"fast","post_error",0.609916460514069,78.8194444444444
373.838540268885,0.1,"AU06EL20","2022_Mar_01_1148","NotPresent_First","S_blue","MainTask",137,"Flanker","absent",0.66,"S","4",1,0.278338801930659,"fast","post_error",0.609916460514069,78.8194444444444
373.921946432614,0.2,"AU06EL20","2022_Mar_01_1148","NotPresent_First","S_blue","MainTask",137,"Target","absent",0.66,"S","4",1,0.278338801930659,"fast","post_error",0.609916460514069,78.8194444444444
374.200285234545,0,"AU06EL20","2022_Mar_01_1148","NotPresent_First","S_blue","MainTask",137,"Response","absent",0.66,"S","4",1,0.278338801930659,"fast","post_error",0.609916460514069,78.8194444444444
375.106294354586,0.1,"AU06EL20","2022_Mar_01_1148","NotPresent_First","S_blue","MainTask",138,"Flanker","absent",1,"S","4",1,0.201572553072765,"fast","post_correct",0.609916460514069,78.8194444444444
375.189702560287,0.2,"AU06EL20","2022_Mar_01_1148","NotPresent_First","S_blue","MainTask",138,"Target","absent",1,"S","4",1,0.201572553072765,"fast","post_correct",0.609916460514069,78.8194444444444
375.391275113359,0,"AU06EL20","2022_Mar_01_1148","NotPresent_First","S_blue","MainTask",138,"Response","absent",1,"S","4",1,0.201572553072765,"fast","post_correct",0.609916460514069,78.8194444444444
376.240604879267,0.1,"AU06EL20","2022_Mar_01_1148","NotPresent_First","S_blue","MainTask",139,"Flanker","absent",1,"H","4",0,0.204241704337619,"fast","post_correct",0.609916460514069,78.8194444444444
376.32400900102,0.2,"AU06EL20","2022_Mar_01_1148","NotPresent_First","S_blue","MainTask",139,"Target","absent",1,"H","4",0,0.204241704337619,"fast","post_correct",0.609916460514069,78.8194444444444
376.528250705358,0,"AU06EL20","2022_Mar_01_1148","NotPresent_First","S_blue","MainTask",139,"Response","absent",1,"H","4",0,0.204241704337619,"fast","post_correct",0.609916460514069,78.8194444444444
377.374911903424,0.1,"AU06EL20","2022_Mar_01_1148","NotPresent_First","S_blue","MainTask",140,"Flanker","absent",0.33,"S","4",1,0.250947184060351,"fast","post_error",0.609916460514069,78.8194444444444
377.458315733465,0.2,"AU06EL20","2022_Mar_01_1148","NotPresent_First","S_blue","MainTask",140,"Target","absent",0.33,"S","4",1,0.250947184060351,"fast","post_error",0.609916460514069,78.8194444444444
377.709262917526,0,"AU06EL20","2022_Mar_01_1148","NotPresent_First","S_blue","MainTask",140,"Response","absent",0.33,"S","4",1,0.250947184060351,"fast","post_error",0.609916460514069,78.8194444444444
378.642693118198,0.1,"AU06EL20","2022_Mar_01_1148","NotPresent_First","S_blue","MainTask",141,"Flanker","absent",1,"H","2",1,0.27316619098201,"fast","post_correct",0.609916460514069,78.8194444444444
378.726071861138,0.2,"AU06EL20","2022_Mar_01_1148","NotPresent_First","S_blue","MainTask",141,"Target","absent",1,"H","2",1,0.27316619098201,"fast","post_correct",0.609916460514069,78.8194444444444
378.99923805212,0,"AU06EL20","2022_Mar_01_1148","NotPresent_First","S_blue","MainTask",141,"Response","absent",1,"H","2",1,0.27316619098201,"fast","post_correct",0.609916460514069,78.8194444444444
379.810335362085,0.1,"AU06EL20","2022_Mar_01_1148","NotPresent_First","S_blue","MainTask",142,"Flanker","absent",0.33,"S","None",0,NA,NA,"post_correct",0.609916460514069,78.8194444444444
379.893740358968,0.2,"AU06EL20","2022_Mar_01_1148","NotPresent_First","S_blue","MainTask",142,"Target","absent",0.33,"S","None",0,NA,NA,"post_correct",0.609916460514069,78.8194444444444
380.911282662828,0.1,"AU06EL20","2022_Mar_01_1148","NotPresent_First","S_blue","MainTask",142,"TooSlowFeedback","absent",0.33,"S","None",0,NA,NA,"post_correct",0.609916460514069,78.8194444444444
382.746190844022,0.1,"AU06EL20","2022_Mar_01_1148","NotPresent_First","S_blue","MainTask",143,"Flanker","absent",0.33,"S","4",1,0.263567748017522,"fast","post_error",0.609916460514069,78.8194444444444
382.829595549198,0.2,"AU06EL20","2022_Mar_01_1148","NotPresent_First","S_blue","MainTask",143,"Target","absent",0.33,"S","4",1,0.263567748017522,"fast","post_error",0.609916460514069,78.8194444444444
383.093163297215,0,"AU06EL20","2022_Mar_01_1148","NotPresent_First","S_blue","MainTask",143,"Response","absent",0.33,"S","4",1,0.263567748017522,"fast","post_error",0.609916460514069,78.8194444444444
384.080669627334,0.1,"AU06EL20","2022_Mar_01_1148","NotPresent_First","S_blue","MainTask",144,"Flanker","absent",0.33,"S","4",1,0.215082542410528,"fast","post_correct",0.609916460514069,78.8194444444444
384.164073749087,0.2,"AU06EL20","2022_Mar_01_1148","NotPresent_First","S_blue","MainTask",144,"Target","absent",0.33,"S","4",1,0.215082542410528,"fast","post_correct",0.609916460514069,78.8194444444444
384.379156291498,0,"AU06EL20","2022_Mar_01_1148","NotPresent_First","S_blue","MainTask",144,"Response","absent",0.33,"S","4",1,0.215082542410528,"fast","post_correct",0.609916460514069,78.8194444444444
385.281701057391,0.1,"AU06EL20","2022_Mar_01_1148","NotPresent_First","S_blue","MainTask",145,"Flanker","absent",0,"S","4",1,0.304027997211961,"fast","post_correct",0.609916460514069,78.8194444444444
385.365105470855,0.2,"AU06EL20","2022_Mar_01_1148","NotPresent_First","S_blue","MainTask",145,"Target","absent",0,"S","4",1,0.304027997211961,"fast","post_correct",0.609916460514069,78.8194444444444
385.669133468067,0,"AU06EL20","2022_Mar_01_1148","NotPresent_First","S_blue","MainTask",145,"Response","absent",0,"S","4",1,0.304027997211961,"fast","post_correct",0.609916460514069,78.8194444444444
386.61617925728,0.1,"AU06EL20","2022_Mar_01_1148","NotPresent_First","S_blue","MainTask",146,"Flanker","absent",1,"H","2",1,0.229550800802826,"fast","post_correct",0.609916460514069,78.8194444444444
386.699584545875,0.2,"AU06EL20","2022_Mar_01_1148","NotPresent_First","S_blue","MainTask",146,"Target","absent",1,"H","2",1,0.229550800802826,"fast","post_correct",0.609916460514069,78.8194444444444
386.929135346678,0,"AU06EL20","2022_Mar_01_1148","NotPresent_First","S_blue","MainTask",146,"Response","absent",1,"H","2",1,0.229550800802826,"fast","post_correct",0.609916460514069,78.8194444444444
387.850574786409,0.1,"AU06EL20","2022_Mar_01_1148","NotPresent_First","S_blue","MainTask",147,"Flanker","absent",0.66,"S","4",1,0.217142310393683,"fast","post_correct",0.609916460514069,78.8194444444444
387.933978616451,0.2,"AU06EL20","2022_Mar_01_1148","NotPresent_First","S_blue","MainTask",147,"Target","absent",0.66,"S","4",1,0.217142310393683,"fast","post_correct",0.609916460514069,78.8194444444444
388.151120926845,0,"AU06EL20","2022_Mar_01_1148","NotPresent_First","S_blue","MainTask",147,"Response","absent",0.66,"S","4",1,0.217142310393683,"fast","post_correct",0.609916460514069,78.8194444444444
389.101645655732,0.1,"AU06EL20","2022_Mar_01_1148","NotPresent_First","S_blue","MainTask",148,"Flanker","absent",0.33,"H","2",1,0.247033887426369,"fast","post_correct",0.609916460514069,78.8194444444444
389.185052694587,0.2,"AU06EL20","2022_Mar_01_1148","NotPresent_First","S_blue","MainTask",148,"Target","absent",0.33,"H","2",1,0.247033887426369,"fast","post_correct",0.609916460514069,78.8194444444444
389.432086582014,0,"AU06EL20","2022_Mar_01_1148","NotPresent_First","S_blue","MainTask",148,"Response","absent",0.33,"H","2",1,0.247033887426369,"fast","post_correct",0.609916460514069,78.8194444444444
390.35272177584,0.1,"AU06EL20","2022_Mar_01_1148","NotPresent_First","S_blue","MainTask",149,"Flanker","absent",0.33,"H","2",1,0.289939837624843,"fast","post_correct",0.609916460514069,78.8194444444444
390.436126772724,0.2,"AU06EL20","2022_Mar_01_1148","NotPresent_First","S_blue","MainTask",149,"Target","absent",0.33,"H","2",1,0.289939837624843,"fast","post_correct",0.609916460514069,78.8194444444444
390.726066610348,0,"AU06EL20","2022_Mar_01_1148","NotPresent_First","S_blue","MainTask",149,"Response","absent",0.33,"H","2",1,0.289939837624843,"fast","post_correct",0.609916460514069,78.8194444444444
391.687209018755,0.1,"AU06EL20","2022_Mar_01_1148","NotPresent_First","S_blue","MainTask",150,"Flanker","absent",0.66,"S","4",1,0.207440893613239,"fast","post_correct",0.609916460514069,78.8194444444444
391.770607014589,0.2,"AU06EL20","2022_Mar_01_1148","NotPresent_First","S_blue","MainTask",150,"Target","absent",0.66,"S","4",1,0.207440893613239,"fast","post_correct",0.609916460514069,78.8194444444444
391.978047908202,0,"AU06EL20","2022_Mar_01_1148","NotPresent_First","S_blue","MainTask",150,"Response","absent",0.66,"S","4",1,0.207440893613239,"fast","post_correct",0.609916460514069,78.8194444444444
392.854878975138,0.1,"AU06EL20","2022_Mar_01_1148","NotPresent_First","S_blue","MainTask",151,"Flanker","absent",0,"S","4",1,0.279756806772639,"fast","post_correct",0.609916460514069,78.8194444444444
392.938275512419,0.2,"AU06EL20","2022_Mar_01_1148","NotPresent_First","S_blue","MainTask",151,"Target","absent",0,"S","4",1,0.279756806772639,"fast","post_correct",0.609916460514069,78.8194444444444
393.218032319191,0,"AU06EL20","2022_Mar_01_1148","NotPresent_First","S_blue","MainTask",151,"Response","absent",0,"S","4",1,0.279756806772639,"fast","post_correct",0.609916460514069,78.8194444444444
394.039221354609,0.1,"AU06EL20","2022_Mar_01_1148","NotPresent_First","S_blue","MainTask",152,"Flanker","absent",0.66,"S","4",1,0.23240868877474,"fast","post_correct",0.609916460514069,78.8194444444444
394.122625476362,0.2,"AU06EL20","2022_Mar_01_1148","NotPresent_First","S_blue","MainTask",152,"Target","absent",0.66,"S","4",1,0.23240868877474,"fast","post_correct",0.609916460514069,78.8194444444444
394.355034165137,0,"AU06EL20","2022_Mar_01_1148","NotPresent_First","S_blue","MainTask",152,"Response","absent",0.66,"S","4",1,0.23240868877474,"fast","post_correct",0.609916460514069,78.8194444444444
395.290296016168,0.1,"AU06EL20","2022_Mar_01_1148","NotPresent_First","S_blue","MainTask",153,"Flanker","absent",1,"S","4",1,0.199316463906143,"fast","post_correct",0.609916460514069,78.8194444444444
395.373701596474,0.2,"AU06EL20","2022_Mar_01_1148","NotPresent_First","S_blue","MainTask",153,"Target","absent",1,"S","4",1,0.199316463906143,"fast","post_correct",0.609916460514069,78.8194444444444
