values,cards,winlose,winlosecolor,MoneyTrigger,ChoiceTrigger,FeedbackTrigger,TrialPractice.thisRepN,TrialPractice.thisTrialN,TrialPractice.thisN,TrialPractice.thisIndex,Trial.thisRepN,Trial.thisTrialN,Trial.thisN,Trial.thisIndex,example2.started,example2.stopped,jitter,Fixation_prac.started,Fixation_prac.stopped,Money_prac.started,Money_prac.stopped,Choice_prac.started,Choice_prac.stopped,choice_prac.keys,choice_prac.rt,FeedbackSlide_prac.started,FeedbackSlide_prac.stopped,Fixation.started,Fixation.stopped,Money.started,Money.stopped,Choice.started,Choice.stopped,choice_resp.keys,choice_resp.rt,choice_resp.started,choice_resp.stopped,Square1.started,Square1.stopped,Square2.started,Square2.stopped,MoneyWon,FeedbackSlide.started,FeedbackSlide.stopped,square5.started,square5.stopped,square4.started,square4.stopped,Break_Text.started,Break_Text.stopped,Key_Response_Break.keys,Key_Response_Break.rt,text_2.started,text_2.stopped,participant,session,EEGPort,LogFilesFolder,date,expName,psychopyVersion,frameRate,
50,4,x,#ed1c24,,,,0,0,0,4,,,,,128.78844519999984,None,4.33612818441794,160.08514419999847,164.42813749999914,164.41161270000157,164.9117685999954,164.9117685999954,None,2,3.1984433000034187,170.1660717999912,None,,,,,,,,,,,,,,,,,,,,,,,,,,,,IA6LI11,1,Serial_COM3,C:\Users\EEG\Desktop\FINALCoScienceTasksLogfiles\,2022_Jan_05_1046,Gambling,2020.1.3,59.97508634968553,
0,7,x,#ed1c24,,,,0,1,1,1,,,,,,,2.671798566121729,171.1566931999987,173.8357862999983,173.8357862999983,174.33632329999818,174.33632329999818,None,4,1.9996716000023298,178.33956709998893,None,,,,,,,,,,,,,,,,,,,,,,,,,,,,IA6LI11,1,Serial_COM3,C:\Users\EEG\Desktop\FINALCoScienceTasksLogfiles\,2022_Jan_05_1046,Gambling,2020.1.3,59.97508634968553,
10,4,x,#ed1c24,,,,0,2,2,3,,,,,,,4.193648120221441,179.34791060000134,183.54387189999397,183.52726669999538,184.0277492999885,184.0277492999885,None,2,1.6813006000011228,187.7140187999903,None,,,,,,,,,,,,,,,,,,,,,,,,,,,,IA6LI11,1,Serial_COM3,C:\Users\EEG\Desktop\FINALCoScienceTasksLogfiles\,2022_Jan_05_1046,Gambling,2020.1.3,59.97508634968553,
0,5,x,#ed1c24,,,,0,3,3,0,,,,,,,4.048559009314516,188.72417049999058,192.78480929999205,192.75147730000026,193.25211629999103,193.25211629999103,None,2,1.9876212000090163,197.25528489999124,None,,,,,,,,,,,,,,,,,,,,,,,,,,,,IA6LI11,1,Serial_COM3,C:\Users\EEG\Desktop\FINALCoScienceTasksLogfiles\,2022_Jan_05_1046,Gambling,2020.1.3,59.97508634968553,
10,4,o,#3ced1d,,,,0,4,4,6,,,,,,,3.9788633322999765,198.25914199999534,202.24286610000127,202.2261875999975,202.72647889998916,202.72647889998916,None,2,1.0393998000072315,205.7957255999936,None,,,,,,,,,,,,,,,,,,,,,,,,,,,,IA6LI11,1,Serial_COM3,C:\Users\EEG\Desktop\FINALCoScienceTasksLogfiles\,2022_Jan_05_1046,Gambling,2020.1.3,59.97508634968553,
0,5,o,#3ced1d,,,,0,5,5,5,,,,,,,3.716949339532513,206.7985781999887,210.51645019999705,210.4996264999936,211.00030659999175,211.00030659999175,None,2,1.247202099999413,214.2526843999949,None,,,,,,,,,,,,,,,,,,,,,,,,,,,,IA6LI11,1,Serial_COM3,C:\Users\EEG\Desktop\FINALCoScienceTasksLogfiles\,2022_Jan_05_1046,Gambling,2020.1.3,59.97508634968553,
50,8,o,#3ced1d,,,,0,6,6,9,,,,,,,3.9277615351317583,215.26717310000095,219.20683299998927,219.19016999998712,219.6907569999894,219.6907569999894,None,4,2.1313212999957614,223.8273681999999,None,,,,,,,,,,,,,,,,,,,,,,,,,,,,IA6LI11,1,Serial_COM3,C:\Users\EEG\Desktop\FINALCoScienceTasksLogfiles\,2022_Jan_05_1046,Gambling,2020.1.3,59.97508634968553,
50,3,o,#3ced1d,,,,0,7,7,8,,,,,,,4.363235788802247,224.8388253000012,229.21532540000044,229.1819695999875,229.68224519999058,229.68224519999058,None,2,1.1656944999995176,232.85171699999773,None,,,,,,,,,,,,,,,,,,,,,,,,,,,,IA6LI11,1,Serial_COM3,C:\Users\EEG\Desktop\FINALCoScienceTasksLogfiles\,2022_Jan_05_1046,Gambling,2020.1.3,59.97508634968553,
10,4,o,#3ced1d,,,,0,8,8,7,,,,,,,2.7309692452870324,233.85516300000018,236.5879489999934,236.5879489999934,237.08853709998948,237.08853709998948,None,2,1.1080074000055902,240.20766159999766,None,,,,,,,,,,,,,,,,,,,,,,,,,,,,IA6LI11,1,Serial_COM3,C:\Users\EEG\Desktop\FINALCoScienceTasksLogfiles\,2022_Jan_05_1046,Gambling,2020.1.3,59.97508634968553,
10,5,x,#ed1c24,,,,0,9,9,2,,,,,,,2.7407463024906793,241.21146269999736,243.96076760000142,243.9442274999892,244.44457779999357,244.44457779999357,None,4,5.9900522000098135,252.4347240999923,None,,,,,,,,,,,,,,,,,,,,,,,,,,,,IA6LI11,1,Serial_COM3,C:\Users\EEG\Desktop\FINALCoScienceTasksLogfiles\,2022_Jan_05_1046,Gambling,2020.1.3,59.97508634968553,
10,4,o,#3ced1d,19,14,111,,,,,0,0,0,44,,,4.070628235874481,,,,,,,,,,,277.2375724000012,281.30860949998896,281.29182529999525,281.79238069998974,281.79238069998974,None,2,0.7841205999866361,281.79238069998974,None,281.29182529999525,281.79238069998974,281.79238069998974,None,1010,284.57801339999423,None,282.60079250000126,284.6130129999947,284.57801339999423,None,None,None,None,,,,IA6LI11,1,Serial_COM3,C:\Users\EEG\Desktop\FINALCoScienceTasksLogfiles\,2022_Jan_05_1046,Gambling,2020.1.3,59.97508634968553,
50,3,o,#3ced1d,59,53,251,,,,,0,1,1,216,,,4.050922152161951,,,,,,,,,,,285.6333286000008,289.69881149999856,289.6820360999991,290.18251139999484,290.18251139999484,None,2,0.9985432999965269,290.18251139999484,None,289.6820360999991,290.18251139999484,290.18251139999484,None,1060,293.2017957999924,None,291.2027711999981,293.21854409998923,293.2017957999924,None,None,None,None,,,,IA6LI11,1,Serial_COM3,C:\Users\EEG\Desktop\FINALCoScienceTasksLogfiles\,2022_Jan_05_1046,Gambling,2020.1.3,59.97508634968553,
10,5,x,#ed1c24,19,15,110,,,,,0,2,2,159,,,3.31363334503666,,,,,,,,,,,294.2443922999955,297.573336299989,297.53895109999576,298.0390861999913,298.0390861999913,None,2,2.7236897999973735,298.0390861999913,None,297.53895109999576,298.0390861999913,298.0390861999913,None,1050,302.8098273999931,None,300.8240098999959,302.82633329999226,302.8098273999931,None,None,None,None,,,,IA6LI11,1,Serial_COM3,C:\Users\EEG\Desktop\FINALCoScienceTasksLogfiles\,2022_Jan_05_1046,Gambling,2020.1.3,59.97508634968553,
10,5,x,#ed1c24,19,15,110,,,,,0,3,3,168,,,3.365461051932438,,,,,,,,,,,303.8473169999925,307.21338069999183,307.21338069999183,307.71389339999587,307.71389339999587,None,2,1.0907552999997279,307.71389339999587,None,307.21338069999183,307.71389339999587,307.71389339999587,None,1040,310.83304639998823,None,308.83770069999446,310.84970899998734,310.83304639998823,None,None,None,None,,,,IA6LI11,1,Serial_COM3,C:\Users\EEG\Desktop\FINALCoScienceTasksLogfiles\,2022_Jan_05_1046,Gambling,2020.1.3,59.97508634968553,
10,5,x,#ed1c24,19,15,110,,,,,0,4,4,162,,,3.8075634001813876,,,,,,,,,,,311.86503839999205,315.6872302999982,315.6705446999986,316.17080209999403,316.17080209999403,None,4,3.0937919999996666,316.17080209999403,None,315.6705446999986,316.17080209999403,316.17080209999403,None,1030,321.2916860999976,None,319.29213190000155,321.2916860999976,321.2916860999976,None,None,None,None,,,,IA6LI11,1,Serial_COM3,C:\Users\EEG\Desktop\FINALCoScienceTasksLogfiles\,2022_Jan_05_1046,Gambling,2020.1.3,59.97508634968553,
10,4,x,#ed1c24,19,14,110,,,,,0,5,5,56,,,3.350019672684014,,,,,,,,,,,322.32695180000155,325.6786376999953,325.6786376999953,326.17927119998785,326.17927119998785,None,2,1.0326816000015242,326.17927119998785,None,325.6786376999953,326.17927119998785,326.17927119998785,None,1020,329.23181129999284,None,327.2321865999984,329.23181129999284,329.23181129999284,None,None,None,None,,,,IA6LI11,1,Serial_COM3,C:\Users\EEG\Desktop\FINALCoScienceTasksLogfiles\,2022_Jan_05_1046,Gambling,2020.1.3,59.97508634968553,
10,5,o,#3ced1d,19,15,111,,,,,0,6,6,151,,,3.6245865794732204,,,,,,,,,,,330.2550751999952,333.8856824999966,333.8856824999966,334.38593579998997,334.38593579998997,None,2,0.7767006999929436,334.38593579998997,None,333.8856824999966,334.38593579998997,334.38593579998997,None,1030,337.22181529999943,None,335.22014799999306,337.22181529999943,337.22181529999943,None,None,None,None,,,,IA6LI11,1,Serial_COM3,C:\Users\EEG\Desktop\FINALCoScienceTasksLogfiles\,2022_Jan_05_1046,Gambling,2020.1.3,59.97508634968553,
0,4,x,#ed1c24,9,4,100,,,,,0,7,7,19,,,3.9471857891404163,,,,,,,,,,,338.24251229999936,342.19262609998987,342.19262609998987,342.6926095999952,342.6926095999952,None,2,0.8890666000079364,342.6926095999952,None,342.19262609998987,342.6926095999952,342.6926095999952,None,1030,345.66212739999173,None,343.6606904999935,345.66212739999173,345.66212739999173,None,None,None,None,,,,IA6LI11,1,Serial_COM3,C:\Users\EEG\Desktop\FINALCoScienceTasksLogfiles\,2022_Jan_05_1046,Gambling,2020.1.3,59.97508634968553,
10,3,o,#3ced1d,19,13,211,,,,,0,8,8,212,,,3.1528695268583196,,,,,,,,,,,346.6312951,349.7987829999911,349.7822626999987,350.2824982999882,350.2824982999882,None,2,0.6221766999951797,350.2824982999882,None,349.7822626999987,350.2824982999882,350.2824982999882,None,1040,352.95144399999117,None,350.95516349999525,352.968089099988,352.95144399999117,None,None,None,None,,,,IA6LI11,1,Serial_COM3,C:\Users\EEG\Desktop\FINALCoScienceTasksLogfiles\,2022_Jan_05_1046,Gambling,2020.1.3,59.97508634968553,
0,6,o,#3ced1d,9,6,201,,,,,0,9,9,218,,,4.092073940197042,,,,,,,,,,,354.0175809999928,358.12235439999495,358.10575959998823,358.60611269999936,358.60611269999936,None,4,2.3206435999891255,358.60611269999936,None,358.10575959998823,358.60611269999936,358.60611269999936,None,1040,362.95979109998734,None,360.9609014000016,362.97641550000117,362.95979109998734,None,None,None,None,,,,IA6LI11,1,Serial_COM3,C:\Users\EEG\Desktop\FINALCoScienceTasksLogfiles\,2022_Jan_05_1046,Gambling,2020.1.3,59.97508634968553,
50,4,o,#3ced1d,59,54,151,,,,,0,10,10,73,,,4.199129723711884,,,,,,,,,,,363.97316709998995,368.1809547999874,368.1640844999929,368.6644709999964,368.6644709999964,None,2,1.3112439999968046,368.6644709999964,None,368.1640844999929,368.6644709999964,368.6644709999964,None,1090,372.00059769999643,None,370.00175269998726,372.0172556999896,372.00059769999643,None,None,None,None,,,,IA6LI11,1,Serial_COM3,C:\Users\EEG\Desktop\FINALCoScienceTasksLogfiles\,2022_Jan_05_1046,Gambling,2020.1.3,59.97508634968553,
10,3,x,#ed1c24,19,13,210,,,,,0,11,11,215,,,3.1401743684050754,,,,,,,,,,,373.04796909999277,376.1875081999897,376.1708723999909,376.67102159999195,376.67102159999195,None,2,0.9608504000061657,376.67102159999195,None,376.1708723999909,376.67102159999195,376.67102159999195,None,1080,379.69043180000153,None,377.69956079999974,379.7069654999941,379.69043180000153,None,None,None,None,,,,IA6LI11,1,Serial_COM3,C:\Users\EEG\Desktop\FINALCoScienceTasksLogfiles\,2022_Jan_05_1046,Gambling,2020.1.3,59.97508634968553,
0,8,x,#ed1c24,9,8,200,,,,,0,12,12,234,,,3.171244208097538,,,,,,,,,,,380.7213838999887,383.89382079998904,383.87727379999706,384.3775672999909,384.3775672999909,None,4,2.288073000003351,384.3775672999909,None,383.87727379999706,384.3775672999909,384.3775672999909,None,1080,388.697771799998,None,386.69898859999375,388.7144732000015,388.697771799998,None,None,None,None,,,,IA6LI11,1,Serial_COM3,C:\Users\EEG\Desktop\FINALCoScienceTasksLogfiles\,2022_Jan_05_1046,Gambling,2020.1.3,59.97508634968553,
50,7,x,#ed1c24,59,57,250,,,,,0,13,13,232,,,3.085761606394917,,,,,,,,,,,389.70088289999694,392.80080719999387,392.7847303999879,393.2848360999924,393.2848360999924,None,4,1.872760800004471,393.2848360999924,None,392.7847303999879,393.2848360999924,393.2848360999924,None,1030,397.1882156999927,None,395.18873090000125,397.1882156999927,397.1882156999927,None,None,None,None,,,,IA6LI11,1,Serial_COM3,C:\Users\EEG\Desktop\FINALCoScienceTasksLogfiles\,2022_Jan_05_1046,Gambling,2020.1.3,59.97508634968553,
50,4,o,#3ced1d,59,54,151,,,,,0,14,14,69,,,3.8065791853457362,,,,,,,,,,,398.24191209999844,402.05905269998766,402.0423871999956,402.54289040000003,402.54289040000003,None,2,0.9368279000045732,402.54289040000003,None,402.0423871999956,402.54289040000003,402.54289040000003,None,1080,405.5285038000002,None,403.54148899999564,405.5454191999888,405.5285038000002,None,None,None,None,,,,IA6LI11,1,Serial_COM3,C:\Users\EEG\Desktop\FINALCoScienceTasksLogfiles\,2022_Jan_05_1046,Gambling,2020.1.3,59.97508634968553,
50,5,o,#3ced1d,59,55,151,,,,,0,15,15,184,,,4.348345177111515,,,,,,,,,,,406.5781440999999,410.93291599999066,410.9162152999925,411.4169145999913,411.4169145999913,None,2,1.0660419999912847,411.4169145999913,None,410.9162152999925,411.4169145999913,411.4169145999913,None,1130,414.5024584999919,None,412.50692029998754,414.5192483999999,414.5024584999919,None,None,None,None,,,,IA6LI11,1,Serial_COM3,C:\Users\EEG\Desktop\FINALCoScienceTasksLogfiles\,2022_Jan_05_1046,Gambling,2020.1.3,59.97508634968553,
50,5,o,#3ced1d,59,55,151,,,,,0,16,16,175,,,3.6955072135658567,,,,,,,,,,,415.53476260000025,419.2398322999943,419.2233116999996,419.72368819999974,419.72368819999974,None,2,0.877924799991888,419.72368819999974,None,419.2233116999996,419.72368819999974,419.72368819999974,None,1180,422.62593650000053,None,420.63020759999927,422.6427927999903,422.62593650000053,None,None,None,None,,,,IA6LI11,1,Serial_COM3,C:\Users\EEG\Desktop\FINALCoScienceTasksLogfiles\,2022_Jan_05_1046,Gambling,2020.1.3,59.97508634968553,
0,5,o,#3ced1d,9,5,101,,,,,0,17,17,106,,,3.3123587432386117,,,,,,,,,,,423.66493159999663,426.9796626999887,426.9796626999887,427.4799340999889,427.4799340999889,None,2,0.657600700011244,427.4799340999889,None,426.9796626999887,427.4799340999889,427.4799340999889,None,1180,430.16559959998995,None,428.1657516999985,430.16559959998995,430.16559959998995,None,None,None,None,,,,IA6LI11,1,Serial_COM3,C:\Users\EEG\Desktop\FINALCoScienceTasksLogfiles\,2022_Jan_05_1046,Gambling,2020.1.3,59.97508634968553,
0,5,o,#3ced1d,9,5,101,,,,,0,18,18,102,,,2.8674557671297682,,,,,,,,,,,431.1720678999991,434.0523133999959,434.0356441999902,434.5359083999938,434.5359083999938,None,2,0.9237408000044525,434.5359083999938,None,434.0356441999902,434.5359083999938,434.5359083999938,None,1180,437.48850870000024,None,435.4888681000011,437.48850870000024,437.48850870000024,None,None,None,None,,,,IA6LI11,1,Serial_COM3,C:\Users\EEG\Desktop\FINALCoScienceTasksLogfiles\,2022_Jan_05_1046,Gambling,2020.1.3,59.97508634968553,
50,5,x,#ed1c24,59,55,150,,,,,0,19,19,201,,,2.6282327320543146,,,,,,,,,,,438.4891210999922,441.12486799999897,441.10804809999536,441.6083884999971,441.6083884999971,None,2,0.7282222999929218,441.6083884999971,None,441.10804809999536,441.6083884999971,441.6083884999971,None,1130,444.39409149999847,None,442.4061970999901,444.41087649999827,444.39409149999847,None,None,None,None,,,,IA6LI11,1,Serial_COM3,C:\Users\EEG\Desktop\FINALCoScienceTasksLogfiles\,2022_Jan_05_1046,Gambling,2020.1.3,59.97508634968553,
0,5,o,#3ced1d,9,5,101,,,,,0,20,20,112,,,4.04538002780472,,,,,,,,,,,445.41682819998823,449.4651159999921,449.4651159999921,449.9653847999871,449.9653847999871,None,2,0.7863571000052616,449.9653847999871,None,449.4651159999921,449.9653847999871,449.9653847999871,None,1130,452.8012301999988,None,450.8156190000009,452.8179366999975,452.8012301999988,None,None,None,None,,,,IA6LI11,1,Serial_COM3,C:\Users\EEG\Desktop\FINALCoScienceTasksLogfiles\,2022_Jan_05_1046,Gambling,2020.1.3,59.97508634968553,
0,5,o,#3ced1d,9,5,101,,,,,0,21,21,116,,,4.42467399970475,,,,,,,,,,,453.8045310999878,458.239075999998,458.2223997999972,458.72265199999674,458.72265199999674,None,2,0.7221792000054847,458.72265199999674,None,458.2223997999972,458.72265199999674,458.72265199999674,None,1130,461.4751086999895,None,459.4752554000006,461.4751086999895,461.4751086999895,None,None,None,None,,,,IA6LI11,1,Serial_COM3,C:\Users\EEG\Desktop\FINALCoScienceTasksLogfiles\,2022_Jan_05_1046,Gambling,2020.1.3,59.97508634968553,
10,5,o,#3ced1d,19,15,111,,,,,0,22,22,147,,,2.7240947571735816,,,,,,,,,,,462.48555299999134,465.21160489998874,465.1948282999947,465.6953150999907,465.6953150999907,None,2,0.6636353000067174,465.6953150999907,None,465.1948282999947,465.6953150999907,465.6953150999907,None,1140,468.3807019999949,None,466.3857983999915,468.39751279998745,468.3807019999949,None,None,None,None,,,,IA6LI11,1,Serial_COM3,C:\Users\EEG\Desktop\FINALCoScienceTasksLogfiles\,2022_Jan_05_1046,Gambling,2020.1.3,59.97508634968553,
50,5,x,#ed1c24,59,55,150,,,,,0,23,23,195,,,3.4822889914772617,,,,,,,,,,,469.43719719999353,472.9347563999909,472.91798189999827,473.41834160000144,473.41834160000144,None,2,0.7657866999943508,473.41834160000144,None,472.91798189999827,473.41834160000144,473.41834160000144,None,1090,476.23720969998976,None,474.23625529999845,476.23720969998976,476.23720969998976,None,None,None,None,,,,IA6LI11,1,Serial_COM3,C:\Users\EEG\Desktop\FINALCoScienceTasksLogfiles\,2022_Jan_05_1046,Gambling,2020.1.3,59.97508634968553,
10,4,x,#ed1c24,19,14,110,,,,,0,24,24,52,,,4.268523923728386,,,,,,,,,,,477.2916503999877,481.57495019999624,481.55832609999925,482.05878159998974,482.05878159998974,None,2,0.8509907999978168,482.05878159998974,None,481.55832609999925,482.05878159998974,482.05878159998974,None,1080,484.9277880000009,None,482.92909219999274,484.944625499993,484.9277880000009,None,None,None,None,,,,IA6LI11,1,Serial_COM3,C:\Users\EEG\Desktop\FINALCoScienceTasksLogfiles\,2022_Jan_05_1046,Gambling,2020.1.3,59.97508634968553,
0,4,o,#3ced1d,9,4,101,,,,,0,25,25,12,,,3.414796506941128,,,,,,,,,,,485.96383159999095,489.3816894999909,489.3816894999909,489.88192109999363,489.88192109999363,None,2,0.6844222000072477,489.88192109999363,None,489.3816894999909,489.88192109999363,489.88192109999363,None,1080,492.60085639999306,None,490.6131383999891,492.6175074999919,492.60085639999306,None,None,None,None,,,,IA6LI11,1,Serial_COM3,C:\Users\EEG\Desktop\FINALCoScienceTasksLogfiles\,2022_Jan_05_1046,Gambling,2020.1.3,59.97508634968553,
10,4,o,#3ced1d,19,14,111,,,,,0,26,26,42,,,3.7058928035159195,,,,,,,,,,,493.60415379999904,497.3216451999906,497.3047317999881,497.80514559999574,497.80514559999574,None,2,0.6317356999934418,497.80514559999574,None,497.3047317999881,497.80514559999574,497.80514559999574,None,1090,500.4575208999886,None,498.46189789999335,500.4740591999871,500.4575208999886,None,None,None,None,,,,IA6LI11,1,Serial_COM3,C:\Users\EEG\Desktop\FINALCoScienceTasksLogfiles\,2022_Jan_05_1046,Gambling,2020.1.3,59.97508634968553,
0,4,x,#ed1c24,9,4,100,,,,,0,27,27,24,,,3.1520527985460642,,,,,,,,,,,501.5083176999906,504.66125789999205,504.66125789999205,505.16130759999214,505.16130759999214,None,2,0.539379399997415,505.16130759999214,None,504.66125789999205,505.16130759999214,505.16130759999214,None,1090,507.76358020000043,None,505.77357589999156,507.7801954999886,507.76358020000043,None,None,None,None,,,,IA6LI11,1,Serial_COM3,C:\Users\EEG\Desktop\FINALCoScienceTasksLogfiles\,2022_Jan_05_1046,Gambling,2020.1.3,59.97508634968553,
10,5,o,#3ced1d,19,15,111,,,,,0,28,28,138,,,3.978316135032295,,,,,,,,,,,508.7567071999947,512.7343860999972,512.7177029999875,513.217940699993,513.217940699993,None,2,0.8319773999974132,513.217940699993,None,512.7177029999875,513.217940699993,513.217940699993,None,1100,516.0702684999997,None,514.078952099997,516.0870185999956,516.0702684999997,None,None,None,None,,,,IA6LI11,1,Serial_COM3,C:\Users\EEG\Desktop\FINALCoScienceTasksLogfiles\,2022_Jan_05_1046,Gambling,2020.1.3,59.97508634968553,
10,4,x,#ed1c24,19,14,110,,,,,0,29,29,59,,,3.8535393971047656,,,,,,,,,,,517.1222764999984,520.9912380999885,520.9745750000002,521.4748441999982,521.4748441999982,None,2,0.7171832999883918,521.4748441999982,None,520.9745750000002,521.4748441999982,521.4748441999982,None,1090,524.2437974999921,None,522.2559417999873,524.2604993999994,524.2437974999921,None,None,None,None,,,,IA6LI11,1,Serial_COM3,C:\Users\EEG\Desktop\FINALCoScienceTasksLogfiles\,2022_Jan_05_1046,Gambling,2020.1.3,59.97508634968553,
50,5,o,#3ced1d,59,55,151,,,,,0,30,30,174,,,4.023965202364159,,,,,,,,,,,525.2817686999915,529.3146909999923,529.2981930999958,529.7984391999926,529.7984391999926,None,2,0.8411091000016313,529.7984391999926,None,529.2981930999958,529.7984391999926,529.7984391999926,None,1140,532.6840909999883,None,530.6989988999994,532.7008193999936,532.6840909999883,None,None,None,None,,,,IA6LI11,1,Serial_COM3,C:\Users\EEG\Desktop\FINALCoScienceTasksLogfiles\,2022_Jan_05_1046,Gambling,2020.1.3,59.97508634968553,
50,5,o,#3ced1d,59,55,151,,,,,0,31,31,181,,,3.9936748182878787,,,,,,,,,,,533.7265604999993,537.7218862000009,537.7050821999874,538.2055399999954,538.2055399999954,None,2,0.7313450999936322,538.2055399999954,None,537.7050821999874,538.2055399999954,538.2055399999954,None,1190,540.9576731999987,None,538.9579411000013,540.9576731999987,540.9576731999987,None,None,None,None,,,,IA6LI11,1,Serial_COM3,C:\Users\EEG\Desktop\FINALCoScienceTasksLogfiles\,2022_Jan_05_1046,Gambling,2020.1.3,59.97508634968553,
10,5,o,#3ced1d,19,15,111,,,,,0,32,32,141,,,4.016790094163234,,,,,,,,,,,542.0059366999922,546.02854259999,546.0120390999946,546.5121759999893,546.5121759999893,None,2,0.7064382000098703,546.5121759999893,None,546.0120390999946,546.5121759999893,546.5121759999893,None,1200,549.2479415999987,None,547.2489887999982,549.2647627999977,549.2479415999987,None,None,None,None,,,,IA6LI11,1,Serial_COM3,C:\Users\EEG\Desktop\FINALCoScienceTasksLogfiles\,2022_Jan_05_1046,Gambling,2020.1.3,59.97508634968553,
0,4,o,#3ced1d,9,4,101,,,,,0,33,33,4,,,2.937152244503367,,,,,,,,,,,550.2688506999984,553.2180066000001,553.2012261999917,553.7018192999967,553.7018192999967,None,2,0.701950399990892,553.7018192999967,None,553.2012261999917,553.7018192999967,553.7018192999967,None,1200,556.4372464999906,None,554.4415813999949,556.4539210999937,556.4372464999906,None,None,None,None,,,,IA6LI11,1,Serial_COM3,C:\Users\EEG\Desktop\FINALCoScienceTasksLogfiles\,2022_Jan_05_1046,Gambling,2020.1.3,59.97508634968553,
50,4,x,#ed1c24,59,54,150,,,,,0,34,34,97,,,3.514726821631952,,,,,,,,,,,557.4451045999886,560.9743088999967,560.9578111999872,561.4581143999967,561.4581143999967,None,2,0.7495993999909842,561.4581143999967,None,560.9578111999872,561.4581143999967,561.4581143999967,None,1150,564.2604226999974,None,562.2712860999891,564.277030799989,564.2604226999974,None,None,None,None,,,,IA6LI11,1,Serial_COM3,C:\Users\EEG\Desktop\FINALCoScienceTasksLogfiles\,2022_Jan_05_1046,Gambling,2020.1.3,59.97508634968553,
50,5,x,#ed1c24,59,55,150,,,,,0,35,35,198,,,4.3982585064704525,,,,,,,,,,,565.2894518999965,569.6984022999968,569.6817217999924,570.1819566999911,570.1819566999911,None,2,0.565136999997776,570.1819566999911,None,569.6817217999924,570.1819566999911,570.1819566999911,None,1100,572.7674918999983,None,570.7724098999897,572.78418219999,572.7674918999983,None,None,None,None,,,,IA6LI11,1,Serial_COM3,C:\Users\EEG\Desktop\FINALCoScienceTasksLogfiles\,2022_Jan_05_1046,Gambling,2020.1.3,59.97508634968553,
10,5,x,#ed1c24,19,15,110,,,,,0,36,36,153,,,3.3389061173055508,,,,,,,,,,,573.8018096999876,577.1545909999986,577.1379259999958,577.6382248999871,577.6382248999871,None,2,0.6013134000095306,577.6382248999871,None,577.1379259999958,577.6382248999871,577.6382248999871,None,1090,580.2570453999942,None,578.2578624000016,580.2570453999942,580.2570453999942,None,None,None,None,,,,IA6LI11,1,Serial_COM3,C:\Users\EEG\Desktop\FINALCoScienceTasksLogfiles\,2022_Jan_05_1046,Gambling,2020.1.3,59.97508634968553,
50,5,o,#3ced1d,59,55,151,,,,,0,37,37,173,,,3.26707733313918,,,,,,,,,,,581.2863100999966,584.5607783999876,584.5438793999929,585.044645099988,585.044645099988,None,2,0.622104499998386,585.044645099988,None,584.5438793999929,585.044645099988,585.044645099988,None,1140,587.7133825999917,None,585.7271100999933,587.7300970999931,587.7133825999917,None,None,None,None,,,,IA6LI11,1,Serial_COM3,C:\Users\EEG\Desktop\FINALCoScienceTasksLogfiles\,2022_Jan_05_1046,Gambling,2020.1.3,59.97508634968553,
0,7,x,#ed1c24,9,7,200,,,,,0,38,38,227,,,3.19085409425504,,,,,,,,,,,588.7578203000012,591.9500790999882,591.9335651000001,592.4338191999996,592.4338191999996,None,4,2.139761099999305,592.4338191999996,None,591.9335651000001,592.4338191999996,592.4338191999996,None,1140,596.6374967999873,None,594.6353419999941,596.6374967999873,596.6374967999873,None,None,None,None,,,,IA6LI11,1,Serial_COM3,C:\Users\EEG\Desktop\FINALCoScienceTasksLogfiles\,2022_Jan_05_1046,Gambling,2020.1.3,59.97508634968553,
0,4,o,#3ced1d,9,4,101,,,,,0,39,39,8,,,2.9223823563987765,,,,,,,,,,,597.6311963999906,600.5573079999886,600.5407392999914,601.0409848999989,601.0409848999989,None,2,0.6917165000049863,601.0409848999989,None,600.5407392999914,601.0409848999989,601.0409848999989,None,1140,603.7599301000009,None,601.7700763999892,603.7770267999877,603.7599301000009,None,None,None,None,,,,IA6LI11,1,Serial_COM3,C:\Users\EEG\Desktop\FINALCoScienceTasksLogfiles\,2022_Jan_05_1046,Gambling,2020.1.3,59.97508634968553,
0,5,x,#ed1c24,9,5,100,,,,,0,40,40,121,,,4.317007099982475,,,,,,,,,,,604.7696395999956,609.0983941999875,609.0644739999989,609.5647547999979,609.5647547999979,None,2,0.6389292000094429,609.5647547999979,None,609.0644739999989,609.5647547999979,609.5647547999979,None,1140,612.2338563999947,None,610.2366242999997,612.2503486999922,612.2338563999947,None,None,None,None,,,,IA6LI11,1,Serial_COM3,C:\Users\EEG\Desktop\FINALCoScienceTasksLogfiles\,2022_Jan_05_1046,Gambling,2020.1.3,59.97508634968553,
0,5,o,#3ced1d,9,5,101,,,,,0,41,41,107,,,4.111015808546618,,,,,,,,,,,613.2401122999872,617.3545761999994,617.3545761999994,617.8551210000005,617.8551210000005,None,2,0.4246899999998277,617.8551210000005,None,617.3545761999994,617.8551210000005,617.8551210000005,None,1140,620.2904931999947,None,618.3120128999872,620.3253564999904,620.2904931999947,None,None,None,None,,,,IA6LI11,1,Serial_COM3,C:\Users\EEG\Desktop\FINALCoScienceTasksLogfiles\,2022_Jan_05_1046,Gambling,2020.1.3,59.97508634968553,
50,5,x,#ed1c24,59,55,150,,,,,0,42,42,194,,,3.8539197372754135,,,,,,,,,,,621.2988662999996,625.1612018999876,625.1444626999873,625.6447967999993,625.6447967999993,None,2,0.5406950000033248,625.6447967999993,None,625.1444626999873,625.6447967999993,625.6447967999993,None,1090,628.2136578999925,None,626.2165434999915,628.2302858999901,628.2136578999925,None,None,None,None,,,,IA6LI11,1,Serial_COM3,C:\Users\EEG\Desktop\FINALCoScienceTasksLogfiles\,2022_Jan_05_1046,Gambling,2020.1.3,59.97508634968553,
50,4,x,#ed1c24,59,54,150,,,,,0,43,43,94,,,2.6184558049277076,,,,,,,,,,,629.2741840999952,631.9000851999881,631.8833205999981,632.3837585000001,632.3837585000001,None,2,0.5860499999980675,632.3837585000001,None,631.8833205999981,632.3837585000001,632.3837585000001,None,1040,635.0025722999999,None,633.0036974999966,635.0025722999999,635.0025722999999,None,None,None,None,,,,IA6LI11,1,Serial_COM3,C:\Users\EEG\Desktop\FINALCoScienceTasksLogfiles\,2022_Jan_05_1046,Gambling,2020.1.3,59.97508634968553,
50,4,x,#ed1c24,59,54,150,,,,,0,44,44,92,,,3.5419410509424614,,,,,,,,,,,636.0328918999876,639.5898211999884,639.5731694999995,640.0737668999936,640.0569978999993,None,2,0.5277717999997549,640.0569978999993,None,639.5731694999995,640.0737668999936,640.0569978999993,None,990,642.6089243999886,None,640.6095402999927,642.6089243999886,642.6089243999886,None,None,None,None,,,,IA6LI11,1,Serial_COM3,C:\Users\EEG\Desktop\FINALCoScienceTasksLogfiles\,2022_Jan_05_1046,Gambling,2020.1.3,59.97508634968553,
10,5,x,#ed1c24,19,15,110,,,,,0,45,45,161,,,2.6967449600737146,,,,,,,,,,,643.6497776999895,646.3630894999951,646.3284989999956,646.8289826999971,646.8289826999971,None,2,0.6193927000131225,646.8289826999971,None,646.3284989999956,646.8289826999971,646.8289826999971,None,980,649.4817043999938,None,647.4818086999876,649.4817043999938,649.4817043999938,None,None,None,None,,,,IA6LI11,1,Serial_COM3,C:\Users\EEG\Desktop\FINALCoScienceTasksLogfiles\,2022_Jan_05_1046,Gambling,2020.1.3,59.97508634968553,
0,5,x,#ed1c24,9,5,100,,,,,0,46,46,129,,,3.8260905635707845,,,,,,,,,,,650.5044442999933,654.3354542999878,654.3354542999878,654.8357221999904,654.8357221999904,None,4,7.58814639999764,654.8357221999904,None,654.3354542999878,654.8357221999904,654.8357221999904,None,980,664.443720299998,None,662.4445033999946,664.443720299998,664.443720299998,None,None,None,None,,,,IA6LI11,1,Serial_COM3,C:\Users\EEG\Desktop\FINALCoScienceTasksLogfiles\,2022_Jan_05_1046,Gambling,2020.1.3,59.97508634968553,
50,7,o,#3ced1d,59,57,251,,,,,0,47,47,230,,,3.363277732768544,,,,,,,,,,,665.4581431999977,668.8308400999958,668.8141873999994,669.3143667999975,669.3143667999975,None,4,2.351572200001101,669.3143667999975,None,668.8141873999994,669.3143667999975,669.3143667999975,None,1030,673.7180469000014,None,671.7163586999959,673.7180469000014,673.7180469000014,None,None,None,None,,,,IA6LI11,1,Serial_COM3,C:\Users\EEG\Desktop\FINALCoScienceTasksLogfiles\,2022_Jan_05_1046,Gambling,2020.1.3,59.97508634968553,
0,5,x,#ed1c24,9,5,100,,,,,0,48,48,124,,,2.906497929517709,,,,,,,,,,,674.7456119999988,677.6547728000005,677.6381070999923,678.1384091999935,678.1384091999935,None,4,1.0682426999992458,678.1384091999935,None,677.6381070999923,678.1384091999935,678.1384091999935,None,1030,681.2576958999998,None,679.2689369,681.2745135000005,681.2576958999998,None,None,None,None,,,,IA6LI11,1,Serial_COM3,C:\Users\EEG\Desktop\FINALCoScienceTasksLogfiles\,2022_Jan_05_1046,Gambling,2020.1.3,59.97508634968553,
50,4,x,#ed1c24,59,54,150,,,,,0,49,49,91,,,2.9289104421890815,,,,,,,,,,,682.2568766999902,685.1943103999947,685.1776304999948,685.6784484999953,685.6784484999953,None,2,1.5682039999956032,685.6784484999953,None,685.1776304999948,685.6784484999953,685.6784484999953,None,980,689.2644039000006,None,687.2654431999981,689.2810419000016,689.2644039000006,None,None,None,None,,,,IA6LI11,1,Serial_COM3,C:\Users\EEG\Desktop\FINALCoScienceTasksLogfiles\,2022_Jan_05_1046,Gambling,2020.1.3,59.97508634968553,
10,4,x,#ed1c24,19,14,110,,,,,0,50,50,54,,,4.3670336401020515,,,,,,,,,,,690.3215841999918,694.7021358999918,694.6856144999911,695.1861083999975,695.1861083999975,None,2,1.2114185999962501,695.1861083999975,None,694.6856144999911,695.1861083999975,695.1861083999975,None,970,698.4218538999994,None,696.4228669000004,698.4218538999994,698.4218538999994,None,None,None,None,,,,IA6LI11,1,Serial_COM3,C:\Users\EEG\Desktop\FINALCoScienceTasksLogfiles\,2022_Jan_05_1046,Gambling,2020.1.3,59.97508634968553,
10,4,o,#3ced1d,19,14,111,,,,,0,51,51,49,,,3.524435222568646,,,,,,,,,,,699.4640206999902,702.9924148999999,702.9758977999882,703.4761804999871,703.4761804999871,None,2,0.5667679000034695,703.4761804999871,None,702.9758977999882,703.4761804999871,703.4761804999871,None,980,706.0950400000002,None,704.0940044999879,706.0950400000002,706.0950400000002,None,None,None,None,,,,IA6LI11,1,Serial_COM3,C:\Users\EEG\Desktop\FINALCoScienceTasksLogfiles\,2022_Jan_05_1046,Gambling,2020.1.3,59.97508634968553,
50,6,x,#ed1c24,59,56,250,,,,,0,52,52,225,,,3.729020538863952,,,,,,,,,,,707.1278690999898,710.8656218999968,710.8491106000001,711.3493634999904,711.3493634999904,None,4,2.1590945000061765,711.3493634999904,None,710.8491106000001,711.3493634999904,711.3493634999904,None,930,715.5530601999926,None,713.5662293999922,715.5697262999893,715.5530601999926,None,None,None,None,,,,IA6LI11,1,Serial_COM3,C:\Users\EEG\Desktop\FINALCoScienceTasksLogfiles\,2022_Jan_05_1046,Gambling,2020.1.3,59.97508634968553,
0,4,x,#ed1c24,9,4,100,,,,,0,53,53,28,,,3.663684075848967,,,,,,,,,,,716.6033011999971,720.2734745999915,720.2567464999884,720.7573876999959,720.7573876999959,None,2,1.514583299998776,720.7573876999959,None,720.2567464999884,720.7573876999959,720.7573876999959,None,930,724.2934444999992,None,722.2980333999876,724.3103158999875,724.2934444999992,None,None,None,None,,,,IA6LI11,1,Serial_COM3,C:\Users\EEG\Desktop\FINALCoScienceTasksLogfiles\,2022_Jan_05_1046,Gambling,2020.1.3,59.97508634968553,
50,4,x,#ed1c24,59,54,150,,,,,0,54,54,101,,,2.9433698625605036,,,,,,,,,,,725.3023996999982,728.246736999994,728.2302003999939,728.73039289999,728.73039289999,None,2,2.5505365999997593,728.73039289999,None,728.2302003999939,728.73039289999,728.73039289999,None,880,733.3009146999975,None,731.3012687999872,733.3009146999975,733.3009146999975,None,None,None,None,,,,IA6LI11,1,Serial_COM3,C:\Users\EEG\Desktop\FINALCoScienceTasksLogfiles\,2022_Jan_05_1046,Gambling,2020.1.3,59.97508634968553,
10,4,x,#ed1c24,19,14,110,,,,,0,55,55,60,,,4.4273461577696045,,,,,,,,,,,734.3340831999958,738.7723015999945,738.7556731999939,739.2558653999877,739.2558653999877,None,2,0.761004400003003,739.2558653999877,None,738.7556731999939,739.2558653999877,739.2558653999877,None,870,742.0414881999895,None,740.0425030999904,742.0414881999895,742.0414881999895,None,None,None,None,,,,IA6LI11,1,Serial_COM3,C:\Users\EEG\Desktop\FINALCoScienceTasksLogfiles\,2022_Jan_05_1046,Gambling,2020.1.3,59.97508634968553,
10,4,o,#3ced1d,19,14,111,,,,,0,56,56,50,,,2.6669525254636595,,,,,,,,,,,743.0775781999982,745.7444249999971,745.7444249999971,746.2450473999925,746.2450473999925,None,2,0.44714449999446515,746.2450473999925,None,745.7444249999971,746.2450473999925,746.2450473999925,None,880,748.7472885999887,None,746.756017599997,748.7639186999877,748.7472885999887,None,None,None,None,,,,IA6LI11,1,Serial_COM3,C:\Users\EEG\Desktop\FINALCoScienceTasksLogfiles\,2022_Jan_05_1046,Gambling,2020.1.3,59.97508634968553,
50,5,o,#3ced1d,59,55,151,,,,,0,57,57,172,,,2.886191575491849,,,,,,,,,,,749.7829692999949,752.6838882999873,752.6670216999919,753.1674794999999,753.1674794999999,None,2,10.86822519999987,753.1674794999999,None,752.6670216999919,753.1674794999999,753.1674794999999,None,930,766.0616650000011,None,764.0620945999981,766.0616650000011,766.0616650000011,None,None,None,None,,,,IA6LI11,1,Serial_COM3,C:\Users\EEG\Desktop\FINALCoScienceTasksLogfiles\,2022_Jan_05_1046,Gambling,2020.1.3,59.97508634968553,
50,4,o,#3ced1d,59,54,151,,,,,0,58,58,77,,,3.7138302277501345,,,,,,,,,,,767.1127008999902,770.8321136000013,770.8153982999938,771.3159252999903,771.3159252999903,None,2,1.1886161000002176,771.3159252999903,None,770.8153982999938,771.3159252999903,771.3159252999903,None,980,774.5352634999872,None,772.5399164999981,774.5520334999892,774.5352634999872,None,None,None,None,,,,IA6LI11,1,Serial_COM3,C:\Users\EEG\Desktop\FINALCoScienceTasksLogfiles\,2022_Jan_05_1046,Gambling,2020.1.3,59.97508634968553,
50,5,x,#ed1c24,59,55,150,,,,,0,59,59,192,,,4.224520638223483,,,,,,,,,,,775.5645869,779.7897802999942,779.7728575999936,780.2735256999877,780.2735256999877,None,2,1.235080200000084,780.2735256999877,None,779.7728575999936,780.2735256999877,780.2735256999877,None,930,783.5593605999893,None,781.5592207999871,783.5593605999893,783.5593605999893,None,784.5926873999997,None,space,36.02301030000672,,,IA6LI11,1,Serial_COM3,C:\Users\EEG\Desktop\FINALCoScienceTasksLogfiles\,2022_Jan_05_1046,Gambling,2020.1.3,59.97508634968553,
50,4,x,#ed1c24,59,54,150,,,,,0,60,60,99,,,3.7694375662975634,,,,,,,,,,,821.6384765999974,825.4110958999954,825.3942720999912,825.8946599999908,825.8946599999908,None,2,0.8180505000054836,825.8946599999908,None,825.3942720999912,825.8946599999908,825.8946599999908,None,880,828.7304459000006,None,826.7318588999915,828.7471370999992,828.7304459000006,None,None,None,None,,,,IA6LI11,1,Serial_COM3,C:\Users\EEG\Desktop\FINALCoScienceTasksLogfiles\,2022_Jan_05_1046,Gambling,2020.1.3,59.97508634968553,
50,5,o,#3ced1d,59,55,151,,,,,0,61,61,178,,,2.6448326015764025,,,,,,,,,,,829.7623313999939,832.4167275999935,832.3999225000007,832.900562099996,832.900562099996,None,2,0.6813108999922406,832.900562099996,None,832.3999225000007,832.900562099996,832.900562099996,None,930,835.6360323999979,None,833.6351852999942,835.6360323999979,835.6360323999979,None,None,None,None,,,,IA6LI11,1,Serial_COM3,C:\Users\EEG\Desktop\FINALCoScienceTasksLogfiles\,2022_Jan_05_1046,Gambling,2020.1.3,59.97508634968553,
50,5,x,#ed1c24,59,55,150,,,,,0,62,62,189,,,2.6288400193907764,,,,,,,,,,,836.6654001999996,839.3059128999885,839.2892185999954,839.7896536999906,839.7896536999906,None,2,0.6759318999975221,839.7896536999906,None,839.2892185999954,839.7896536999906,839.7896536999906,None,880,842.52509499999,None,840.5244931999914,842.52509499999,842.52509499999,None,None,None,None,,,,IA6LI11,1,Serial_COM3,C:\Users\EEG\Desktop\FINALCoScienceTasksLogfiles\,2022_Jan_05_1046,Gambling,2020.1.3,59.97508634968553,
10,5,x,#ed1c24,19,15,110,,,,,0,63,63,166,,,3.368011892340882,,,,,,,,,,,843.5614725999912,846.9287321000011,846.9287321000011,847.4293093999877,847.4293093999877,None,2,0.9064628999913111,847.4293093999877,None,846.9287321000011,847.4293093999877,847.4293093999877,None,870,850.3650827999954,None,848.3696379999892,850.3816776999884,850.3650827999954,None,None,None,None,,,,IA6LI11,1,Serial_COM3,C:\Users\EEG\Desktop\FINALCoScienceTasksLogfiles\,2022_Jan_05_1046,Gambling,2020.1.3,59.97508634968553,
10,5,x,#ed1c24,19,15,110,,,,,0,64,64,169,,,3.214069630993726,,,,,,,,,,,851.400771399989,854.6184391999996,854.6184391999996,855.118990899995,855.118990899995,None,2,0.44066900000325404,855.118990899995,None,854.6184391999996,855.118990899995,855.118990899995,None,860,857.5876476999983,None,855.5876328000013,857.5876476999983,857.5876476999983,None,None,None,None,,,,IA6LI11,1,Serial_COM3,C:\Users\EEG\Desktop\FINALCoScienceTasksLogfiles\,2022_Jan_05_1046,Gambling,2020.1.3,59.97508634968553,
0,5,x,#ed1c24,9,5,100,,,,,0,65,65,135,,,2.984629072575922,,,,,,,,,,,858.617505999995,861.6078194000002,861.591110399997,862.0912941999995,862.0912941999995,None,2,0.48834210001223255,862.0912941999995,None,861.591110399997,862.0912941999995,862.0912941999995,None,860,864.6101539999945,None,862.6110405999934,864.6101539999945,864.6101539999945,None,None,None,None,,,,IA6LI11,1,Serial_COM3,C:\Users\EEG\Desktop\FINALCoScienceTasksLogfiles\,2022_Jan_05_1046,Gambling,2020.1.3,59.97508634968553,
10,4,o,#3ced1d,19,14,111,,,,,0,66,66,39,,,3.2882129582932444,,,,,,,,,,,865.6128370999941,868.9140094999893,868.89733349999,869.3978002999938,869.3807852999889,None,2,0.5980775999923935,869.3807852999889,None,868.89733349999,869.3978002999938,869.3807852999889,None,870,872.0164399999921,None,870.0302857999923,872.0330154999974,872.0164399999921,None,None,None,None,,,,IA6LI11,1,Serial_COM3,C:\Users\EEG\Desktop\FINALCoScienceTasksLogfiles\,2022_Jan_05_1046,Gambling,2020.1.3,59.97508634968553,
0,5,o,#3ced1d,9,5,101,,,,,0,67,67,111,,,4.358909916441737,,,,,,,,,,,873.0533326000004,877.4207743000006,877.4040702999919,877.904514599999,877.904514599999,None,2,0.6672122000018135,877.904514599999,None,877.4040702999919,877.904514599999,877.904514599999,None,870,880.5902102999971,None,878.5939945999999,880.6069436999969,880.5902102999971,None,None,None,None,,,,IA6LI11,1,Serial_COM3,C:\Users\EEG\Desktop\FINALCoScienceTasksLogfiles\,2022_Jan_05_1046,Gambling,2020.1.3,59.97508634968553,
10,2,o,#3ced1d,19,12,211,,,,,0,68,68,205,,,4.163851354199004,,,,,,,,,,,881.6111541999999,885.7777486999985,885.7610615000012,886.2614810999949,886.2614810999949,None,2,0.738162800000282,886.2614810999949,None,885.7610615000012,886.2614810999949,886.2614810999949,None,880,889.0304351999948,None,887.033497299999,889.0472932999983,889.0304351999948,None,None,None,None,,,,IA6LI11,1,Serial_COM3,C:\Users\EEG\Desktop\FINALCoScienceTasksLogfiles\,2022_Jan_05_1046,Gambling,2020.1.3,59.97508634968553,
50,5,o,#3ced1d,59,55,151,,,,,0,69,69,180,,,4.280169078172513,,,,,,,,,,,890.0782428999955,894.3683822999883,894.3516986999894,894.8524762000015,894.8524762000015,None,2,0.5180462999996962,894.8524762000015,None,894.3516986999894,894.8524762000015,894.8524762000015,None,930,897.3875562999892,None,895.3879678999947,897.3875562999892,897.3875562999892,None,None,None,None,,,,IA6LI11,1,Serial_COM3,C:\Users\EEG\Desktop\FINALCoScienceTasksLogfiles\,2022_Jan_05_1046,Gambling,2020.1.3,59.97508634968553,
10,5,o,#3ced1d,19,15,111,,,,,0,70,70,152,,,3.9582298988706746,,,,,,,,,,,898.4242259999883,902.3915711000009,902.3748916999903,902.8753017999989,902.8753017999989,None,2,0.6113407000084408,902.8753017999989,None,902.3748916999903,902.8753017999989,902.8753017999989,None,940,905.5109812999872,None,903.5144450999942,905.5276390999934,905.5109812999872,None,None,None,None,,,,IA6LI11,1,Serial_COM3,C:\Users\EEG\Desktop\FINALCoScienceTasksLogfiles\,2022_Jan_05_1046,Gambling,2020.1.3,59.97508634968553,
0,4,x,#ed1c24,9,4,100,,,,,0,71,71,31,,,3.452268157641455,,,,,,,,,,,906.5345272999984,909.9978464000014,909.9812416999921,910.4818133999943,910.4818133999943,None,2,0.44072280000546016,910.4818133999943,None,909.9812416999921,910.4818133999943,910.4818133999943,None,940,912.9837068999914,None,910.9834834999929,912.9837068999914,912.9837068999914,None,None,None,None,,,,IA6LI11,1,Serial_COM3,C:\Users\EEG\Desktop\FINALCoScienceTasksLogfiles\,2022_Jan_05_1046,Gambling,2020.1.3,59.97508634968553,
50,7,x,#ed1c24,59,57,250,,,,,0,72,72,231,,,4.093858360221825,,,,,,,,,,,913.976477499993,918.0712651999929,918.0545845999877,918.5550783999934,918.5550783999934,None,4,0.7898334000055911,918.5550783999934,None,918.0545845999877,918.5550783999934,918.5550783999934,None,890,921.3739454999886,None,919.3748154999921,921.3739454999886,921.3739454999886,None,None,None,None,,,,IA6LI11,1,Serial_COM3,C:\Users\EEG\Desktop\FINALCoScienceTasksLogfiles\,2022_Jan_05_1046,Gambling,2020.1.3,59.97508634968553,
10,5,x,#ed1c24,19,15,110,,,,,0,73,73,155,,,2.8272876417707824,,,,,,,,,,,922.4207614999905,925.2606277000014,925.2439149999991,925.7444374999905,925.7444374999905,None,2,0.46274620000622235,925.7444374999905,None,925.2439149999991,925.7444374999905,925.7444374999905,None,880,928.2298506999941,None,926.2338955000014,928.2466583999922,928.2298506999941,None,None,None,None,,,,IA6LI11,1,Serial_COM3,C:\Users\EEG\Desktop\FINALCoScienceTasksLogfiles\,2022_Jan_05_1046,Gambling,2020.1.3,59.97508634968553,
0,6,x,#ed1c24,9,6,200,,,,,0,74,74,221,,,2.5719884281352074,,,,,,,,,,,929.2666991000006,931.8493884999916,931.8328372999968,932.3330894999963,932.3330894999963,None,4,1.0875443999975687,932.3330894999963,None,931.8328372999968,932.3330894999963,932.3330894999963,None,880,935.4525943999906,None,933.4532484999945,935.4525943999906,935.4525943999906,None,None,None,None,,,,IA6LI11,1,Serial_COM3,C:\Users\EEG\Desktop\FINALCoScienceTasksLogfiles\,2022_Jan_05_1046,Gambling,2020.1.3,59.97508634968553,
50,4,o,#3ced1d,59,54,151,,,,,0,75,75,83,,,4.003531359073909,,,,,,,,,,,936.4611905999918,940.47321869999,940.4565419999999,940.9569241999998,940.9569241999998,None,2,0.7586883999902057,940.9569241999998,None,940.4565419999999,940.9569241999998,940.9569241999998,None,930,943.7759431000013,None,941.7747230999958,943.7759431000013,943.7759431000013,None,None,None,None,,,,IA6LI11,1,Serial_COM3,C:\Users\EEG\Desktop\FINALCoScienceTasksLogfiles\,2022_Jan_05_1046,Gambling,2020.1.3,59.97508634968553,
0,5,x,#ed1c24,9,5,100,,,,,0,76,76,130,,,2.5881786478446953,,,,,,,,,,,944.8096583000006,947.412273599999,947.3955475999974,947.8960461999959,947.8960461999959,None,2,1.347875199993723,947.8960461999959,None,947.3955475999974,947.8960461999959,947.8960461999959,None,930,951.2990481000015,None,949.3100559000013,951.3154720999883,951.2990481000015,None,None,None,None,,,,IA6LI11,1,Serial_COM3,C:\Users\EEG\Desktop\FINALCoScienceTasksLogfiles\,2022_Jan_05_1046,Gambling,2020.1.3,59.97508634968553,
10,4,x,#ed1c24,19,14,110,,,,,0,77,77,67,,,3.2122566675330093,,,,,,,,,,,952.3004991999915,955.5190663999965,955.5026072999899,956.0032298000006,956.0032298000006,None,2,0.5355940000008559,956.0032298000006,None,955.5026072999899,956.0032298000006,956.0032298000006,None,920,958.5715483999957,None,956.5752984999999,958.5884188999917,958.5715483999957,None,None,None,None,,,,IA6LI11,1,Serial_COM3,C:\Users\EEG\Desktop\FINALCoScienceTasksLogfiles\,2022_Jan_05_1046,Gambling,2020.1.3,59.97508634968553,
0,4,o,#3ced1d,9,4,101,,,,,0,78,78,16,,,4.097418938883448,,,,,,,,,,,959.6360605999944,963.7427267999883,963.7260170999944,964.2264589999977,964.2264589999977,None,2,0.603264899997157,964.2264589999977,None,963.7260170999944,964.2264589999977,964.2264589999977,None,920,966.8952019999997,None,964.8941620999976,966.8952019999997,966.8952019999997,None,None,None,None,,,,IA6LI11,1,Serial_COM3,C:\Users\EEG\Desktop\FINALCoScienceTasksLogfiles\,2022_Jan_05_1046,Gambling,2020.1.3,59.97508634968553,
0,5,o,#3ced1d,9,5,101,,,,,0,79,79,117,,,3.1219520389352056,,,,,,,,,,,967.8817118000006,971.0152936999948,970.9986100999959,971.4989964999986,971.4989964999986,None,2,0.8037936999899102,971.4989964999986,None,970.9986100999959,971.4989964999986,971.4989964999986,None,920,974.3346999999922,None,972.3351068999909,974.3346999999922,974.3346999999922,None,None,None,None,,,,IA6LI11,1,Serial_COM3,C:\Users\EEG\Desktop\FINALCoScienceTasksLogfiles\,2022_Jan_05_1046,Gambling,2020.1.3,59.97508634968553,
10,4,x,#ed1c24,19,14,110,,,,,0,80,80,57,,,3.735571499526241,,,,,,,,,,,975.3443352999893,979.0886527999974,979.0722657000006,979.5723941999895,979.5723941999895,None,2,0.570383899990702,979.5723941999895,None,979.0722657000006,979.5723941999895,979.5723941999895,None,910,982.174706299993,None,980.1844102999894,982.1915223999968,982.174706299993,None,None,None,None,,,,IA6LI11,1,Serial_COM3,C:\Users\EEG\Desktop\FINALCoScienceTasksLogfiles\,2022_Jan_05_1046,Gambling,2020.1.3,59.97508634968553,
10,4,x,#ed1c24,19,14,110,,,,,0,81,81,53,,,2.7026971287738544,,,,,,,,,,,983.227292999989,985.9440384999907,985.9273510999919,986.4282437999937,986.4282437999937,None,2,0.5912758000049507,986.4282437999937,None,985.9273510999919,986.4282437999937,986.4282437999937,None,900,989.0470534999913,None,987.0474478999968,989.0470534999913,989.0470534999913,None,None,None,None,,,,IA6LI11,1,Serial_COM3,C:\Users\EEG\Desktop\FINALCoScienceTasksLogfiles\,2022_Jan_05_1046,Gambling,2020.1.3,59.97508634968553,
10,6,o,#3ced1d,19,16,211,,,,,0,82,82,222,,,3.9270886818789643,,,,,,,,,,,990.0783289999963,994.0177141999884,994.0011162999872,994.5014771999995,994.5014771999995,None,4,0.8494669999927282,994.5014771999995,None,994.0011162999872,994.5014771999995,994.5014771999995,None,910,997.4040162999881,None,995.4025039999979,997.4040162999881,997.4040162999881,None,None,None,None,,,,IA6LI11,1,Serial_COM3,C:\Users\EEG\Desktop\FINALCoScienceTasksLogfiles\,2022_Jan_05_1046,Gambling,2020.1.3,59.97508634968553,
50,4,o,#3ced1d,59,54,151,,,,,0,83,83,78,,,3.1734708685936885,,,,,,,,,,,998.4325371999876,1001.6073783999891,1001.5907073999988,1002.0911588999879,1002.0911588999879,None,2,1.1326592999976128,1002.0911588999879,None,1001.5907073999988,1002.0911588999879,1002.0911588999879,None,960,1005.2438404999994,None,1003.2448251999886,1005.260403399996,1005.2438404999994,None,None,None,None,,,,IA6LI11,1,Serial_COM3,C:\Users\EEG\Desktop\FINALCoScienceTasksLogfiles\,2022_Jan_05_1046,Gambling,2020.1.3,59.97508634968553,
10,4,x,#ed1c24,19,14,110,,,,,0,84,84,61,,,4.338724529656487,,,,,,,,,,,1006.2763972999965,1010.6149912999972,1010.6149912999972,1011.1152717999939,1011.1152717999939,None,2,0.9175548999919556,1011.1152717999939,None,1010.6149912999972,1011.1152717999939,1011.1152717999939,None,950,1014.0846102999931,None,1012.0847555999935,1014.0846102999931,1014.0846102999931,None,None,None,None,,,,IA6LI11,1,Serial_COM3,C:\Users\EEG\Desktop\FINALCoScienceTasksLogfiles\,2022_Jan_05_1046,Gambling,2020.1.3,59.97508634968553,
50,5,x,#ed1c24,59,55,150,,,,,0,85,85,196,,,4.438809068734664,,,,,,,,,,,1015.1280410999898,1019.5724566999997,1019.5556212999945,1020.0560641999909,1020.0560641999909,None,2,1.0397244000050705,1020.0560641999909,None,1019.5556212999945,1020.0560641999909,1020.0560641999909,None,900,1023.1252976999967,None,1021.1295051999914,1023.1419341000001,1023.1252976999967,None,None,None,None,,,,IA6LI11,1,Serial_COM3,C:\Users\EEG\Desktop\FINALCoScienceTasksLogfiles\,2022_Jan_05_1046,Gambling,2020.1.3,59.97508634968553,
0,4,x,#ed1c24,9,4,100,,,,,0,86,86,32,,,2.7579305040463113,,,,,,,,,,,1024.1649711999926,1026.9284324999899,1026.9284324999899,1027.4289663999953,1027.4289663999953,None,2,2.8465986999945017,1027.4289663999953,None,1026.9284324999899,1027.4289663999953,1027.4289663999953,None,900,1032.2996883000014,None,1030.3005881999998,1032.3162936000008,1032.2996883000014,None,None,None,None,,,,IA6LI11,1,Serial_COM3,C:\Users\EEG\Desktop\FINALCoScienceTasksLogfiles\,2022_Jan_05_1046,Gambling,2020.1.3,59.97508634968553,
0,5,x,#ed1c24,9,5,100,,,,,0,87,87,134,,,2.8837707553999516,,,,,,,,,,,1033.3052876000002,1036.202813099997,1036.1861289999943,1036.6866322999995,1036.6866322999995,None,2,0.6390010000031907,1036.6866322999995,None,1036.1861289999943,1036.6866322999995,1036.6866322999995,None,900,1039.3555906999973,None,1037.3603669000004,1039.3722607999953,1039.3555906999973,None,None,None,None,,,,IA6LI11,1,Serial_COM3,C:\Users\EEG\Desktop\FINALCoScienceTasksLogfiles\,2022_Jan_05_1046,Gambling,2020.1.3,59.97508634968553,
10,4,o,#3ced1d,19,14,111,,,,,0,88,88,47,,,3.2016900176343315,,,,,,,,,,,1040.3693537999934,1043.575739699998,1043.5589948999987,1044.0594584999926,1044.0594584999926,None,2,0.6691238999919733,1044.0594584999926,None,1043.5589948999987,1044.0594584999926,1044.0594584999926,None,910,1046.7952323999925,None,1044.8082862999872,1046.8116077000013,1046.7952323999925,None,None,None,None,,,,IA6LI11,1,Serial_COM3,C:\Users\EEG\Desktop\FINALCoScienceTasksLogfiles\,2022_Jan_05_1046,Gambling,2020.1.3,59.97508634968553,
0,4,o,#3ced1d,9,4,101,,,,,0,89,89,13,,,3.6400859958421643,,,,,,,,,,,1047.8226861000003,1051.4654657999927,1051.4488175000006,1051.9494005000015,1051.9494005000015,None,2,0.6733862999972189,1051.9494005000015,None,1051.4488175000006,1051.9494005000015,1051.9494005000015,None,910,1054.6521035999904,None,1052.6564081999968,1054.6681704999937,1054.6521035999904,None,None,None,None,,,,IA6LI11,1,Serial_COM3,C:\Users\EEG\Desktop\FINALCoScienceTasksLogfiles\,2022_Jan_05_1046,Gambling,2020.1.3,59.97508634968553,
50,2,o,#3ced1d,59,52,251,,,,,0,90,90,208,,,3.5882242419878407,,,,,,,,,,,1055.665026799994,1059.255281699996,1059.238795799989,1059.7392110999936,1059.7392110999936,None,2,2.0658639000030234,1059.7392110999936,None,1059.238795799989,1059.7392110999936,1059.7392110999936,None,960,1063.8257756999956,None,1061.8267353999981,1063.8424939999968,1063.8257756999956,None,None,None,None,,,,IA6LI11,1,Serial_COM3,C:\Users\EEG\Desktop\FINALCoScienceTasksLogfiles\,2022_Jan_05_1046,Gambling,2020.1.3,59.97508634968553,
0,5,x,#ed1c24,9,5,100,,,,,0,91,91,127,,,4.1492062695665695,,,,,,,,,,,1064.8769354999968,1069.0301779000001,1069.013583299995,1069.5138436999987,1069.5138436999987,None,4,0.5917244000011124,1069.5138436999987,None,1069.013583299995,1069.5138436999987,1069.5138436999987,None,960,1072.1660429999902,None,1070.180674599993,1072.1828736999887,1072.1660429999902,None,None,None,None,,,,IA6LI11,1,Serial_COM3,C:\Users\EEG\Desktop\FINALCoScienceTasksLogfiles\,2022_Jan_05_1046,Gambling,2020.1.3,59.97508634968553,
0,4,o,#3ced1d,9,4,101,,,,,0,92,92,11,,,3.98938333101482,,,,,,,,,,,1073.1527742999897,1077.1536639999977,1077.1369987999933,1077.6373912999989,1077.6373912999989,None,2,0.6543041999975685,1077.6373912999989,None,1077.1369987999933,1077.6373912999989,1077.6373912999989,None,960,1080.3227245999879,None,1078.3455755999894,1080.3574862999958,1080.3227245999879,None,None,None,None,,,,IA6LI11,1,Serial_COM3,C:\Users\EEG\Desktop\FINALCoScienceTasksLogfiles\,2022_Jan_05_1046,Gambling,2020.1.3,59.97508634968553,
10,5,x,#ed1c24,19,15,110,,,,,0,93,93,167,,,3.043533635285695,,,,,,,,,,,1081.3344597999967,1084.3939905000007,1084.3596068999905,1084.859952599989,1084.859952599989,None,2,0.4887388000061037,1084.859952599989,None,1084.3596068999905,1084.859952599989,1084.859952599989,None,950,1087.3787962999922,None,1085.3824629999872,1087.395364099997,1087.3787962999922,None,None,None,None,,,,IA6LI11,1,Serial_COM3,C:\Users\EEG\Desktop\FINALCoScienceTasksLogfiles\,2022_Jan_05_1046,Gambling,2020.1.3,59.97508634968553,
10,4,o,#3ced1d,19,14,111,,,,,0,94,94,36,,,3.828553081146219,,,,,,,,,,,1088.424345499996,1092.2661248999939,1092.2496162999887,1092.750042899992,1092.750042899992,None,2,0.9845830000122078,1092.750042899992,None,1092.2496162999887,1092.750042899992,1092.750042899992,None,960,1095.8023676000012,None,1093.8253047999897,1095.8378230999951,1095.8023676000012,None,None,None,None,,,,IA6LI11,1,Serial_COM3,C:\Users\EEG\Desktop\FINALCoScienceTasksLogfiles\,2022_Jan_05_1046,Gambling,2020.1.3,59.97508634968553,
0,4,o,#3ced1d,9,4,101,,,,,0,95,95,7,,,3.182330603662341,,,,,,,,,,,1096.8457813999994,1100.039213799988,1100.022509699993,1100.5229492999933,1100.5229492999933,None,2,0.5187631000007968,1100.5229492999933,None,1100.022509699993,1100.5229492999933,1100.5229492999933,None,960,1103.0584764999949,None,1101.0627653999982,1103.0750539,1103.0584764999949,None,None,None,None,,,,IA6LI11,1,Serial_COM3,C:\Users\EEG\Desktop\FINALCoScienceTasksLogfiles\,2022_Jan_05_1046,Gambling,2020.1.3,59.97508634968553,
10,4,o,#3ced1d,19,14,111,,,,,0,96,96,41,,,3.892224433468116,,,,,,,,,,,1104.0670022999984,1107.96273069999,1107.9459639999986,1108.4463783999963,1108.4463783999963,None,2,0.4815517000097316,1108.4463783999963,None,1107.9459639999986,1108.4463783999963,1108.4463783999963,None,970,1110.9484232999966,None,1108.9527933999925,1110.9648833999963,1110.9484232999966,None,None,None,None,,,,IA6LI11,1,Serial_COM3,C:\Users\EEG\Desktop\FINALCoScienceTasksLogfiles\,2022_Jan_05_1046,Gambling,2020.1.3,59.97508634968553,
0,4,o,#3ced1d,9,4,101,,,,,0,97,97,5,,,3.8144299484318203,,,,,,,,,,,1111.9905391999928,1115.8214833999955,1115.7858607999951,1116.2861129999947,1116.2861129999947,None,2,0.4996232000121381,1116.2861129999947,None,1115.7858607999951,1116.2861129999947,1116.2861129999947,None,970,1118.8047081999975,None,1116.8091308000003,1118.8217082999909,1118.8047081999975,None,None,None,None,,,,IA6LI11,1,Serial_COM3,C:\Users\EEG\Desktop\FINALCoScienceTasksLogfiles\,2022_Jan_05_1046,Gambling,2020.1.3,59.97508634968553,
50,6,o,#3ced1d,59,56,251,,,,,0,98,98,224,,,3.7488310021504074,,,,,,,,,,,1119.817817499992,1123.5754566999967,1123.5588253999886,1124.0594157000014,1124.0594157000014,None,4,1.273276199994143,1124.0594157000014,None,1123.5588253999886,1124.0594157000014,1124.0594157000014,None,1020,1127.3621178999892,None,1125.3627478999988,1127.3621178999892,1127.3621178999892,None,None,None,None,,,,IA6LI11,1,Serial_COM3,C:\Users\EEG\Desktop\FINALCoScienceTasksLogfiles\,2022_Jan_05_1046,Gambling,2020.1.3,59.97508634968553,
50,2,x,#ed1c24,59,52,250,,,,,0,99,99,209,,,3.1174861086162613,,,,,,,,,,,1128.3986533999996,1131.5153830999916,1131.5153830999916,1132.0157996999915,1132.0157996999915,None,2,0.6397828000044683,1132.0157996999915,None,1131.5153830999916,1132.0157996999915,1132.0157996999915,None,970,1134.7180018999934,None,1132.7174152999942,1134.7180018999934,1134.7180018999934,None,None,None,None,,,,IA6LI11,1,Serial_COM3,C:\Users\EEG\Desktop\FINALCoScienceTasksLogfiles\,2022_Jan_05_1046,Gambling,2020.1.3,59.97508634968553,
50,4,x,#ed1c24,59,54,150,,,,,0,100,100,95,,,4.399603473137658,,,,,,,,,,,1135.7484786999994,1140.1560264,1140.139235499999,1140.6397774999932,1140.6397774999932,None,2,0.641828700012411,1140.6397774999932,None,1140.139235499999,1140.6397774999932,1140.6397774999932,None,920,1143.3086762999883,None,1141.312700399998,1143.3252065999986,1143.3086762999883,None,None,None,None,,,,IA6LI11,1,Serial_COM3,C:\Users\EEG\Desktop\FINALCoScienceTasksLogfiles\,2022_Jan_05_1046,Gambling,2020.1.3,59.97508634968553,
50,4,x,#ed1c24,59,54,150,,,,,0,101,101,98,,,2.876222253247143,,,,,,,,,,,1144.355915799999,1147.2453035999933,1147.2286183999968,1147.7288654000004,1147.7288654000004,None,4,2.120818199997302,1147.7288654000004,None,1147.2286183999968,1147.7288654000004,1147.7288654000004,None,870,1151.8823402999988,None,1149.8827765999886,1151.8823402999988,1151.8823402999988,None,None,None,None,,,,IA6LI11,1,Serial_COM3,C:\Users\EEG\Desktop\FINALCoScienceTasksLogfiles\,2022_Jan_05_1046,Gambling,2020.1.3,59.97508634968553,
10,4,o,#3ced1d,19,14,111,,,,,0,102,102,43,,,3.916580007458129,,,,,,,,,,,1152.9073910000006,1156.8367743999988,1156.8031983999972,1157.3034828999953,1157.3034828999953,None,2,0.40336070000194013,1157.3034828999953,None,1156.8031983999972,1157.3034828999953,1157.3034828999953,None,880,1159.789158200001,None,1157.7924938999931,1159.805716399991,1159.789158200001,None,None,None,None,,,,IA6LI11,1,Serial_COM3,C:\Users\EEG\Desktop\FINALCoScienceTasksLogfiles\,2022_Jan_05_1046,Gambling,2020.1.3,59.97508634968553,
50,5,o,#3ced1d,59,55,151,,,,,0,103,103,176,,,3.3054279499780472,,,,,,,,,,,1160.7951698999968,1164.1091578999913,1164.0927327999962,1164.5928653999872,1164.5928653999872,None,4,2.741987200002768,1164.5928653999872,None,1164.0927327999962,1164.5928653999872,1164.5928653999872,None,930,1169.3636712000007,None,1167.3678598999977,1169.3802409999917,1169.3636712000007,None,None,None,None,,,,IA6LI11,1,Serial_COM3,C:\Users\EEG\Desktop\FINALCoScienceTasksLogfiles\,2022_Jan_05_1046,Gambling,2020.1.3,59.97508634968553,
50,4,o,#3ced1d,59,54,151,,,,,0,104,104,74,,,3.2397809173489267,,,,,,,,,,,1170.3949678999925,1173.6338465000008,1173.6338465000008,1174.1340845999948,1174.1340845999948,None,2,1.2473247999878367,1174.1340845999948,None,1173.6338465000008,1174.1340845999948,1174.1340845999948,None,980,1177.4038640999934,None,1175.4043050999899,1177.4038640999934,1177.4038640999934,None,None,None,None,,,,IA6LI11,1,Serial_COM3,C:\Users\EEG\Desktop\FINALCoScienceTasksLogfiles\,2022_Jan_05_1046,Gambling,2020.1.3,59.97508634968553,
50,5,x,#ed1c24,59,55,150,,,,,0,105,105,202,,,3.0031234835078418,,,,,,,,,,,1178.4408990999946,1181.4569268999912,1181.440338299988,1181.9407875999896,1181.9407875999896,None,4,1.7240026999934344,1181.9407875999896,None,1181.440338299988,1181.9407875999896,1181.9407875999896,None,930,1185.7271330999938,None,1183.726639399989,1185.7271330999938,1185.7271330999938,None,None,None,None,,,,IA6LI11,1,Serial_COM3,C:\Users\EEG\Desktop\FINALCoScienceTasksLogfiles\,2022_Jan_05_1046,Gambling,2020.1.3,59.97508634968553,
50,5,o,#3ced1d,59,55,151,,,,,0,106,106,186,,,3.3554793937617395,,,,,,,,,,,1186.7578465999977,1190.1142492999934,1190.0975947999978,1190.5978421999898,1190.5978421999898,None,2,2.499991000004229,1190.5978421999898,None,1190.0975947999978,1190.5978421999898,1190.5978421999898,None,980,1195.15161239999,None,1193.1521893999889,1195.15161239999,1195.15161239999,None,None,None,None,,,,IA6LI11,1,Serial_COM3,C:\Users\EEG\Desktop\FINALCoScienceTasksLogfiles\,2022_Jan_05_1046,Gambling,2020.1.3,59.97508634968553,
0,5,o,#3ced1d,9,5,101,,,,,0,107,107,108,,,3.97944772668584,,,,,,,,,,,1196.1845319999993,1200.1725991999992,1200.1560119999922,1200.656263699988,1200.656263699988,None,2,1.2535137999948347,1200.656263699988,None,1200.1560119999922,1200.656263699988,1200.656263699988,None,980,1203.9422780999885,None,1201.9431639999966,1203.9422780999885,1203.9422780999885,None,None,None,None,,,,IA6LI11,1,Serial_COM3,C:\Users\EEG\Desktop\FINALCoScienceTasksLogfiles\,2022_Jan_05_1046,Gambling,2020.1.3,59.97508634968553,
0,4,x,#ed1c24,9,4,100,,,,,0,108,108,29,,,3.942982542798247,,,,,,,,,,,1204.951274299994,1208.8963624999888,1208.8797290999937,1209.380245399996,1209.380245399996,None,2,1.3043319999997038,1209.380245399996,None,1208.8797290999937,1209.380245399996,1209.380245399996,None,980,1212.7496040999977,None,1210.7479717999959,1212.7496040999977,1212.7496040999977,None,None,None,None,,,,IA6LI11,1,Serial_COM3,C:\Users\EEG\Desktop\FINALCoScienceTasksLogfiles\,2022_Jan_05_1046,Gambling,2020.1.3,59.97508634968553,
0,5,o,#3ced1d,9,5,101,,,,,0,109,109,110,,,3.1439167067192644,,,,,,,,,,,1213.7364698999882,1216.88650339999,1216.8698316999944,1217.3702448999975,1217.3702448999975,None,2,1.219305799997528,1217.3702448999975,None,1216.8698316999944,1217.3702448999975,1217.3702448999975,None,980,1220.6227826999966,None,1218.6326636000013,1220.6396348999988,1220.6227826999966,None,None,None,None,,,,IA6LI11,1,Serial_COM3,C:\Users\EEG\Desktop\FINALCoScienceTasksLogfiles\,2022_Jan_05_1046,Gambling,2020.1.3,59.97508634968553,
0,5,o,#3ced1d,9,5,101,,,,,0,110,110,114,,,2.6720191572684757,,,,,,,,,,,1221.6256505999918,1224.310270899994,1224.275987599991,1224.77626839999,1224.77626839999,None,2,0.5476363000052515,1224.77626839999,None,1224.275987599991,1224.77626839999,1224.77626839999,None,980,1227.345067199989,None,1225.3458087999898,1227.345067199989,1227.345067199989,None,None,None,None,,,,IA6LI11,1,Serial_COM3,C:\Users\EEG\Desktop\FINALCoScienceTasksLogfiles\,2022_Jan_05_1046,Gambling,2020.1.3,59.97508634968553,
50,5,x,#ed1c24,59,55,150,,,,,0,111,111,191,,,3.512094491544211,,,,,,,,,,,1228.355284099991,1231.884163099996,1231.848946699989,1232.3491751999973,1232.3491751999973,None,2,0.6204907999926945,1232.3491751999973,None,1231.848946699989,1232.3491751999973,1232.3491751999973,None,930,1235.001934999993,None,1233.0039140000008,1235.0181138999906,1235.001934999993,None,None,None,None,,,,IA6LI11,1,Serial_COM3,C:\Users\EEG\Desktop\FINALCoScienceTasksLogfiles\,2022_Jan_05_1046,Gambling,2020.1.3,59.97508634968553,
10,4,x,#ed1c24,19,14,110,,,,,0,112,112,58,,,4.165894136872369,,,,,,,,,,,1236.067743599997,1240.2392435999936,1240.222573299994,1240.7229966000014,1240.7229966000014,None,2,0.9276647999940906,1240.7229966000014,None,1240.222573299994,1240.7229966000014,1240.7229966000014,None,920,1243.6753807999921,None,1241.6755077999987,1243.6753807999921,1243.6753807999921,None,None,None,None,,,,IA6LI11,1,Serial_COM3,C:\Users\EEG\Desktop\FINALCoScienceTasksLogfiles\,2022_Jan_05_1046,Gambling,2020.1.3,59.97508634968553,
0,5,x,#ed1c24,9,5,100,,,,,0,113,113,119,,,2.500355641372455,,,,,,,,,,,1244.7026933000016,1247.2115867999964,1247.1948933999956,1247.6953148999892,1247.6953148999892,None,2,1.1412108999938937,1247.6953148999892,None,1247.1948933999956,1247.6953148999892,1247.6953148999892,None,920,1250.8645924999873,None,1248.8655656999908,1250.8645924999873,1250.8645924999873,None,None,None,None,,,,IA6LI11,1,Serial_COM3,C:\Users\EEG\Desktop\FINALCoScienceTasksLogfiles\,2022_Jan_05_1046,Gambling,2020.1.3,59.97508634968553,
0,5,x,#ed1c24,9,5,100,,,,,0,114,114,131,,,4.478899324744022,,,,,,,,,,,1251.870509100001,1256.3526689999999,1256.3526689999999,1256.8529375999933,1256.8529375999933,None,2,1.6001851000037277,1256.8529375999933,None,1256.3526689999999,1256.8529375999933,1256.8529375999933,None,920,1260.4726236999995,None,1258.4734844999912,1260.4726236999995,1260.4726236999995,None,None,None,None,,,,IA6LI11,1,Serial_COM3,C:\Users\EEG\Desktop\FINALCoScienceTasksLogfiles\,2022_Jan_05_1046,Gambling,2020.1.3,59.97508634968553,
0,4,o,#3ced1d,9,4,101,,,,,0,115,115,10,,,3.2412311588010265,,,,,,,,,,,1261.485913899989,1264.7431003999955,1264.7091689999943,1265.2100706999918,1265.2100706999918,None,2,0.8139999999984866,1265.2100706999918,None,1264.7091689999943,1265.2100706999918,1265.2100706999918,None,920,1268.0790830999904,None,1266.091815599997,1268.0956195999897,1268.0790830999904,None,None,None,None,,,,IA6LI11,1,Serial_COM3,C:\Users\EEG\Desktop\FINALCoScienceTasksLogfiles\,2022_Jan_05_1046,Gambling,2020.1.3,59.97508634968553,
10,8,x,#ed1c24,19,18,210,,,,,0,116,116,238,,,4.191523715324776,,,,,,,,,,,1269.0649911999935,1273.2665781999967,1273.2500734999921,1273.7503117999877,1273.7503117999877,None,4,1.0443898000085028,1273.7503117999877,None,1273.2500734999921,1273.7503117999877,1273.7503117999877,None,910,1276.8196795999975,None,1274.8296037999971,1276.8363761999935,1276.8196795999975,None,None,None,None,,,,IA6LI11,1,Serial_COM3,C:\Users\EEG\Desktop\FINALCoScienceTasksLogfiles\,2022_Jan_05_1046,Gambling,2020.1.3,59.97508634968553,
10,4,x,#ed1c24,19,14,110,,,,,0,117,117,55,,,3.975064590195479,,,,,,,,,,,1277.861216099991,1281.84052469999,1281.8236499999912,1282.3241046999901,1282.3241046999901,None,2,1.9464607000118122,1282.3241046999901,None,1281.8236499999912,1282.3241046999901,1282.3241046999901,None,900,1286.2942072000005,None,1284.298783499995,1286.3108499999944,1286.2942072000005,None,None,None,None,,,,IA6LI11,1,Serial_COM3,C:\Users\EEG\Desktop\FINALCoScienceTasksLogfiles\,2022_Jan_05_1046,Gambling,2020.1.3,59.97508634968553,
10,5,o,#3ced1d,19,15,111,,,,,0,118,118,142,,,2.5615270625546795,,,,,,,,,,,1287.3332632999955,1289.8970666999958,1289.8970666999958,1290.3975038999924,1290.3975038999924,None,2,0.9634752999991179,1290.3975038999924,None,1289.8970666999958,1290.3975038999924,1290.3975038999924,None,910,1293.4001913999964,None,1291.4143141999957,1293.4166546999913,1293.4001913999964,None,None,None,None,,,,IA6LI11,1,Serial_COM3,C:\Users\EEG\Desktop\FINALCoScienceTasksLogfiles\,2022_Jan_05_1046,Gambling,2020.1.3,59.97508634968553,
0,5,x,#ed1c24,9,5,100,,,,,0,119,119,133,,,4.06318776669017,,,,,,,,,,,1294.4491307999997,1298.520916999987,1298.5044764999911,1299.0046794999944,1299.0046794999944,None,2,0.7908712999924319,1299.0046794999944,None,1298.5044764999911,1299.0046794999944,1299.0046794999944,None,910,1301.8737025999872,None,1299.8729695999937,1301.8737025999872,1301.8737025999872,None,1302.8441141999938,None,space,20.943524499991327,,,IA6LI11,1,Serial_COM3,C:\Users\EEG\Desktop\FINALCoScienceTasksLogfiles\,2022_Jan_05_1046,Gambling,2020.1.3,59.97508634968553,
50,4,x,#ed1c24,59,54,150,,,,,0,120,120,85,,,4.022726838052132,,,,,,,,,,,1324.803313299999,1328.8295050999877,1328.8129041999928,1329.3132110000006,1329.3132110000006,None,2,0.721552300004987,1329.3132110000006,None,1328.8129041999928,1329.3132110000006,1329.3132110000006,None,860,1332.0654486999993,None,1330.065652899997,1332.0654486999993,1332.0654486999993,None,None,None,None,,,,IA6LI11,1,Serial_COM3,C:\Users\EEG\Desktop\FINALCoScienceTasksLogfiles\,2022_Jan_05_1046,Gambling,2020.1.3,59.97508634968553,
10,4,o,#3ced1d,19,14,111,,,,,0,121,121,37,,,3.791995670388169,,,,,,,,,,,1333.137919899993,1336.936089499999,1336.936089499999,1337.436512299988,1337.436512299988,None,2,0.7281046999996761,1337.436512299988,None,1336.936089499999,1337.436512299988,1337.436512299988,None,870,1340.2223951999913,None,1338.221252599993,1340.2223951999913,1340.2223951999913,None,None,None,None,,,,IA6LI11,1,Serial_COM3,C:\Users\EEG\Desktop\FINALCoScienceTasksLogfiles\,2022_Jan_05_1046,Gambling,2020.1.3,59.97508634968553,
0,8,o,#3ced1d,9,8,201,,,,,0,122,122,235,,,4.257970740837397,,,,,,,,,,,1341.2637740999926,1345.5270940999908,1345.5101178999903,1346.0102940999932,1346.0102940999932,None,4,0.8047965000005206,1346.0102940999932,None,1345.5101178999903,1346.0102940999932,1346.0102940999932,None,870,1348.8462476999994,None,1346.8461715000012,1348.8462476999994,1348.8462476999994,None,None,None,None,,,,IA6LI11,1,Serial_COM3,C:\Users\EEG\Desktop\FINALCoScienceTasksLogfiles\,2022_Jan_05_1046,Gambling,2020.1.3,59.97508634968553,
50,4,x,#ed1c24,59,54,150,,,,,0,123,123,90,,,4.063171835828958,,,,,,,,,,,1349.8563238999923,1353.934063599998,1353.900510899999,1354.4008257999958,1354.4008257999958,None,2,1.154861399991205,1354.4008257999958,None,1353.900510899999,1354.4008257999958,1354.4008257999958,None,820,1357.620053999999,None,1355.629968299996,1357.6367686000012,1357.620053999999,None,None,None,None,,,,IA6LI11,1,Serial_COM3,C:\Users\EEG\Desktop\FINALCoScienceTasksLogfiles\,2022_Jan_05_1046,Gambling,2020.1.3,59.97508634968553,
10,4,o,#3ced1d,19,14,111,,,,,0,124,124,35,,,3.5304920432557787,,,,,,,,,,,1358.6731094999996,1362.2071926999924,1362.2071926999924,1362.7077466999908,1362.7077466999908,None,2,0.5947837999992771,1362.7077466999908,None,1362.2071926999924,1362.7077466999908,1362.7077466999908,None,830,1365.3599654999998,None,1363.3732791999937,1365.3766620999959,1365.3599654999998,None,None,None,None,,,,IA6LI11,1,Serial_COM3,C:\Users\EEG\Desktop\FINALCoScienceTasksLogfiles\,2022_Jan_05_1046,Gambling,2020.1.3,59.97508634968553,
50,5,x,#ed1c24,59,55,150,,,,,0,125,125,187,,,3.4633269636440813,,,,,,,,,,,1366.3849897999899,1369.866114599994,1369.8303457000002,1370.3305330000003,1370.3305330000003,None,2,1.0411582999950042,1370.3305330000003,None,1369.8303457000002,1370.3305330000003,1370.3305330000003,None,780,1373.4331410000013,None,1371.4323268000007,1373.4331410000013,1373.4331410000013,None,None,None,None,,,,IA6LI11,1,Serial_COM3,C:\Users\EEG\Desktop\FINALCoScienceTasksLogfiles\,2022_Jan_05_1046,Gambling,2020.1.3,59.97508634968553,
10,4,o,#3ced1d,19,14,111,,,,,0,126,126,46,,,3.150322765875571,,,,,,,,,,,1374.4775399999926,1377.6368404999957,1377.6200559999997,1378.1204472999962,1378.1204472999962,None,2,1.2074520999885863,1378.1204472999962,None,1377.6200559999997,1378.1204472999962,1378.1204472999962,None,790,1381.3899507999886,None,1379.3882181999943,1381.3899507999886,1381.3899507999886,None,None,None,None,,,,IA6LI11,1,Serial_COM3,C:\Users\EEG\Desktop\FINALCoScienceTasksLogfiles\,2022_Jan_05_1046,Gambling,2020.1.3,59.97508634968553,
50,4,o,#3ced1d,59,54,151,,,,,0,127,127,79,,,4.223224995332821,,,,,,,,,,,1382.4342840999889,1386.6608769999875,1386.6443052999966,1387.1447423999925,1387.1447423999925,None,4,2.868117699996219,1387.1447423999925,None,1386.6443052999966,1387.1447423999925,1387.1447423999925,None,840,1392.0319768999907,None,1390.0330231999978,1392.0486762999935,1392.0319768999907,None,None,None,None,,,,IA6LI11,1,Serial_COM3,C:\Users\EEG\Desktop\FINALCoScienceTasksLogfiles\,2022_Jan_05_1046,Gambling,2020.1.3,59.97508634968553,
0,5,o,#3ced1d,9,5,101,,,,,0,128,128,105,,,2.8299648231080816,,,,,,,,,,,1393.0601476999873,1395.9018802999926,1395.8851978999883,1396.3857217999903,1396.3857217999903,None,2,1.4869239000108792,1396.3857217999903,None,1395.8851978999883,1396.3857217999903,1396.3857217999903,None,840,1399.9053213000007,None,1397.9054807999928,1399.9053213000007,1399.9053213000007,None,None,None,None,,,,IA6LI11,1,Serial_COM3,C:\Users\EEG\Desktop\FINALCoScienceTasksLogfiles\,2022_Jan_05_1046,Gambling,2020.1.3,59.97508634968553,
50,4,o,#3ced1d,59,54,151,,,,,0,129,129,82,,,3.378501399533424,,,,,,,,,,,1400.911883199995,1404.2922276999889,1404.2922276999889,1404.7927105999988,1404.7927105999988,None,4,2.395908000005875,1404.7927105999988,None,1404.2922276999889,1404.7927105999988,1404.7927105999988,None,890,1409.2129448999913,None,1407.213775199998,1409.2129448999913,1409.2129448999913,None,None,None,None,,,,IA6LI11,1,Serial_COM3,C:\Users\EEG\Desktop\FINALCoScienceTasksLogfiles\,2022_Jan_05_1046,Gambling,2020.1.3,59.97508634968553,
0,8,o,#3ced1d,9,8,201,,,,,0,130,130,233,,,4.240994762820582,,,,,,,,,,,1410.2367947999883,1414.4839921999956,1414.4839921999956,1414.984322599994,1414.984322599994,None,2,1.1934233000065433,1414.984322599994,None,1414.4839921999956,1414.984322599994,1414.984322599994,None,890,1418.2039676999993,None,1416.208235099999,1418.2205726999964,1418.2039676999993,None,None,None,None,,,,IA6LI11,1,Serial_COM3,C:\Users\EEG\Desktop\FINALCoScienceTasksLogfiles\,2022_Jan_05_1046,Gambling,2020.1.3,59.97508634968553,
0,5,x,#ed1c24,9,5,100,,,,,0,131,131,132,,,2.6960613490595495,,,,,,,,,,,1419.2083868999907,1421.9069923999923,1421.9069923999923,1422.407400799988,1422.407400799988,None,2,0.4683210999937728,1422.407400799988,None,1421.9069923999923,1422.407400799988,1422.407400799988,None,890,1424.9260225999897,None,1422.9250624999986,1424.9260225999897,1424.9260225999897,None,None,None,None,,,,IA6LI11,1,Serial_COM3,C:\Users\EEG\Desktop\FINALCoScienceTasksLogfiles\,2022_Jan_05_1046,Gambling,2020.1.3,59.97508634968553,
50,5,o,#3ced1d,59,55,151,,,,,0,132,132,179,,,3.2242233992268097,,,,,,,,,,,1425.9225324,1429.1461898999987,1429.129512200001,1429.6300423999928,1429.6300423999928,None,2,0.5837065000087023,1429.6300423999928,None,1429.129512200001,1429.6300423999928,1429.6300423999928,None,940,1432.2322358999954,None,1430.2406247999897,1432.2487294999883,1432.2322358999954,None,None,None,None,,,,IA6LI11,1,Serial_COM3,C:\Users\EEG\Desktop\FINALCoScienceTasksLogfiles\,2022_Jan_05_1046,Gambling,2020.1.3,59.97508634968553,
50,4,o,#3ced1d,59,54,151,,,,,0,133,133,70,,,3.0893852852463732,,,,,,,,,,,1433.2929602999939,1436.3855389999953,1436.3690567999874,1436.8694160000014,1436.8694160000014,None,4,1.17935980000766,1436.8694160000014,None,1436.3690567999874,1436.8694160000014,1436.8694160000014,None,990,1440.0720771999913,None,1438.0726883999887,1440.0720771999913,1440.0720771999913,None,None,None,None,,,,IA6LI11,1,Serial_COM3,C:\Users\EEG\Desktop\FINALCoScienceTasksLogfiles\,2022_Jan_05_1046,Gambling,2020.1.3,59.97508634968553,
50,5,o,#3ced1d,59,55,151,,,,,0,134,134,170,,,3.4986275796040185,,,,,,,,,,,1441.1281193999894,1444.6423130999901,1444.6257278999983,1445.1261299999896,1445.1261299999896,None,4,1.383695099997567,1445.1261299999896,None,1444.6257278999983,1445.1261299999896,1445.1261299999896,None,1040,1448.529069600001,None,1446.5329278999998,1448.545646499988,1448.529069600001,None,None,None,None,,,,IA6LI11,1,Serial_COM3,C:\Users\EEG\Desktop\FINALCoScienceTasksLogfiles\,2022_Jan_05_1046,Gambling,2020.1.3,59.97508634968553,
10,5,x,#ed1c24,19,15,110,,,,,0,135,135,157,,,3.299553443749332,,,,,,,,,,,1449.5473472999875,1452.8491975999932,1452.8491975999932,1453.3497808999964,1453.3497808999964,None,2,1.0740189999924041,1453.3497808999964,None,1452.8491975999932,1453.3497808999964,1453.3497808999964,None,1030,1456.4857350999955,None,1454.484122599999,1456.4857350999955,1456.4857350999955,None,None,None,None,,,,IA6LI11,1,Serial_COM3,C:\Users\EEG\Desktop\FINALCoScienceTasksLogfiles\,2022_Jan_05_1046,Gambling,2020.1.3,59.97508634968553,
50,5,x,#ed1c24,59,55,150,,,,,0,136,136,188,,,4.224042427133423,,,,,,,,,,,1457.5199791999912,1461.7566490999889,1461.7399380999996,1462.240361499993,1462.240361499993,None,2,2.919648099996266,1462.240361499993,None,1461.7399380999996,1462.240361499993,1462.240361499993,None,980,1467.1778149999882,None,1465.1821771999967,1467.1945316999918,1467.1778149999882,None,None,None,None,,,,IA6LI11,1,Serial_COM3,C:\Users\EEG\Desktop\FINALCoScienceTasksLogfiles\,2022_Jan_05_1046,Gambling,2020.1.3,59.97508634968553,
10,7,o,#3ced1d,19,17,211,,,,,0,137,137,229,,,4.091072866598053,,,,,,,,,,,1468.2316788999888,1472.3321071999962,1472.3155506999901,1472.815991999989,1472.815991999989,None,4,1.8896000999957323,1472.815991999989,None,1472.3155506999901,1472.815991999989,1472.815991999989,None,990,1476.7691511999874,None,1474.7680347999994,1476.7691511999874,1476.7691511999874,None,None,None,None,,,,IA6LI11,1,Serial_COM3,C:\Users\EEG\Desktop\FINALCoScienceTasksLogfiles\,2022_Jan_05_1046,Gambling,2020.1.3,59.97508634968553,
50,4,o,#3ced1d,59,54,151,,,,,0,138,138,81,,,3.5662485010157314,,,,,,,,,,,1477.798972699995,1481.3729435999994,1481.356401099998,1481.856844199996,1481.856844199996,None,2,0.792794099994353,1481.856844199996,None,1481.356401099998,1481.856844199996,1481.856844199996,None,1040,1484.6758484999882,None,1482.6761904999876,1484.6758484999882,1484.6758484999882,None,None,None,None,,,,IA6LI11,1,Serial_COM3,C:\Users\EEG\Desktop\FINALCoScienceTasksLogfiles\,2022_Jan_05_1046,Gambling,2020.1.3,59.97508634968553,
10,6,x,#ed1c24,19,16,210,,,,,0,139,139,223,,,2.5583285224303203,,,,,,,,,,,1485.7128330999985,1488.278665699996,1488.262293199994,1488.7625835999934,1488.7625835999934,None,4,0.9579163000016706,1488.7625835999934,None,1488.262293199994,1488.7625835999934,1488.7625835999934,None,1030,1491.7816622999962,None,1489.795967699989,1491.798246899998,1491.7816622999962,None,None,None,None,,,,IA6LI11,1,Serial_COM3,C:\Users\EEG\Desktop\FINALCoScienceTasksLogfiles\,2022_Jan_05_1046,Gambling,2020.1.3,59.97508634968553,
0,2,x,#ed1c24,9,2,200,,,,,0,140,140,204,,,3.6024387578124673,,,,,,,,,,,1492.8107716999948,1496.4188431999937,1496.4020478999882,1496.9024749999953,1496.9024749999953,None,2,0.44747559999814257,1496.9024749999953,None,1496.4020478999882,1496.9024749999953,1496.9024749999953,None,1030,1499.3714842999907,None,1497.3757942999946,1499.3879079999897,1499.3714842999907,None,None,None,None,,,,IA6LI11,1,Serial_COM3,C:\Users\EEG\Desktop\FINALCoScienceTasksLogfiles\,2022_Jan_05_1046,Gambling,2020.1.3,59.97508634968553,
0,4,x,#ed1c24,9,4,100,,,,,0,141,141,26,,,3.476773282769712,,,,,,,,,,,1500.375078500001,1503.8583147999889,1503.8416025999904,1504.3420268999907,1504.3420268999907,None,2,0.7275989999907324,1504.3420268999907,None,1503.8416025999904,1504.3420268999907,1504.3420268999907,None,1030,1507.0943142999895,None,1505.095256799992,1507.0943142999895,1507.0943142999895,None,None,None,None,,,,IA6LI11,1,Serial_COM3,C:\Users\EEG\Desktop\FINALCoScienceTasksLogfiles\,2022_Jan_05_1046,Gambling,2020.1.3,59.97508634968553,
50,4,x,#ed1c24,59,54,150,,,,,0,142,142,87,,,4.19709081634217,,,,,,,,,,,1508.1067424999928,1512.3153213999904,1512.2988152999897,1512.7990262999956,1512.7990262999956,None,4,1.5625995000009425,1512.7990262999956,None,1512.2988152999897,1512.7990262999956,1512.7990262999956,None,980,1516.3854165999946,None,1514.385367099996,1516.3854165999946,1516.3854165999946,None,None,None,None,,,,IA6LI11,1,Serial_COM3,C:\Users\EEG\Desktop\FINALCoScienceTasksLogfiles\,2022_Jan_05_1046,Gambling,2020.1.3,59.97508634968553,
0,4,o,#3ced1d,9,4,101,,,,,0,143,143,0,,,3.651127549623043,,,,,,,,,,,1517.4159569999902,1521.0726041000016,1521.055901899992,1521.5563943999878,1521.5563943999878,None,2,0.2871798999985913,1521.5563943999878,None,1521.055901899992,1521.5563943999878,1521.5563943999878,None,980,1523.9084530999971,None,1521.9194812999922,1523.9249931999948,1523.9084530999971,None,None,None,None,,,,IA6LI11,1,Serial_COM3,C:\Users\EEG\Desktop\FINALCoScienceTasksLogfiles\,2022_Jan_05_1046,Gambling,2020.1.3,59.97508634968553,
50,5,x,#ed1c24,59,55,150,,,,,0,144,144,200,,,3.3145031176822632,,,,,,,,,,,1524.894535200001,1528.2120404999878,1528.1953606999887,1528.6956520999956,1528.6956520999956,None,2,1.0031126999965636,1528.6956520999956,None,1528.1953606999887,1528.6956520999956,1528.6956520999956,None,930,1531.748166099991,None,1529.750328299997,1531.7648731999943,1531.748166099991,None,None,None,None,,,,IA6LI11,1,Serial_COM3,C:\Users\EEG\Desktop\FINALCoScienceTasksLogfiles\,2022_Jan_05_1046,Gambling,2020.1.3,59.97508634968553,
0,5,o,#3ced1d,9,5,101,,,,,0,145,145,113,,,3.597211368572715,,,,,,,,,,,1532.799336600001,1536.402135299999,1536.3854981999903,1536.885920899993,1536.885920899993,None,2,0.36392249999335036,1536.885920899993,None,1536.3854981999903,1536.885920899993,1536.885920899993,None,930,1539.304389099998,None,1537.3042262999952,1539.304389099998,1539.304389099998,None,None,None,None,,,,IA6LI11,1,Serial_COM3,C:\Users\EEG\Desktop\FINALCoScienceTasksLogfiles\,2022_Jan_05_1046,Gambling,2020.1.3,59.97508634968553,
0,6,x,#ed1c24,9,6,200,,,,,0,146,146,220,,,3.569553857107846,,,,,,,,,,,1540.2961069999874,1543.8752116999967,1543.8416856999975,1544.341996099989,1544.341996099989,None,2,0.290567199990619,1544.341996099989,None,1543.8416856999975,1544.341996099989,1544.341996099989,None,930,1546.6775536999921,None,1544.6784791999962,1546.6942255999893,1546.6775536999921,None,None,None,None,,,,IA6LI11,1,Serial_COM3,C:\Users\EEG\Desktop\FINALCoScienceTasksLogfiles\,2022_Jan_05_1046,Gambling,2020.1.3,59.97508634968553,
10,4,x,#ed1c24,19,14,110,,,,,0,147,147,66,,,3.362492250706935,,,,,,,,,,,1547.6874301999924,1551.065579099988,1551.0314050999878,1551.5316423999902,1551.5316423999902,None,2,1.2511675999994623,1551.5316423999902,None,1551.0314050999878,1551.5316423999902,1551.5316423999902,None,920,1554.800805299994,None,1552.8019096999924,1554.81736239999,1554.800805299994,None,None,None,None,,,,IA6LI11,1,Serial_COM3,C:\Users\EEG\Desktop\FINALCoScienceTasksLogfiles\,2022_Jan_05_1046,Gambling,2020.1.3,59.97508634968553,
10,2,x,#ed1c24,19,12,210,,,,,0,148,148,206,,,4.023823896817909,,,,,,,,,,,1555.8650106999994,1559.8882366999896,1559.8882366999896,1560.388802299989,1560.388802299989,None,2,0.6518212999944808,1560.388802299989,None,1559.8882366999896,1560.388802299989,1560.388802299989,None,910,1563.0576830999926,None,1561.062702299998,1563.0744351999892,1563.0576830999926,None,None,None,None,,,,IA6LI11,1,Serial_COM3,C:\Users\EEG\Desktop\FINALCoScienceTasksLogfiles\,2022_Jan_05_1046,Gambling,2020.1.3,59.97508634968553,
0,4,x,#ed1c24,9,4,100,,,,,0,149,149,21,,,3.383245527729949,,,,,,,,,,,1564.0866344999959,1567.4778782999929,1567.4612436999887,1567.9616079999978,1567.9616079999978,None,2,0.5143017000082182,1567.9616079999978,None,1567.4612436999887,1567.9616079999978,1567.9616079999978,None,910,1570.4969787999871,None,1568.4977074999915,1570.4969787999871,1570.4969787999871,None,None,None,None,,,,IA6LI11,1,Serial_COM3,C:\Users\EEG\Desktop\FINALCoScienceTasksLogfiles\,2022_Jan_05_1046,Gambling,2020.1.3,59.97508634968553,
10,5,x,#ed1c24,19,15,110,,,,,0,150,150,165,,,3.71402070368279,,,,,,,,,,,1571.5008503999998,1575.2176160999952,1575.2176160999952,1575.718074999997,1575.718074999997,None,2,1.0237190000043483,1575.718074999997,None,1575.2176160999952,1575.718074999997,1575.718074999997,None,900,1578.7705807999882,None,1576.775916499988,1578.787282099991,1578.7705807999882,None,None,None,None,,,,IA6LI11,1,Serial_COM3,C:\Users\EEG\Desktop\FINALCoScienceTasksLogfiles\,2022_Jan_05_1046,Gambling,2020.1.3,59.97508634968553,
0,3,o,#3ced1d,9,3,201,,,,,0,151,151,211,,,2.789114847061194,,,,,,,,,,,1579.8088210999995,1582.6071625999903,1582.5905834000005,1583.0908829999971,1583.0908829999971,None,2,0.42578750000393484,1583.0908829999971,None,1582.5905834000005,1583.0908829999971,1583.0908829999971,None,900,1585.5756460999983,None,1583.5869281999912,1585.5926237999956,1585.5756460999983,None,None,None,None,,,,IA6LI11,1,Serial_COM3,C:\Users\EEG\Desktop\FINALCoScienceTasksLogfiles\,2022_Jan_05_1046,Gambling,2020.1.3,59.97508634968553,
10,4,x,#ed1c24,19,14,110,,,,,0,152,152,64,,,2.707602906671517,,,,,,,,,,,1586.5627949999907,1589.2792656999954,1589.2629248000012,1589.7630689999933,1589.7630689999933,None,2,0.7139898000023095,1589.7630689999933,None,1589.2629248000012,1589.7630689999933,1589.7630689999933,None,890,1592.4988196999911,None,1590.5084019999922,1592.51561029999,1592.4988196999911,None,None,None,None,,,,IA6LI11,1,Serial_COM3,C:\Users\EEG\Desktop\FINALCoScienceTasksLogfiles\,2022_Jan_05_1046,Gambling,2020.1.3,59.97508634968553,
0,4,x,#ed1c24,9,4,100,,,,,0,153,153,23,,,3.0939376860582466,,,,,,,,,,,1593.5443170999933,1596.653322099999,1596.618744899999,1597.1191169999947,1597.1191169999947,None,2,1.157612800001516,1597.1191169999947,None,1596.618744899999,1597.1191169999947,1597.1191169999947,None,890,1600.3051704999962,None,1598.3089760000003,1600.3218621999986,1600.3051704999962,None,None,None,None,,,,IA6LI11,1,Serial_COM3,C:\Users\EEG\Desktop\FINALCoScienceTasksLogfiles\,2022_Jan_05_1046,Gambling,2020.1.3,59.97508634968553,
0,4,x,#ed1c24,9,4,100,,,,,0,154,154,30,,,3.891800514155017,,,,,,,,,,,1601.3117704999895,1605.2093995999894,1605.2093995999894,1605.7096594999894,1605.7096594999894,None,2,0.7349791999877198,1605.7096594999894,None,1605.2093995999894,1605.7096594999894,1605.7096594999894,None,890,1608.461934699997,None,1606.466711999994,1608.4786034999997,1608.461934699997,None,None,None,None,,,,IA6LI11,1,Serial_COM3,C:\Users\EEG\Desktop\FINALCoScienceTasksLogfiles\,2022_Jan_05_1046,Gambling,2020.1.3,59.97508634968553,
10,4,o,#3ced1d,19,14,111,,,,,0,155,155,38,,,3.142862153372781,,,,,,,,,,,1609.4785505999898,1612.6322187999904,1612.6155136000016,1613.1158025999903,1613.1158025999903,None,4,0.5133939000079408,1613.1158025999903,None,1612.6155136000016,1613.1158025999903,1613.1158025999903,None,900,1615.6845882999914,None,1613.6833759,1615.6845882999914,1615.6845882999914,None,None,None,None,,,,IA6LI11,1,Serial_COM3,C:\Users\EEG\Desktop\FINALCoScienceTasksLogfiles\,2022_Jan_05_1046,Gambling,2020.1.3,59.97508634968553,
0,7,o,#3ced1d,9,7,201,,,,,0,156,156,226,,,3.5438739026228836,,,,,,,,,,,1616.7156885000004,1620.2718981999933,1620.2550801999896,1620.7558342999982,1620.7558342999982,None,4,0.7089389000029769,1620.7558342999982,None,1620.2550801999896,1620.7558342999982,1620.7558342999982,None,900,1623.4913390000002,None,1621.4922078999953,1623.4913390000002,1623.4913390000002,None,None,None,None,,,,IA6LI11,1,Serial_COM3,C:\Users\EEG\Desktop\FINALCoScienceTasksLogfiles\,2022_Jan_05_1046,Gambling,2020.1.3,59.97508634968553,
50,4,x,#ed1c24,59,54,150,,,,,0,157,157,88,,,4.494158295071255,,,,,,,,,,,1624.4980852000008,1628.9958441999916,1628.9958441999916,1629.4963578999887,1629.4963578999887,None,4,1.7176189000019804,1629.4963578999887,None,1628.9958441999916,1629.4963578999887,1629.4963578999887,None,850,1633.2659066999913,None,1631.2660502999934,1633.2659066999913,1633.2659066999913,None,None,None,None,,,,IA6LI11,1,Serial_COM3,C:\Users\EEG\Desktop\FINALCoScienceTasksLogfiles\,2022_Jan_05_1046,Gambling,2020.1.3,59.97508634968553,
50,5,x,#ed1c24,59,55,150,,,,,0,158,158,197,,,3.367033221468502,,,,,,,,,,,1634.2992517999955,1637.6696190999937,1637.6527970999887,1638.1533059999929,1638.1533059999929,None,4,1.5794151000009151,1638.1533059999929,None,1637.6527970999887,1638.1533059999929,1638.1533059999929,None,800,1641.756294299994,None,1639.7600820999942,1641.7729151999956,1641.756294299994,None,None,None,None,,,,IA6LI11,1,Serial_COM3,C:\Users\EEG\Desktop\FINALCoScienceTasksLogfiles\,2022_Jan_05_1046,Gambling,2020.1.3,59.97508634968553,
10,5,o,#3ced1d,19,15,111,,,,,0,159,159,144,,,2.7587100613030264,,,,,,,,,,,1642.7899419999885,1645.5590901999967,1645.5424955999915,1646.043336799994,1646.043336799994,None,2,1.326331400006893,1646.043336799994,None,1645.5424955999915,1646.043336799994,1646.043336799994,None,810,1649.4127956000011,None,1647.4259575999895,1649.4294855999906,1649.4127956000011,None,None,None,None,,,,IA6LI11,1,Serial_COM3,C:\Users\EEG\Desktop\FINALCoScienceTasksLogfiles\,2022_Jan_05_1046,Gambling,2020.1.3,59.97508634968553,
50,5,o,#3ced1d,59,55,151,,,,,0,160,160,182,,,3.01412301800091,,,,,,,,,,,1650.4665684999927,1653.4827010000008,1653.4827010000008,1653.9834147999936,1653.9834147999936,None,2,0.7102773999940837,1653.9834147999936,None,1653.4827010000008,1653.9834147999936,1653.9834147999936,None,860,1656.7189175999956,None,1654.7228361000016,1656.7355607999925,1656.7189175999956,None,None,None,None,,,,IA6LI11,1,Serial_COM3,C:\Users\EEG\Desktop\FINALCoScienceTasksLogfiles\,2022_Jan_05_1046,Gambling,2020.1.3,59.97508634968553,
0,5,x,#ed1c24,9,5,100,,,,,0,161,161,120,,,3.775718618905152,,,,,,,,,,,1657.7582033999934,1661.5394104000006,1661.5394104000006,1662.039837999997,1662.039837999997,None,2,0.4040073000069242,1662.039837999997,None,1661.5394104000006,1662.039837999997,1662.039837999997,None,860,1664.5086790999922,None,1662.5081953999907,1664.5086790999922,1664.5086790999922,None,None,None,None,,,,IA6LI11,1,Serial_COM3,C:\Users\EEG\Desktop\FINALCoScienceTasksLogfiles\,2022_Jan_05_1046,Gambling,2020.1.3,59.97508634968553,
0,5,o,#3ced1d,9,5,101,,,,,0,162,162,115,,,4.154373818600174,,,,,,,,,,,1665.4958059999917,1669.6628321999888,1669.646308700001,1670.1465170999872,1670.1465170999872,None,2,3.7133259999973234,1670.1465170999872,None,1669.646308700001,1670.1465170999872,1670.1465170999872,None,860,1675.8847982000007,None,1673.8956584999978,1675.9014535999886,1675.8847982000007,None,None,None,None,,,,IA6LI11,1,Serial_COM3,C:\Users\EEG\Desktop\FINALCoScienceTasksLogfiles\,2022_Jan_05_1046,Gambling,2020.1.3,59.97508634968553,
0,4,o,#3ced1d,9,4,101,,,,,0,163,163,15,,,3.1829376388492054,,,,,,,,,,,1676.8875892999931,1680.0714196999907,1680.0549271999917,1680.5550949999888,1680.5550949999888,None,2,0.3027664000110235,1680.5550949999888,None,1680.0549271999917,1680.5550949999888,1680.5550949999888,None,860,1682.890429799998,None,1680.8913412999973,1682.890429799998,1682.890429799998,None,None,None,None,,,,IA6LI11,1,Serial_COM3,C:\Users\EEG\Desktop\FINALCoScienceTasksLogfiles\,2022_Jan_05_1046,Gambling,2020.1.3,59.97508634968553,
50,4,x,#ed1c24,59,54,150,,,,,0,164,164,89,,,4.410622068770486,,,,,,,,,,,1683.8973536999983,1688.3116703999985,1688.3116703999985,1688.8120748999936,1688.8120748999936,None,2,0.5945707000064431,1688.8120748999936,None,1688.3116703999985,1688.8120748999936,1688.8120748999936,None,810,1691.4310828000016,None,1689.4333030999987,1691.4477080999932,1691.4310828000016,None,None,None,None,,,,IA6LI11,1,Serial_COM3,C:\Users\EEG\Desktop\FINALCoScienceTasksLogfiles\,2022_Jan_05_1046,Gambling,2020.1.3,59.97508634968553,
50,5,x,#ed1c24,59,55,150,,,,,0,165,165,203,,,3.614530721170419,,,,,,,,,,,1692.4769896999933,1696.101466299995,1696.0850418999908,1696.5852287000016,1696.5852287000016,None,2,0.8684387999965111,1696.5852287000016,None,1696.0850418999908,1696.5852287000016,1696.5852287000016,None,760,1699.471104799988,None,1697.4758660999942,1699.487742799989,1699.471104799988,None,None,None,None,,,,IA6LI11,1,Serial_COM3,C:\Users\EEG\Desktop\FINALCoScienceTasksLogfiles\,2022_Jan_05_1046,Gambling,2020.1.3,59.97508634968553,
50,5,x,#ed1c24,59,55,150,,,,,0,166,166,199,,,3.422881693279008,,,,,,,,,,,1700.5015531999961,1703.9248955999938,1703.9080115999968,1704.408518799988,1704.408518799988,None,2,0.5751069999969332,1704.408518799988,None,1703.9080115999968,1704.408518799988,1704.408518799988,None,710,1707.0106100999983,None,1705.0114342000015,1707.0106100999983,1707.0106100999983,None,None,None,None,,,,IA6LI11,1,Serial_COM3,C:\Users\EEG\Desktop\FINALCoScienceTasksLogfiles\,2022_Jan_05_1046,Gambling,2020.1.3,59.97508634968553,
10,5,o,#3ced1d,19,15,111,,,,,0,167,167,149,,,3.9573554677231733,,,,,,,,,,,1708.0302265999926,1711.9979717999959,1711.981487500001,1712.481771199993,1712.481771199993,None,2,0.49226259998977184,1712.481771199993,None,1711.981487500001,1712.481771199993,1712.481771199993,None,720,1715.0338300000003,None,1713.0318814999919,1715.0338300000003,1715.0338300000003,None,None,None,None,,,,IA6LI11,1,Serial_COM3,C:\Users\EEG\Desktop\FINALCoScienceTasksLogfiles\,2022_Jan_05_1046,Gambling,2020.1.3,59.97508634968553,
50,4,o,#3ced1d,59,54,151,,,,,0,168,168,71,,,3.1952057198069754,,,,,,,,,,,1716.0583913999872,1719.254170699991,1719.2375205999997,1719.737735799994,1719.737735799994,None,2,0.6400858999986667,1719.737735799994,None,1719.2375205999997,1719.737735799994,1719.737735799994,None,770,1722.4066602999956,None,1720.4073320999887,1722.4066602999956,1722.4066602999956,None,None,None,None,,,,IA6LI11,1,Serial_COM3,C:\Users\EEG\Desktop\FINALCoScienceTasksLogfiles\,2022_Jan_05_1046,Gambling,2020.1.3,59.97508634968553,
0,4,x,#ed1c24,9,4,100,,,,,0,169,169,22,,,2.526476834231638,,,,,,,,,,,1723.4462960999954,1725.9759916999901,1725.9759916999901,1726.476644999988,1726.476644999988,None,2,0.6109859999996843,1726.476644999988,None,1725.9759916999901,1726.476644999988,1726.476644999988,None,770,1729.1457864999975,None,1727.1471458999877,1729.1623629999958,1729.1457864999975,None,None,None,None,,,,IA6LI11,1,Serial_COM3,C:\Users\EEG\Desktop\FINALCoScienceTasksLogfiles\,2022_Jan_05_1046,Gambling,2020.1.3,59.97508634968553,
0,4,x,#ed1c24,9,4,100,,,,,0,170,170,33,,,4.044981959856262,,,,,,,,,,,1730.1325611999928,1734.1833024999942,1734.1666548999929,1734.6670652999892,1734.6670652999892,None,2,0.3075156999984756,1734.6670652999892,None,1734.1666548999929,1734.6670652999892,1734.6670652999892,None,770,1737.002164599995,None,1735.005952899999,1737.0189664999925,1737.002164599995,None,None,None,None,,,,IA6LI11,1,Serial_COM3,C:\Users\EEG\Desktop\FINALCoScienceTasksLogfiles\,2022_Jan_05_1046,Gambling,2020.1.3,59.97508634968553,
0,4,o,#3ced1d,9,4,101,,,,,0,171,171,3,,,4.457417497277423,,,,,,,,,,,1738.0090170999902,1742.4733132999972,1742.4733132999972,1742.9737722999998,1742.9737722999998,None,2,0.2823930000013206,1742.9737722999998,None,1742.4733132999972,1742.9737722999998,1742.9737722999998,None,770,1745.2758246999874,None,1743.2844333999965,1745.2923784000013,1745.2758246999874,None,None,None,None,,,,IA6LI11,1,Serial_COM3,C:\Users\EEG\Desktop\FINALCoScienceTasksLogfiles\,2022_Jan_05_1046,Gambling,2020.1.3,59.97508634968553,
10,5,o,#3ced1d,19,15,111,,,,,0,172,172,140,,,2.954653246715311,,,,,,,,,,,1746.284773899999,1749.24579239999,1749.2289783999877,1749.7294610999961,1749.7294610999961,None,2,0.41738310000800993,1749.7294610999961,None,1749.2289783999877,1749.7294610999961,1749.7294610999961,None,780,1752.1648844999872,None,1750.1657810999895,1752.1814404999895,1752.1648844999872,None,None,None,None,,,,IA6LI11,1,Serial_COM3,C:\Users\EEG\Desktop\FINALCoScienceTasksLogfiles\,2022_Jan_05_1046,Gambling,2020.1.3,59.97508634968553,
50,3,x,#ed1c24,59,53,250,,,,,0,173,173,217,,,3.5549762748817977,,,,,,,,,,,1753.2116053999925,1756.7687205999973,1756.7520626999903,1757.2526566999877,1757.2526566999877,None,2,2.0983307999995304,1757.2526566999877,None,1756.7520626999903,1757.2526566999877,1757.2526566999877,None,730,1761.4059082999884,None,1759.404376099992,1761.4059082999884,1761.4059082999884,None,None,None,None,,,,IA6LI11,1,Serial_COM3,C:\Users\EEG\Desktop\FINALCoScienceTasksLogfiles\,2022_Jan_05_1046,Gambling,2020.1.3,59.97508634968553,
0,4,x,#ed1c24,9,4,100,,,,,0,174,174,18,,,2.570449247990117,,,,,,,,,,,1762.4382980999944,1765.0087772999977,1764.9922384999954,1765.4924403999903,1765.4924403999903,None,2,0.514489200009848,1765.4924403999903,None,1764.9922384999954,1765.4924403999903,1765.4924403999903,None,730,1768.0279332999926,None,1766.03247749999,1768.0447889999923,1768.0279332999926,None,None,None,None,,,,IA6LI11,1,Serial_COM3,C:\Users\EEG\Desktop\FINALCoScienceTasksLogfiles\,2022_Jan_05_1046,Gambling,2020.1.3,59.97508634968553,
0,5,o,#3ced1d,9,5,101,,,,,0,175,175,104,,,3.972621886669766,,,,,,,,,,,1769.0374145999958,1773.0154265999881,1772.9987361999956,1773.4991058999876,1773.4991058999876,None,2,0.3255563999991864,1773.4991058999876,None,1772.9987361999956,1773.4991058999876,1773.4991058999876,None,730,1775.884541499996,None,1773.8834019999922,1775.884541499996,1775.884541499996,None,None,None,None,,,,IA6LI11,1,Serial_COM3,C:\Users\EEG\Desktop\FINALCoScienceTasksLogfiles\,2022_Jan_05_1046,Gambling,2020.1.3,59.97508634968553,
0,7,x,#ed1c24,9,7,200,,,,,0,176,176,228,,,2.8796838973710406,,,,,,,,,,,1776.8707108999952,1779.7544917999912,1779.7376412999874,1780.2380655000015,1780.2380655000015,None,2,0.20463059999747202,1780.2380655000015,None,1779.7376412999874,1780.2380655000015,1780.2380655000015,None,730,1782.4734462999913,None,1780.4855969999917,1782.4899505999929,1782.4734462999913,None,None,None,None,,,,IA6LI11,1,Serial_COM3,C:\Users\EEG\Desktop\FINALCoScienceTasksLogfiles\,2022_Jan_05_1046,Gambling,2020.1.3,59.97508634968553,
10,5,o,#3ced1d,19,15,111,,,,,0,177,177,137,,,2.5022716242182756,,,,,,,,,,,1783.4766531999921,1785.9929100000008,1785.9762053999875,1786.4766458999948,1786.4766458999948,None,2,0.6138167000026442,1786.4766458999948,None,1785.9762053999875,1786.4766458999948,1786.4766458999948,None,740,1789.1122953000013,None,1787.1244750999904,1789.128979199988,1789.1122953000013,None,None,None,None,,,,IA6LI11,1,Serial_COM3,C:\Users\EEG\Desktop\FINALCoScienceTasksLogfiles\,2022_Jan_05_1046,Gambling,2020.1.3,59.97508634968553,
0,4,o,#3ced1d,9,4,101,,,,,0,178,178,9,,,3.493328480175642,,,,,,,,,,,1790.1654578000016,1793.6660466999892,1793.6493982999964,1794.1497960999986,1794.1497960999986,None,2,0.288955399999395,1794.1497960999986,None,1793.6493982999964,1794.1497960999986,1794.1497960999986,None,740,1796.4683736000006,None,1794.4724620999914,1796.4850260999956,1796.4683736000006,None,None,None,None,,,,IA6LI11,1,Serial_COM3,C:\Users\EEG\Desktop\FINALCoScienceTasksLogfiles\,2022_Jan_05_1046,Gambling,2020.1.3,59.97508634968553,
50,4,o,#3ced1d,59,54,151,,,,,0,179,179,84,,,3.0587990802720393,,,,,,,,,,,1797.5185940999945,1800.5882214000012,1800.5716251999984,1801.0722086999886,1801.0722086999886,None,2,0.5483003999979701,1801.0722086999886,None,1800.5716251999984,1801.0722086999886,1801.0722086999886,None,790,1803.6408182000014,None,1801.6416192999895,1803.6408182000014,1803.6408182000014,None,1804.6714307999937,None,space,26.461475899996003,,,IA6LI11,1,Serial_COM3,C:\Users\EEG\Desktop\FINALCoScienceTasksLogfiles\,2022_Jan_05_1046,Gambling,2020.1.3,59.97508634968553,
50,4,x,#ed1c24,59,54,150,,,,,0,180,180,100,,,3.3223625287906238,,,,,,,,,,,1832.1538644999964,1835.4839671999944,1835.4839671999944,1835.9844236999925,1835.9844236999925,None,2,0.5911295999976574,1835.9844236999925,None,1835.4839671999944,1835.9844236999925,1835.9844236999925,None,740,1838.636761799993,None,1836.6359406999982,1838.636761799993,1838.636761799993,None,None,None,None,,,,IA6LI11,1,Serial_COM3,C:\Users\EEG\Desktop\FINALCoScienceTasksLogfiles\,2022_Jan_05_1046,Gambling,2020.1.3,59.97508634968553,
10,4,x,#ed1c24,19,14,110,,,,,0,181,181,51,,,4.0143287052395715,,,,,,,,,,,1839.6664680999966,1843.6909796999971,1843.6744814999984,1844.1747019999893,1844.1747019999893,None,2,0.5151780000014696,1844.1747019999893,None,1843.6744814999984,1844.1747019999893,1844.1747019999893,None,730,1846.70993669999,None,1844.710734799999,1846.70993669999,1846.70993669999,None,None,None,None,,,,IA6LI11,1,Serial_COM3,C:\Users\EEG\Desktop\FINALCoScienceTasksLogfiles\,2022_Jan_05_1046,Gambling,2020.1.3,59.97508634968553,
10,5,o,#3ced1d,19,15,111,,,,,0,182,182,143,,,2.714989835516278,,,,,,,,,,,1847.7589267000003,1850.47980429999,1850.4631436999916,1850.9635850999912,1850.9635850999912,None,2,1.6961909000092419,1850.9635850999912,None,1850.4631436999916,1850.9635850999912,1850.9635850999912,None,740,1854.6999429999996,None,1852.713813399998,1854.7164300000004,1854.6999429999996,None,None,None,None,,,,IA6LI11,1,Serial_COM3,C:\Users\EEG\Desktop\FINALCoScienceTasksLogfiles\,2022_Jan_05_1046,Gambling,2020.1.3,59.97508634968553,
50,5,o,#3ced1d,59,55,151,,,,,0,183,183,171,,,2.614649059353167,,,,,,,,,,,1855.7576636999875,1858.3872327999998,1858.353207799999,1858.8534102999984,1858.8534102999984,None,2,0.8444460000027902,1858.8534102999984,None,1858.353207799999,1858.8534102999984,1858.8534102999984,None,790,1861.7225066999963,None,1859.7266700999899,1861.7393287999876,1861.7225066999963,None,None,None,None,,,,IA6LI11,1,Serial_COM3,C:\Users\EEG\Desktop\FINALCoScienceTasksLogfiles\,2022_Jan_05_1046,Gambling,2020.1.3,59.97508634968553,
10,5,x,#ed1c24,19,15,110,,,,,0,184,184,160,,,3.1376669363525966,,,,,,,,,,,1862.7515079000004,1865.8927018999966,1865.8759243999957,1866.3763704000012,1866.3763704000012,None,2,1.614011900004698,1866.3763704000012,None,1865.8759243999957,1866.3763704000012,1866.3763704000012,None,780,1870.0460974000016,None,1868.044884899995,1870.0460974000016,1870.0460974000016,None,None,None,None,,,,IA6LI11,1,Serial_COM3,C:\Users\EEG\Desktop\FINALCoScienceTasksLogfiles\,2022_Jan_05_1046,Gambling,2020.1.3,59.97508634968553,
50,2,o,#3ced1d,59,52,251,,,,,0,185,185,207,,,3.7228107770589896,,,,,,,,,,,1871.07209039999,1874.7999644999945,1874.7833750999998,1875.2837742999982,1875.2837742999982,None,2,1.6821853000001283,1875.2837742999982,None,1874.7833750999998,1875.2837742999982,1875.2837742999982,None,830,1879.0203629999887,None,1877.0302898999944,1879.036913799995,1879.0203629999887,None,None,None,None,,,,IA6LI11,1,Serial_COM3,C:\Users\EEG\Desktop\FINALCoScienceTasksLogfiles\,2022_Jan_05_1046,Gambling,2020.1.3,59.97508634968553,
0,4,x,#ed1c24,9,4,100,,,,,0,186,186,17,,,3.686856311140703,,,,,,,,,,,1880.0576174999878,1883.7574822999886,1883.7406839999894,1884.2412004999933,1884.2412004999933,None,2,0.4575126999989152,1884.2412004999933,None,1883.7406839999894,1884.2412004999933,1884.2412004999933,None,830,1886.743439599988,None,1884.7564749999874,1886.7601129999966,1886.743439599988,None,None,None,None,,,,IA6LI11,1,Serial_COM3,C:\Users\EEG\Desktop\FINALCoScienceTasksLogfiles\,2022_Jan_05_1046,Gambling,2020.1.3,59.97508634968553,
0,6,o,#3ced1d,9,6,201,,,,,0,187,187,219,,,3.2028054695837254,,,,,,,,,,,1887.7522024999926,1890.9634900999954,1890.9468150999892,1891.4473972999986,1891.4473972999986,None,2,1.249799900004291,1891.4473972999986,None,1890.9468150999892,1891.4473972999986,1891.4473972999986,None,830,1894.716741799988,None,1892.7257029999892,1894.733416899995,1894.716741799988,None,None,None,None,,,,IA6LI11,1,Serial_COM3,C:\Users\EEG\Desktop\FINALCoScienceTasksLogfiles\,2022_Jan_05_1046,Gambling,2020.1.3,59.97508634968553,
