"Onset","Duration","Participant","date_time","Running","Trial","Event","MoneyMagnitude","CardNumber","Feedback","Response","RT","Post_Trial"
160.085144199998,4.33612818441794,"IA6LI11","2022_Jan_05_1046","Practice",0,"Fixation",50,4,"loss",2,3.19844330000342,NA
164.411612700002,0.5,"IA6LI11","2022_Jan_05_1046","Practice",0,"Money",50,4,"loss",2,3.19844330000342,NA
164.911768599995,3.19844330000342,"IA6LI11","2022_Jan_05_1046","Practice",0,"Choice",50,4,"loss",2,3.19844330000342,NA
168.110211899999,0,"IA6LI11","2022_Jan_05_1046","Practice",0,"Response",50,4,"loss",2,3.19844330000342,NA
170.166071799991,1,"IA6LI11","2022_Jan_05_1046","Practice",0,"Feedback",50,4,"loss",2,3.19844330000342,NA
171.156693199999,2.67179856612173,"IA6LI11","2022_Jan_05_1046","Practice",1,"Fixation",0,7,"loss",4,1.99967160000233,"post_loss"
173.835786299998,0.5,"IA6LI11","2022_Jan_05_1046","Practice",1,"Money",0,7,"loss",4,1.99967160000233,"post_loss"
174.336323299998,1.99967160000233,"IA6LI11","2022_Jan_05_1046","Practice",1,"Choice",0,7,"loss",4,1.99967160000233,"post_loss"
176.335994900001,0,"IA6LI11","2022_Jan_05_1046","Practice",1,"Response",0,7,"loss",4,1.99967160000233,"post_loss"
178.339567099989,1,"IA6LI11","2022_Jan_05_1046","Practice",1,"Feedback",0,7,"loss",4,1.99967160000233,"post_loss"
179.347910600001,4.19364812022144,"IA6LI11","2022_Jan_05_1046","Practice",2,"Fixation",10,4,"loss",2,1.68130060000112,"post_break"
183.527266699995,0.5,"IA6LI11","2022_Jan_05_1046","Practice",2,"Money",10,4,"loss",2,1.68130060000112,"post_break"
184.027749299988,1.68130060000112,"IA6LI11","2022_Jan_05_1046","Practice",2,"Choice",10,4,"loss",2,1.68130060000112,"post_break"
185.70904989999,0,"IA6LI11","2022_Jan_05_1046","Practice",2,"Response",10,4,"loss",2,1.68130060000112,"post_break"
187.71401879999,1,"IA6LI11","2022_Jan_05_1046","Practice",2,"Feedback",10,4,"loss",2,1.68130060000112,"post_break"
188.724170499991,4.04855900931452,"IA6LI11","2022_Jan_05_1046","Practice",3,"Fixation",0,5,"loss",2,1.98762120000902,"post_break"
192.7514773,0.5,"IA6LI11","2022_Jan_05_1046","Practice",3,"Money",0,5,"loss",2,1.98762120000902,"post_break"
193.252116299991,1.98762120000902,"IA6LI11","2022_Jan_05_1046","Practice",3,"Choice",0,5,"loss",2,1.98762120000902,"post_break"
195.2397375,0,"IA6LI11","2022_Jan_05_1046","Practice",3,"Response",0,5,"loss",2,1.98762120000902,"post_break"
197.255284899991,1,"IA6LI11","2022_Jan_05_1046","Practice",3,"Feedback",0,5,"loss",2,1.98762120000902,"post_break"
198.259141999995,3.97886333229998,"IA6LI11","2022_Jan_05_1046","Practice",4,"Fixation",10,4,"reward",2,1.03939980000723,"post_break"
202.226187599998,0.5,"IA6LI11","2022_Jan_05_1046","Practice",4,"Money",10,4,"reward",2,1.03939980000723,"post_break"
202.726478899989,1.03939980000723,"IA6LI11","2022_Jan_05_1046","Practice",4,"Choice",10,4,"reward",2,1.03939980000723,"post_break"
203.765878699996,0,"IA6LI11","2022_Jan_05_1046","Practice",4,"Response",10,4,"reward",2,1.03939980000723,"post_break"
205.795725599994,1,"IA6LI11","2022_Jan_05_1046","Practice",4,"Feedback",10,4,"reward",2,1.03939980000723,"post_break"
206.798578199989,3.71694933953251,"IA6LI11","2022_Jan_05_1046","Practice",5,"Fixation",0,5,"reward",2,1.24720209999941,"post_reward"
210.499626499994,0.5,"IA6LI11","2022_Jan_05_1046","Practice",5,"Money",0,5,"reward",2,1.24720209999941,"post_reward"
211.000306599992,1.24720209999941,"IA6LI11","2022_Jan_05_1046","Practice",5,"Choice",0,5,"reward",2,1.24720209999941,"post_reward"
212.247508699991,0,"IA6LI11","2022_Jan_05_1046","Practice",5,"Response",0,5,"reward",2,1.24720209999941,"post_reward"
214.252684399995,1,"IA6LI11","2022_Jan_05_1046","Practice",5,"Feedback",0,5,"reward",2,1.24720209999941,"post_reward"
215.267173100001,3.92776153513176,"IA6LI11","2022_Jan_05_1046","Practice",6,"Fixation",50,8,"reward",4,2.13132129999576,"post_reward"
219.190169999987,0.5,"IA6LI11","2022_Jan_05_1046","Practice",6,"Money",50,8,"reward",4,2.13132129999576,"post_reward"
219.690756999989,2.13132129999576,"IA6LI11","2022_Jan_05_1046","Practice",6,"Choice",50,8,"reward",4,2.13132129999576,"post_reward"
221.822078299985,0,"IA6LI11","2022_Jan_05_1046","Practice",6,"Response",50,8,"reward",4,2.13132129999576,"post_reward"
223.8273682,1,"IA6LI11","2022_Jan_05_1046","Practice",6,"Feedback",50,8,"reward",4,2.13132129999576,"post_reward"
224.838825300001,4.36323578880225,"IA6LI11","2022_Jan_05_1046","Practice",7,"Fixation",50,3,"reward",2,1.16569449999952,"post_reward"
229.181969599987,0.5,"IA6LI11","2022_Jan_05_1046","Practice",7,"Money",50,3,"reward",2,1.16569449999952,"post_reward"
229.682245199991,1.16569449999952,"IA6LI11","2022_Jan_05_1046","Practice",7,"Choice",50,3,"reward",2,1.16569449999952,"post_reward"
230.84793969999,0,"IA6LI11","2022_Jan_05_1046","Practice",7,"Response",50,3,"reward",2,1.16569449999952,"post_reward"
232.851716999998,1,"IA6LI11","2022_Jan_05_1046","Practice",7,"Feedback",50,3,"reward",2,1.16569449999952,"post_reward"
233.855163,2.73096924528703,"IA6LI11","2022_Jan_05_1046","Practice",8,"Fixation",10,4,"reward",2,1.10800740000559,"post_reward"
236.587948999993,0.5,"IA6LI11","2022_Jan_05_1046","Practice",8,"Money",10,4,"reward",2,1.10800740000559,"post_reward"
237.088537099989,1.10800740000559,"IA6LI11","2022_Jan_05_1046","Practice",8,"Choice",10,4,"reward",2,1.10800740000559,"post_reward"
238.196544499995,0,"IA6LI11","2022_Jan_05_1046","Practice",8,"Response",10,4,"reward",2,1.10800740000559,"post_reward"
240.207661599998,1,"IA6LI11","2022_Jan_05_1046","Practice",8,"Feedback",10,4,"reward",2,1.10800740000559,"post_reward"
241.211462699997,2.74074630249068,"IA6LI11","2022_Jan_05_1046","Practice",9,"Fixation",10,5,"loss",4,5.99005220000981,"post_reward"
243.944227499989,0.5,"IA6LI11","2022_Jan_05_1046","Practice",9,"Money",10,5,"loss",4,5.99005220000981,"post_reward"
244.444577799994,5.99005220000981,"IA6LI11","2022_Jan_05_1046","Practice",9,"Choice",10,5,"loss",4,5.99005220000981,"post_reward"
250.434630000003,0,"IA6LI11","2022_Jan_05_1046","Practice",9,"Response",10,5,"loss",4,5.99005220000981,"post_reward"
252.434724099992,1,"IA6LI11","2022_Jan_05_1046","Practice",9,"Feedback",10,5,"loss",4,5.99005220000981,"post_reward"
277.237572400001,4.07062823587448,"IA6LI11","2022_Jan_05_1046","MainTask",0,"Fixation",10,4,"reward",2,0.784120599986636,NA
281.291825299995,0.5,"IA6LI11","2022_Jan_05_1046","MainTask",0,"Money",10,4,"reward",2,0.784120599986636,NA
281.79238069999,0.784120599986636,"IA6LI11","2022_Jan_05_1046","MainTask",0,"Choice",10,4,"reward",2,0.784120599986636,NA
282.576501299976,0,"IA6LI11","2022_Jan_05_1046","MainTask",0,"Response",10,4,"reward",2,0.784120599986636,NA
284.578013399994,1,"IA6LI11","2022_Jan_05_1046","MainTask",0,"Feedback",10,4,"reward",2,0.784120599986636,NA
285.633328600001,4.05092215216195,"IA6LI11","2022_Jan_05_1046","MainTask",1,"Fixation",50,3,"reward",2,0.998543299996527,"post_reward"
289.682036099999,0.5,"IA6LI11","2022_Jan_05_1046","MainTask",1,"Money",50,3,"reward",2,0.998543299996527,"post_reward"
290.182511399995,0.998543299996527,"IA6LI11","2022_Jan_05_1046","MainTask",1,"Choice",50,3,"reward",2,0.998543299996527,"post_reward"
291.181054699991,0,"IA6LI11","2022_Jan_05_1046","MainTask",1,"Response",50,3,"reward",2,0.998543299996527,"post_reward"
293.201795799992,1,"IA6LI11","2022_Jan_05_1046","MainTask",1,"Feedback",50,3,"reward",2,0.998543299996527,"post_reward"
294.244392299996,3.31363334503666,"IA6LI11","2022_Jan_05_1046","MainTask",2,"Fixation",10,5,"loss",2,2.72368979999737,"post_break"
297.538951099996,0.5,"IA6LI11","2022_Jan_05_1046","MainTask",2,"Money",10,5,"loss",2,2.72368979999737,"post_break"
298.039086199991,2.72368979999737,"IA6LI11","2022_Jan_05_1046","MainTask",2,"Choice",10,5,"loss",2,2.72368979999737,"post_break"
300.762775999989,0,"IA6LI11","2022_Jan_05_1046","MainTask",2,"Response",10,5,"loss",2,2.72368979999737,"post_break"
302.809827399993,1,"IA6LI11","2022_Jan_05_1046","MainTask",2,"Feedback",10,5,"loss",2,2.72368979999737,"post_break"
303.847316999992,3.36546105193244,"IA6LI11","2022_Jan_05_1046","MainTask",3,"Fixation",10,5,"loss",2,1.09075529999973,"post_break"
307.213380699992,0.5,"IA6LI11","2022_Jan_05_1046","MainTask",3,"Money",10,5,"loss",2,1.09075529999973,"post_break"
307.713893399996,1.09075529999973,"IA6LI11","2022_Jan_05_1046","MainTask",3,"Choice",10,5,"loss",2,1.09075529999973,"post_break"
308.804648699996,0,"IA6LI11","2022_Jan_05_1046","MainTask",3,"Response",10,5,"loss",2,1.09075529999973,"post_break"
310.833046399988,1,"IA6LI11","2022_Jan_05_1046","MainTask",3,"Feedback",10,5,"loss",2,1.09075529999973,"post_break"
311.865038399992,3.80756340018139,"IA6LI11","2022_Jan_05_1046","MainTask",4,"Fixation",10,5,"loss",4,3.09379199999967,"post_break"
315.670544699999,0.5,"IA6LI11","2022_Jan_05_1046","MainTask",4,"Money",10,5,"loss",4,3.09379199999967,"post_break"
316.170802099994,3.09379199999967,"IA6LI11","2022_Jan_05_1046","MainTask",4,"Choice",10,5,"loss",4,3.09379199999967,"post_break"
319.264594099994,0,"IA6LI11","2022_Jan_05_1046","MainTask",4,"Response",10,5,"loss",4,3.09379199999967,"post_break"
321.291686099998,1,"IA6LI11","2022_Jan_05_1046","MainTask",4,"Feedback",10,5,"loss",4,3.09379199999967,"post_break"
322.326951800002,3.35001967268401,"IA6LI11","2022_Jan_05_1046","MainTask",5,"Fixation",10,4,"loss",2,1.03268160000152,"post_loss"
325.678637699995,0.5,"IA6LI11","2022_Jan_05_1046","MainTask",5,"Money",10,4,"loss",2,1.03268160000152,"post_loss"
326.179271199988,1.03268160000152,"IA6LI11","2022_Jan_05_1046","MainTask",5,"Choice",10,4,"loss",2,1.03268160000152,"post_loss"
327.211952799989,0,"IA6LI11","2022_Jan_05_1046","MainTask",5,"Response",10,4,"loss",2,1.03268160000152,"post_loss"
329.231811299993,1,"IA6LI11","2022_Jan_05_1046","MainTask",5,"Feedback",10,4,"loss",2,1.03268160000152,"post_loss"
330.255075199995,3.62458657947322,"IA6LI11","2022_Jan_05_1046","MainTask",6,"Fixation",10,5,"reward",2,0.776700699992944,"post_loss"
333.885682499997,0.5,"IA6LI11","2022_Jan_05_1046","MainTask",6,"Money",10,5,"reward",2,0.776700699992944,"post_loss"
334.38593579999,0.776700699992944,"IA6LI11","2022_Jan_05_1046","MainTask",6,"Choice",10,5,"reward",2,0.776700699992944,"post_loss"
335.162636499983,0,"IA6LI11","2022_Jan_05_1046","MainTask",6,"Response",10,5,"reward",2,0.776700699992944,"post_loss"
337.221815299999,1,"IA6LI11","2022_Jan_05_1046","MainTask",6,"Feedback",10,5,"reward",2,0.776700699992944,"post_loss"
338.242512299999,3.94718578914042,"IA6LI11","2022_Jan_05_1046","MainTask",7,"Fixation",0,4,"loss",2,0.889066600007936,"post_reward"
342.19262609999,0.5,"IA6LI11","2022_Jan_05_1046","MainTask",7,"Money",0,4,"loss",2,0.889066600007936,"post_reward"
342.692609599995,0.889066600007936,"IA6LI11","2022_Jan_05_1046","MainTask",7,"Choice",0,4,"loss",2,0.889066600007936,"post_reward"
343.581676200003,0,"IA6LI11","2022_Jan_05_1046","MainTask",7,"Response",0,4,"loss",2,0.889066600007936,"post_reward"
345.662127399992,1,"IA6LI11","2022_Jan_05_1046","MainTask",7,"Feedback",0,4,"loss",2,0.889066600007936,"post_reward"
346.6312951,3.15286952685832,"IA6LI11","2022_Jan_05_1046","MainTask",8,"Fixation",10,3,"reward",2,0.62217669999518,"post_loss"
349.782262699999,0.5,"IA6LI11","2022_Jan_05_1046","MainTask",8,"Money",10,3,"reward",2,0.62217669999518,"post_loss"
350.282498299988,0.62217669999518,"IA6LI11","2022_Jan_05_1046","MainTask",8,"Choice",10,3,"reward",2,0.62217669999518,"post_loss"
350.904674999983,0,"IA6LI11","2022_Jan_05_1046","MainTask",8,"Response",10,3,"reward",2,0.62217669999518,"post_loss"
352.951443999991,1,"IA6LI11","2022_Jan_05_1046","MainTask",8,"Feedback",10,3,"reward",2,0.62217669999518,"post_loss"
354.017580999993,4.09207394019704,"IA6LI11","2022_Jan_05_1046","MainTask",9,"Fixation",0,6,"reward",4,2.32064359998913,"post_reward"
358.105759599988,0.5,"IA6LI11","2022_Jan_05_1046","MainTask",9,"Money",0,6,"reward",4,2.32064359998913,"post_reward"
358.606112699999,2.32064359998913,"IA6LI11","2022_Jan_05_1046","MainTask",9,"Choice",0,6,"reward",4,2.32064359998913,"post_reward"
360.926756299988,0,"IA6LI11","2022_Jan_05_1046","MainTask",9,"Response",0,6,"reward",4,2.32064359998913,"post_reward"
362.959791099987,1,"IA6LI11","2022_Jan_05_1046","MainTask",9,"Feedback",0,6,"reward",4,2.32064359998913,"post_reward"
363.97316709999,4.19912972371188,"IA6LI11","2022_Jan_05_1046","MainTask",10,"Fixation",50,4,"reward",2,1.3112439999968,"post_reward"
368.164084499993,0.5,"IA6LI11","2022_Jan_05_1046","MainTask",10,"Money",50,4,"reward",2,1.3112439999968,"post_reward"
368.664470999996,1.3112439999968,"IA6LI11","2022_Jan_05_1046","MainTask",10,"Choice",50,4,"reward",2,1.3112439999968,"post_reward"
369.975714999993,0,"IA6LI11","2022_Jan_05_1046","MainTask",10,"Response",50,4,"reward",2,1.3112439999968,"post_reward"
372.000597699996,1,"IA6LI11","2022_Jan_05_1046","MainTask",10,"Feedback",50,4,"reward",2,1.3112439999968,"post_reward"
373.047969099993,3.14017436840508,"IA6LI11","2022_Jan_05_1046","MainTask",11,"Fixation",10,3,"loss",2,0.960850400006166,"post_reward"
376.170872399991,0.5,"IA6LI11","2022_Jan_05_1046","MainTask",11,"Money",10,3,"loss",2,0.960850400006166,"post_reward"
376.671021599992,0.960850400006166,"IA6LI11","2022_Jan_05_1046","MainTask",11,"Choice",10,3,"loss",2,0.960850400006166,"post_reward"
377.631871999998,0,"IA6LI11","2022_Jan_05_1046","MainTask",11,"Response",10,3,"loss",2,0.960850400006166,"post_reward"
379.690431800002,1,"IA6LI11","2022_Jan_05_1046","MainTask",11,"Feedback",10,3,"loss",2,0.960850400006166,"post_reward"
380.721383899989,3.17124420809754,"IA6LI11","2022_Jan_05_1046","MainTask",12,"Fixation",0,8,"loss",4,2.28807300000335,"post_loss"
383.877273799997,0.5,"IA6LI11","2022_Jan_05_1046","MainTask",12,"Money",0,8,"loss",4,2.28807300000335,"post_loss"
384.377567299991,2.28807300000335,"IA6LI11","2022_Jan_05_1046","MainTask",12,"Choice",0,8,"loss",4,2.28807300000335,"post_loss"
386.665640299994,0,"IA6LI11","2022_Jan_05_1046","MainTask",12,"Response",0,8,"loss",4,2.28807300000335,"post_loss"
388.697771799998,1,"IA6LI11","2022_Jan_05_1046","MainTask",12,"Feedback",0,8,"loss",4,2.28807300000335,"post_loss"
389.700882899997,3.08576160639492,"IA6LI11","2022_Jan_05_1046","MainTask",13,"Fixation",50,7,"loss",4,1.87276080000447,"post_loss"
392.784730399988,0.5,"IA6LI11","2022_Jan_05_1046","MainTask",13,"Money",50,7,"loss",4,1.87276080000447,"post_loss"
393.284836099992,1.87276080000447,"IA6LI11","2022_Jan_05_1046","MainTask",13,"Choice",50,7,"loss",4,1.87276080000447,"post_loss"
395.157596899997,0,"IA6LI11","2022_Jan_05_1046","MainTask",13,"Response",50,7,"loss",4,1.87276080000447,"post_loss"
397.188215699993,1,"IA6LI11","2022_Jan_05_1046","MainTask",13,"Feedback",50,7,"loss",4,1.87276080000447,"post_loss"
398.241912099998,3.80657918534574,"IA6LI11","2022_Jan_05_1046","MainTask",14,"Fixation",50,4,"reward",2,0.936827900004573,"post_loss"
402.042387199996,0.5,"IA6LI11","2022_Jan_05_1046","MainTask",14,"Money",50,4,"reward",2,0.936827900004573,"post_loss"
402.5428904,0.936827900004573,"IA6LI11","2022_Jan_05_1046","MainTask",14,"Choice",50,4,"reward",2,0.936827900004573,"post_loss"
403.479718300005,0,"IA6LI11","2022_Jan_05_1046","MainTask",14,"Response",50,4,"reward",2,0.936827900004573,"post_loss"
405.5285038,1,"IA6LI11","2022_Jan_05_1046","MainTask",14,"Feedback",50,4,"reward",2,0.936827900004573,"post_loss"
406.5781441,4.34834517711151,"IA6LI11","2022_Jan_05_1046","MainTask",15,"Fixation",50,5,"reward",2,1.06604199999128,"post_reward"
410.916215299992,0.5,"IA6LI11","2022_Jan_05_1046","MainTask",15,"Money",50,5,"reward",2,1.06604199999128,"post_reward"
411.416914599991,1.06604199999128,"IA6LI11","2022_Jan_05_1046","MainTask",15,"Choice",50,5,"reward",2,1.06604199999128,"post_reward"
412.482956599983,0,"IA6LI11","2022_Jan_05_1046","MainTask",15,"Response",50,5,"reward",2,1.06604199999128,"post_reward"
414.502458499992,1,"IA6LI11","2022_Jan_05_1046","MainTask",15,"Feedback",50,5,"reward",2,1.06604199999128,"post_reward"
415.5347626,3.69550721356586,"IA6LI11","2022_Jan_05_1046","MainTask",16,"Fixation",50,5,"reward",2,0.877924799991888,"post_reward"
419.2233117,0.5,"IA6LI11","2022_Jan_05_1046","MainTask",16,"Money",50,5,"reward",2,0.877924799991888,"post_reward"
419.7236882,0.877924799991888,"IA6LI11","2022_Jan_05_1046","MainTask",16,"Choice",50,5,"reward",2,0.877924799991888,"post_reward"
420.601612999992,0,"IA6LI11","2022_Jan_05_1046","MainTask",16,"Response",50,5,"reward",2,0.877924799991888,"post_reward"
422.625936500001,1,"IA6LI11","2022_Jan_05_1046","MainTask",16,"Feedback",50,5,"reward",2,0.877924799991888,"post_reward"
423.664931599997,3.31235874323861,"IA6LI11","2022_Jan_05_1046","MainTask",17,"Fixation",0,5,"reward",2,0.657600700011244,"post_reward"
426.979662699989,0.5,"IA6LI11","2022_Jan_05_1046","MainTask",17,"Money",0,5,"reward",2,0.657600700011244,"post_reward"
427.479934099989,0.657600700011244,"IA6LI11","2022_Jan_05_1046","MainTask",17,"Choice",0,5,"reward",2,0.657600700011244,"post_reward"
428.1375348,0,"IA6LI11","2022_Jan_05_1046","MainTask",17,"Response",0,5,"reward",2,0.657600700011244,"post_reward"
430.16559959999,1,"IA6LI11","2022_Jan_05_1046","MainTask",17,"Feedback",0,5,"reward",2,0.657600700011244,"post_reward"
431.172067899999,2.86745576712977,"IA6LI11","2022_Jan_05_1046","MainTask",18,"Fixation",0,5,"reward",2,0.923740800004452,"post_reward"
434.03564419999,0.5,"IA6LI11","2022_Jan_05_1046","MainTask",18,"Money",0,5,"reward",2,0.923740800004452,"post_reward"
434.535908399994,0.923740800004452,"IA6LI11","2022_Jan_05_1046","MainTask",18,"Choice",0,5,"reward",2,0.923740800004452,"post_reward"
435.459649199998,0,"IA6LI11","2022_Jan_05_1046","MainTask",18,"Response",0,5,"reward",2,0.923740800004452,"post_reward"
437.4885087,1,"IA6LI11","2022_Jan_05_1046","MainTask",18,"Feedback",0,5,"reward",2,0.923740800004452,"post_reward"
438.489121099992,2.62823273205431,"IA6LI11","2022_Jan_05_1046","MainTask",19,"Fixation",50,5,"loss",2,0.728222299992922,"post_reward"
441.108048099995,0.5,"IA6LI11","2022_Jan_05_1046","MainTask",19,"Money",50,5,"loss",2,0.728222299992922,"post_reward"
441.608388499997,0.728222299992922,"IA6LI11","2022_Jan_05_1046","MainTask",19,"Choice",50,5,"loss",2,0.728222299992922,"post_reward"
442.33661079999,0,"IA6LI11","2022_Jan_05_1046","MainTask",19,"Response",50,5,"loss",2,0.728222299992922,"post_reward"
444.394091499998,1,"IA6LI11","2022_Jan_05_1046","MainTask",19,"Feedback",50,5,"loss",2,0.728222299992922,"post_reward"
445.416828199988,4.04538002780472,"IA6LI11","2022_Jan_05_1046","MainTask",20,"Fixation",0,5,"reward",2,0.786357100005262,"post_loss"
449.465115999992,0.5,"IA6LI11","2022_Jan_05_1046","MainTask",20,"Money",0,5,"reward",2,0.786357100005262,"post_loss"
449.965384799987,0.786357100005262,"IA6LI11","2022_Jan_05_1046","MainTask",20,"Choice",0,5,"reward",2,0.786357100005262,"post_loss"
450.751741899992,0,"IA6LI11","2022_Jan_05_1046","MainTask",20,"Response",0,5,"reward",2,0.786357100005262,"post_loss"
452.801230199999,1,"IA6LI11","2022_Jan_05_1046","MainTask",20,"Feedback",0,5,"reward",2,0.786357100005262,"post_loss"
453.804531099988,4.42467399970475,"IA6LI11","2022_Jan_05_1046","MainTask",21,"Fixation",0,5,"reward",2,0.722179200005485,"post_reward"
458.222399799997,0.5,"IA6LI11","2022_Jan_05_1046","MainTask",21,"Money",0,5,"reward",2,0.722179200005485,"post_reward"
458.722651999997,0.722179200005485,"IA6LI11","2022_Jan_05_1046","MainTask",21,"Choice",0,5,"reward",2,0.722179200005485,"post_reward"
459.444831200002,0,"IA6LI11","2022_Jan_05_1046","MainTask",21,"Response",0,5,"reward",2,0.722179200005485,"post_reward"
461.47510869999,1,"IA6LI11","2022_Jan_05_1046","MainTask",21,"Feedback",0,5,"reward",2,0.722179200005485,"post_reward"
462.485552999991,2.72409475717358,"IA6LI11","2022_Jan_05_1046","MainTask",22,"Fixation",10,5,"reward",2,0.663635300006717,"post_reward"
465.194828299995,0.5,"IA6LI11","2022_Jan_05_1046","MainTask",22,"Money",10,5,"reward",2,0.663635300006717,"post_reward"
465.695315099991,0.663635300006717,"IA6LI11","2022_Jan_05_1046","MainTask",22,"Choice",10,5,"reward",2,0.663635300006717,"post_reward"
466.358950399997,0,"IA6LI11","2022_Jan_05_1046","MainTask",22,"Response",10,5,"reward",2,0.663635300006717,"post_reward"
468.380701999995,1,"IA6LI11","2022_Jan_05_1046","MainTask",22,"Feedback",10,5,"reward",2,0.663635300006717,"post_reward"
469.437197199994,3.48228899147726,"IA6LI11","2022_Jan_05_1046","MainTask",23,"Fixation",50,5,"loss",2,0.765786699994351,"post_reward"
472.917981899998,0.5,"IA6LI11","2022_Jan_05_1046","MainTask",23,"Money",50,5,"loss",2,0.765786699994351,"post_reward"
473.418341600001,0.765786699994351,"IA6LI11","2022_Jan_05_1046","MainTask",23,"Choice",50,5,"loss",2,0.765786699994351,"post_reward"
474.184128299996,0,"IA6LI11","2022_Jan_05_1046","MainTask",23,"Response",50,5,"loss",2,0.765786699994351,"post_reward"
476.23720969999,1,"IA6LI11","2022_Jan_05_1046","MainTask",23,"Feedback",50,5,"loss",2,0.765786699994351,"post_reward"
477.291650399988,4.26852392372839,"IA6LI11","2022_Jan_05_1046","MainTask",24,"Fixation",10,4,"loss",2,0.850990799997817,"post_loss"
481.558326099999,0.5,"IA6LI11","2022_Jan_05_1046","MainTask",24,"Money",10,4,"loss",2,0.850990799997817,"post_loss"
482.05878159999,0.850990799997817,"IA6LI11","2022_Jan_05_1046","MainTask",24,"Choice",10,4,"loss",2,0.850990799997817,"post_loss"
482.909772399988,0,"IA6LI11","2022_Jan_05_1046","MainTask",24,"Response",10,4,"loss",2,0.850990799997817,"post_loss"
484.927788000001,1,"IA6LI11","2022_Jan_05_1046","MainTask",24,"Feedback",10,4,"loss",2,0.850990799997817,"post_loss"
485.963831599991,3.41479650694113,"IA6LI11","2022_Jan_05_1046","MainTask",25,"Fixation",0,4,"reward",2,0.684422200007248,"post_loss"
489.381689499991,0.5,"IA6LI11","2022_Jan_05_1046","MainTask",25,"Money",0,4,"reward",2,0.684422200007248,"post_loss"
489.881921099994,0.684422200007248,"IA6LI11","2022_Jan_05_1046","MainTask",25,"Choice",0,4,"reward",2,0.684422200007248,"post_loss"
490.566343300001,0,"IA6LI11","2022_Jan_05_1046","MainTask",25,"Response",0,4,"reward",2,0.684422200007248,"post_loss"
492.600856399993,1,"IA6LI11","2022_Jan_05_1046","MainTask",25,"Feedback",0,4,"reward",2,0.684422200007248,"post_loss"
493.604153799999,3.70589280351592,"IA6LI11","2022_Jan_05_1046","MainTask",26,"Fixation",10,4,"reward",2,0.631735699993442,"post_reward"
497.304731799988,0.5,"IA6LI11","2022_Jan_05_1046","MainTask",26,"Money",10,4,"reward",2,0.631735699993442,"post_reward"
497.805145599996,0.631735699993442,"IA6LI11","2022_Jan_05_1046","MainTask",26,"Choice",10,4,"reward",2,0.631735699993442,"post_reward"
498.436881299989,0,"IA6LI11","2022_Jan_05_1046","MainTask",26,"Response",10,4,"reward",2,0.631735699993442,"post_reward"
500.457520899989,1,"IA6LI11","2022_Jan_05_1046","MainTask",26,"Feedback",10,4,"reward",2,0.631735699993442,"post_reward"
501.508317699991,3.15205279854606,"IA6LI11","2022_Jan_05_1046","MainTask",27,"Fixation",0,4,"loss",2,0.539379399997415,"post_reward"
504.661257899992,0.5,"IA6LI11","2022_Jan_05_1046","MainTask",27,"Money",0,4,"loss",2,0.539379399997415,"post_reward"
505.161307599992,0.539379399997415,"IA6LI11","2022_Jan_05_1046","MainTask",27,"Choice",0,4,"loss",2,0.539379399997415,"post_reward"
505.70068699999,0,"IA6LI11","2022_Jan_05_1046","MainTask",27,"Response",0,4,"loss",2,0.539379399997415,"post_reward"
507.7635802,1,"IA6LI11","2022_Jan_05_1046","MainTask",27,"Feedback",0,4,"loss",2,0.539379399997415,"post_reward"
508.756707199995,3.9783161350323,"IA6LI11","2022_Jan_05_1046","MainTask",28,"Fixation",10,5,"reward",2,0.831977399997413,"post_loss"
512.717702999988,0.5,"IA6LI11","2022_Jan_05_1046","MainTask",28,"Money",10,5,"reward",2,0.831977399997413,"post_loss"
513.217940699993,0.831977399997413,"IA6LI11","2022_Jan_05_1046","MainTask",28,"Choice",10,5,"reward",2,0.831977399997413,"post_loss"
514.04991809999,0,"IA6LI11","2022_Jan_05_1046","MainTask",28,"Response",10,5,"reward",2,0.831977399997413,"post_loss"
516.0702685,1,"IA6LI11","2022_Jan_05_1046","MainTask",28,"Feedback",10,5,"reward",2,0.831977399997413,"post_loss"
517.122276499998,3.85353939710477,"IA6LI11","2022_Jan_05_1046","MainTask",29,"Fixation",10,4,"loss",2,0.717183299988392,"post_reward"
520.974575,0.5,"IA6LI11","2022_Jan_05_1046","MainTask",29,"Money",10,4,"loss",2,0.717183299988392,"post_reward"
521.474844199998,0.717183299988392,"IA6LI11","2022_Jan_05_1046","MainTask",29,"Choice",10,4,"loss",2,0.717183299988392,"post_reward"
522.192027499987,0,"IA6LI11","2022_Jan_05_1046","MainTask",29,"Response",10,4,"loss",2,0.717183299988392,"post_reward"
524.243797499992,1,"IA6LI11","2022_Jan_05_1046","MainTask",29,"Feedback",10,4,"loss",2,0.717183299988392,"post_reward"
525.281768699992,4.02396520236416,"IA6LI11","2022_Jan_05_1046","MainTask",30,"Fixation",50,5,"reward",2,0.841109100001631,"post_loss"
529.298193099996,0.5,"IA6LI11","2022_Jan_05_1046","MainTask",30,"Money",50,5,"reward",2,0.841109100001631,"post_loss"
529.798439199993,0.841109100001631,"IA6LI11","2022_Jan_05_1046","MainTask",30,"Choice",50,5,"reward",2,0.841109100001631,"post_loss"
530.639548299994,0,"IA6LI11","2022_Jan_05_1046","MainTask",30,"Response",50,5,"reward",2,0.841109100001631,"post_loss"
532.684090999988,1,"IA6LI11","2022_Jan_05_1046","MainTask",30,"Feedback",50,5,"reward",2,0.841109100001631,"post_loss"
533.726560499999,3.99367481828788,"IA6LI11","2022_Jan_05_1046","MainTask",31,"Fixation",50,5,"reward",2,0.731345099993632,"post_reward"
537.705082199987,0.5,"IA6LI11","2022_Jan_05_1046","MainTask",31,"Money",50,5,"reward",2,0.731345099993632,"post_reward"
538.205539999995,0.731345099993632,"IA6LI11","2022_Jan_05_1046","MainTask",31,"Choice",50,5,"reward",2,0.731345099993632,"post_reward"
538.936885099989,0,"IA6LI11","2022_Jan_05_1046","MainTask",31,"Response",50,5,"reward",2,0.731345099993632,"post_reward"
540.957673199999,1,"IA6LI11","2022_Jan_05_1046","MainTask",31,"Feedback",50,5,"reward",2,0.731345099993632,"post_reward"
542.005936699992,4.01679009416323,"IA6LI11","2022_Jan_05_1046","MainTask",32,"Fixation",10,5,"reward",2,0.70643820000987,"post_reward"
546.012039099995,0.5,"IA6LI11","2022_Jan_05_1046","MainTask",32,"Money",10,5,"reward",2,0.70643820000987,"post_reward"
546.512175999989,0.70643820000987,"IA6LI11","2022_Jan_05_1046","MainTask",32,"Choice",10,5,"reward",2,0.70643820000987,"post_reward"
547.218614199999,0,"IA6LI11","2022_Jan_05_1046","MainTask",32,"Response",10,5,"reward",2,0.70643820000987,"post_reward"
549.247941599999,1,"IA6LI11","2022_Jan_05_1046","MainTask",32,"Feedback",10,5,"reward",2,0.70643820000987,"post_reward"
550.268850699998,2.93715224450337,"IA6LI11","2022_Jan_05_1046","MainTask",33,"Fixation",0,4,"reward",2,0.701950399990892,"post_reward"
553.201226199992,0.5,"IA6LI11","2022_Jan_05_1046","MainTask",33,"Money",0,4,"reward",2,0.701950399990892,"post_reward"
553.701819299997,0.701950399990892,"IA6LI11","2022_Jan_05_1046","MainTask",33,"Choice",0,4,"reward",2,0.701950399990892,"post_reward"
554.403769699988,0,"IA6LI11","2022_Jan_05_1046","MainTask",33,"Response",0,4,"reward",2,0.701950399990892,"post_reward"
556.437246499991,1,"IA6LI11","2022_Jan_05_1046","MainTask",33,"Feedback",0,4,"reward",2,0.701950399990892,"post_reward"
557.445104599989,3.51472682163195,"IA6LI11","2022_Jan_05_1046","MainTask",34,"Fixation",50,4,"loss",2,0.749599399990984,"post_reward"
560.957811199987,0.5,"IA6LI11","2022_Jan_05_1046","MainTask",34,"Money",50,4,"loss",2,0.749599399990984,"post_reward"
561.458114399997,0.749599399990984,"IA6LI11","2022_Jan_05_1046","MainTask",34,"Choice",50,4,"loss",2,0.749599399990984,"post_reward"
562.207713799988,0,"IA6LI11","2022_Jan_05_1046","MainTask",34,"Response",50,4,"loss",2,0.749599399990984,"post_reward"
564.260422699997,1,"IA6LI11","2022_Jan_05_1046","MainTask",34,"Feedback",50,4,"loss",2,0.749599399990984,"post_reward"
565.289451899996,4.39825850647045,"IA6LI11","2022_Jan_05_1046","MainTask",35,"Fixation",50,5,"loss",2,0.565136999997776,"post_loss"
569.681721799992,0.5,"IA6LI11","2022_Jan_05_1046","MainTask",35,"Money",50,5,"loss",2,0.565136999997776,"post_loss"
570.181956699991,0.565136999997776,"IA6LI11","2022_Jan_05_1046","MainTask",35,"Choice",50,5,"loss",2,0.565136999997776,"post_loss"
570.747093699989,0,"IA6LI11","2022_Jan_05_1046","MainTask",35,"Response",50,5,"loss",2,0.565136999997776,"post_loss"
572.767491899998,1,"IA6LI11","2022_Jan_05_1046","MainTask",35,"Feedback",50,5,"loss",2,0.565136999997776,"post_loss"
573.801809699988,3.33890611730555,"IA6LI11","2022_Jan_05_1046","MainTask",36,"Fixation",10,5,"loss",2,0.601313400009531,"post_loss"
577.137925999996,0.5,"IA6LI11","2022_Jan_05_1046","MainTask",36,"Money",10,5,"loss",2,0.601313400009531,"post_loss"
577.638224899987,0.601313400009531,"IA6LI11","2022_Jan_05_1046","MainTask",36,"Choice",10,5,"loss",2,0.601313400009531,"post_loss"
578.239538299997,0,"IA6LI11","2022_Jan_05_1046","MainTask",36,"Response",10,5,"loss",2,0.601313400009531,"post_loss"
580.257045399994,1,"IA6LI11","2022_Jan_05_1046","MainTask",36,"Feedback",10,5,"loss",2,0.601313400009531,"post_loss"
581.286310099997,3.26707733313918,"IA6LI11","2022_Jan_05_1046","MainTask",37,"Fixation",50,5,"reward",2,0.622104499998386,"post_loss"
584.543879399993,0.5,"IA6LI11","2022_Jan_05_1046","MainTask",37,"Money",50,5,"reward",2,0.622104499998386,"post_loss"
585.044645099988,0.622104499998386,"IA6LI11","2022_Jan_05_1046","MainTask",37,"Choice",50,5,"reward",2,0.622104499998386,"post_loss"
585.666749599986,0,"IA6LI11","2022_Jan_05_1046","MainTask",37,"Response",50,5,"reward",2,0.622104499998386,"post_loss"
587.713382599992,1,"IA6LI11","2022_Jan_05_1046","MainTask",37,"Feedback",50,5,"reward",2,0.622104499998386,"post_loss"
588.757820300001,3.19085409425504,"IA6LI11","2022_Jan_05_1046","MainTask",38,"Fixation",0,7,"loss",4,2.1397610999993,"post_reward"
591.9335651,0.5,"IA6LI11","2022_Jan_05_1046","MainTask",38,"Money",0,7,"loss",4,2.1397610999993,"post_reward"
592.4338192,2.1397610999993,"IA6LI11","2022_Jan_05_1046","MainTask",38,"Choice",0,7,"loss",4,2.1397610999993,"post_reward"
594.573580299999,0,"IA6LI11","2022_Jan_05_1046","MainTask",38,"Response",0,7,"loss",4,2.1397610999993,"post_reward"
596.637496799987,1,"IA6LI11","2022_Jan_05_1046","MainTask",38,"Feedback",0,7,"loss",4,2.1397610999993,"post_reward"
597.631196399991,2.92238235639878,"IA6LI11","2022_Jan_05_1046","MainTask",39,"Fixation",0,4,"reward",2,0.691716500004986,"post_loss"
600.540739299991,0.5,"IA6LI11","2022_Jan_05_1046","MainTask",39,"Money",0,4,"reward",2,0.691716500004986,"post_loss"
601.040984899999,0.691716500004986,"IA6LI11","2022_Jan_05_1046","MainTask",39,"Choice",0,4,"reward",2,0.691716500004986,"post_loss"
601.732701400004,0,"IA6LI11","2022_Jan_05_1046","MainTask",39,"Response",0,4,"reward",2,0.691716500004986,"post_loss"
603.759930100001,1,"IA6LI11","2022_Jan_05_1046","MainTask",39,"Feedback",0,4,"reward",2,0.691716500004986,"post_loss"
604.769639599996,4.31700709998248,"IA6LI11","2022_Jan_05_1046","MainTask",40,"Fixation",0,5,"loss",2,0.638929200009443,"post_reward"
609.064473999999,0.5,"IA6LI11","2022_Jan_05_1046","MainTask",40,"Money",0,5,"loss",2,0.638929200009443,"post_reward"
609.564754799998,0.638929200009443,"IA6LI11","2022_Jan_05_1046","MainTask",40,"Choice",0,5,"loss",2,0.638929200009443,"post_reward"
610.203684000007,0,"IA6LI11","2022_Jan_05_1046","MainTask",40,"Response",0,5,"loss",2,0.638929200009443,"post_reward"
612.233856399995,1,"IA6LI11","2022_Jan_05_1046","MainTask",40,"Feedback",0,5,"loss",2,0.638929200009443,"post_reward"
613.240112299987,4.11101580854662,"IA6LI11","2022_Jan_05_1046","MainTask",41,"Fixation",0,5,"reward",2,0.424689999999828,"post_loss"
617.354576199999,0.5,"IA6LI11","2022_Jan_05_1046","MainTask",41,"Money",0,5,"reward",2,0.424689999999828,"post_loss"
617.855121000001,0.424689999999828,"IA6LI11","2022_Jan_05_1046","MainTask",41,"Choice",0,5,"reward",2,0.424689999999828,"post_loss"
618.279811,0,"IA6LI11","2022_Jan_05_1046","MainTask",41,"Response",0,5,"reward",2,0.424689999999828,"post_loss"
620.290493199995,1,"IA6LI11","2022_Jan_05_1046","MainTask",41,"Feedback",0,5,"reward",2,0.424689999999828,"post_loss"
621.2988663,3.85391973727541,"IA6LI11","2022_Jan_05_1046","MainTask",42,"Fixation",50,5,"loss",2,0.540695000003325,"post_reward"
625.144462699987,0.5,"IA6LI11","2022_Jan_05_1046","MainTask",42,"Money",50,5,"loss",2,0.540695000003325,"post_reward"
625.644796799999,0.540695000003325,"IA6LI11","2022_Jan_05_1046","MainTask",42,"Choice",50,5,"loss",2,0.540695000003325,"post_reward"
626.185491800003,0,"IA6LI11","2022_Jan_05_1046","MainTask",42,"Response",50,5,"loss",2,0.540695000003325,"post_reward"
628.213657899993,1,"IA6LI11","2022_Jan_05_1046","MainTask",42,"Feedback",50,5,"loss",2,0.540695000003325,"post_reward"
629.274184099995,2.61845580492771,"IA6LI11","2022_Jan_05_1046","MainTask",43,"Fixation",50,4,"loss",2,0.586049999998068,"post_loss"
631.883320599998,0.5,"IA6LI11","2022_Jan_05_1046","MainTask",43,"Money",50,4,"loss",2,0.586049999998068,"post_loss"
632.3837585,0.586049999998068,"IA6LI11","2022_Jan_05_1046","MainTask",43,"Choice",50,4,"loss",2,0.586049999998068,"post_loss"
632.969808499998,0,"IA6LI11","2022_Jan_05_1046","MainTask",43,"Response",50,4,"loss",2,0.586049999998068,"post_loss"
635.0025723,1,"IA6LI11","2022_Jan_05_1046","MainTask",43,"Feedback",50,4,"loss",2,0.586049999998068,"post_loss"
636.032891899988,3.54194105094246,"IA6LI11","2022_Jan_05_1046","MainTask",44,"Fixation",50,4,"loss",2,0.527771799999755,"post_loss"
639.573169499999,0.5,"IA6LI11","2022_Jan_05_1046","MainTask",44,"Money",50,4,"loss",2,0.527771799999755,"post_loss"
640.056997899999,0.527771799999755,"IA6LI11","2022_Jan_05_1046","MainTask",44,"Choice",50,4,"loss",2,0.527771799999755,"post_loss"
640.584769699999,0,"IA6LI11","2022_Jan_05_1046","MainTask",44,"Response",50,4,"loss",2,0.527771799999755,"post_loss"
642.608924399989,1,"IA6LI11","2022_Jan_05_1046","MainTask",44,"Feedback",50,4,"loss",2,0.527771799999755,"post_loss"
643.649777699989,2.69674496007371,"IA6LI11","2022_Jan_05_1046","MainTask",45,"Fixation",10,5,"loss",2,0.619392700013123,"post_loss"
646.328498999996,0.5,"IA6LI11","2022_Jan_05_1046","MainTask",45,"Money",10,5,"loss",2,0.619392700013123,"post_loss"
646.828982699997,0.619392700013123,"IA6LI11","2022_Jan_05_1046","MainTask",45,"Choice",10,5,"loss",2,0.619392700013123,"post_loss"
647.44837540001,0,"IA6LI11","2022_Jan_05_1046","MainTask",45,"Response",10,5,"loss",2,0.619392700013123,"post_loss"
649.481704399994,1,"IA6LI11","2022_Jan_05_1046","MainTask",45,"Feedback",10,5,"loss",2,0.619392700013123,"post_loss"
650.504444299993,3.82609056357078,"IA6LI11","2022_Jan_05_1046","MainTask",46,"Fixation",0,5,"loss",4,7.58814639999764,"post_loss"
654.335454299988,0.5,"IA6LI11","2022_Jan_05_1046","MainTask",46,"Money",0,5,"loss",4,7.58814639999764,"post_loss"
654.83572219999,7.58814639999764,"IA6LI11","2022_Jan_05_1046","MainTask",46,"Choice",0,5,"loss",4,7.58814639999764,"post_loss"
662.423868599988,0,"IA6LI11","2022_Jan_05_1046","MainTask",46,"Response",0,5,"loss",4,7.58814639999764,"post_loss"
664.443720299998,1,"IA6LI11","2022_Jan_05_1046","MainTask",46,"Feedback",0,5,"loss",4,7.58814639999764,"post_loss"
665.458143199998,3.36327773276854,"IA6LI11","2022_Jan_05_1046","MainTask",47,"Fixation",50,7,"reward",4,2.3515722000011,"post_loss"
668.814187399999,0.5,"IA6LI11","2022_Jan_05_1046","MainTask",47,"Money",50,7,"reward",4,2.3515722000011,"post_loss"
669.314366799998,2.3515722000011,"IA6LI11","2022_Jan_05_1046","MainTask",47,"Choice",50,7,"reward",4,2.3515722000011,"post_loss"
671.665938999999,0,"IA6LI11","2022_Jan_05_1046","MainTask",47,"Response",50,7,"reward",4,2.3515722000011,"post_loss"
673.718046900001,1,"IA6LI11","2022_Jan_05_1046","MainTask",47,"Feedback",50,7,"reward",4,2.3515722000011,"post_loss"
674.745611999999,2.90649792951771,"IA6LI11","2022_Jan_05_1046","MainTask",48,"Fixation",0,5,"loss",4,1.06824269999925,"post_reward"
677.638107099992,0.5,"IA6LI11","2022_Jan_05_1046","MainTask",48,"Money",0,5,"loss",4,1.06824269999925,"post_reward"
678.138409199993,1.06824269999925,"IA6LI11","2022_Jan_05_1046","MainTask",48,"Choice",0,5,"loss",4,1.06824269999925,"post_reward"
679.206651899993,0,"IA6LI11","2022_Jan_05_1046","MainTask",48,"Response",0,5,"loss",4,1.06824269999925,"post_reward"
681.2576959,1,"IA6LI11","2022_Jan_05_1046","MainTask",48,"Feedback",0,5,"loss",4,1.06824269999925,"post_reward"
682.25687669999,2.92891044218908,"IA6LI11","2022_Jan_05_1046","MainTask",49,"Fixation",50,4,"loss",2,1.5682039999956,"post_loss"
685.177630499995,0.5,"IA6LI11","2022_Jan_05_1046","MainTask",49,"Money",50,4,"loss",2,1.5682039999956,"post_loss"
685.678448499995,1.5682039999956,"IA6LI11","2022_Jan_05_1046","MainTask",49,"Choice",50,4,"loss",2,1.5682039999956,"post_loss"
687.246652499991,0,"IA6LI11","2022_Jan_05_1046","MainTask",49,"Response",50,4,"loss",2,1.5682039999956,"post_loss"
689.264403900001,1,"IA6LI11","2022_Jan_05_1046","MainTask",49,"Feedback",50,4,"loss",2,1.5682039999956,"post_loss"
690.321584199992,4.36703364010205,"IA6LI11","2022_Jan_05_1046","MainTask",50,"Fixation",10,4,"loss",2,1.21141859999625,"post_loss"
694.685614499991,0.5,"IA6LI11","2022_Jan_05_1046","MainTask",50,"Money",10,4,"loss",2,1.21141859999625,"post_loss"
695.186108399997,1.21141859999625,"IA6LI11","2022_Jan_05_1046","MainTask",50,"Choice",10,4,"loss",2,1.21141859999625,"post_loss"
696.397526999994,0,"IA6LI11","2022_Jan_05_1046","MainTask",50,"Response",10,4,"loss",2,1.21141859999625,"post_loss"
698.421853899999,1,"IA6LI11","2022_Jan_05_1046","MainTask",50,"Feedback",10,4,"loss",2,1.21141859999625,"post_loss"
699.46402069999,3.52443522256865,"IA6LI11","2022_Jan_05_1046","MainTask",51,"Fixation",10,4,"reward",2,0.56676790000347,"post_loss"
702.975897799988,0.5,"IA6LI11","2022_Jan_05_1046","MainTask",51,"Money",10,4,"reward",2,0.56676790000347,"post_loss"
703.476180499987,0.56676790000347,"IA6LI11","2022_Jan_05_1046","MainTask",51,"Choice",10,4,"reward",2,0.56676790000347,"post_loss"
704.042948399991,0,"IA6LI11","2022_Jan_05_1046","MainTask",51,"Response",10,4,"reward",2,0.56676790000347,"post_loss"
706.09504,1,"IA6LI11","2022_Jan_05_1046","MainTask",51,"Feedback",10,4,"reward",2,0.56676790000347,"post_loss"
707.12786909999,3.72902053886395,"IA6LI11","2022_Jan_05_1046","MainTask",52,"Fixation",50,6,"loss",4,2.15909450000618,"post_reward"
710.8491106,0.5,"IA6LI11","2022_Jan_05_1046","MainTask",52,"Money",50,6,"loss",4,2.15909450000618,"post_reward"
711.34936349999,2.15909450000618,"IA6LI11","2022_Jan_05_1046","MainTask",52,"Choice",50,6,"loss",4,2.15909450000618,"post_reward"
713.508457999997,0,"IA6LI11","2022_Jan_05_1046","MainTask",52,"Response",50,6,"loss",4,2.15909450000618,"post_reward"
715.553060199993,1,"IA6LI11","2022_Jan_05_1046","MainTask",52,"Feedback",50,6,"loss",4,2.15909450000618,"post_reward"
716.603301199997,3.66368407584897,"IA6LI11","2022_Jan_05_1046","MainTask",53,"Fixation",0,4,"loss",2,1.51458329999878,"post_loss"
720.256746499988,0.5,"IA6LI11","2022_Jan_05_1046","MainTask",53,"Money",0,4,"loss",2,1.51458329999878,"post_loss"
720.757387699996,1.51458329999878,"IA6LI11","2022_Jan_05_1046","MainTask",53,"Choice",0,4,"loss",2,1.51458329999878,"post_loss"
722.271970999995,0,"IA6LI11","2022_Jan_05_1046","MainTask",53,"Response",0,4,"loss",2,1.51458329999878,"post_loss"
724.293444499999,1,"IA6LI11","2022_Jan_05_1046","MainTask",53,"Feedback",0,4,"loss",2,1.51458329999878,"post_loss"
725.302399699998,2.9433698625605,"IA6LI11","2022_Jan_05_1046","MainTask",54,"Fixation",50,4,"loss",2,2.55053659999976,"post_loss"
728.230200399994,0.5,"IA6LI11","2022_Jan_05_1046","MainTask",54,"Money",50,4,"loss",2,2.55053659999976,"post_loss"
728.73039289999,2.55053659999976,"IA6LI11","2022_Jan_05_1046","MainTask",54,"Choice",50,4,"loss",2,2.55053659999976,"post_loss"
731.28092949999,0,"IA6LI11","2022_Jan_05_1046","MainTask",54,"Response",50,4,"loss",2,2.55053659999976,"post_loss"
733.300914699998,1,"IA6LI11","2022_Jan_05_1046","MainTask",54,"Feedback",50,4,"loss",2,2.55053659999976,"post_loss"
734.334083199996,4.4273461577696,"IA6LI11","2022_Jan_05_1046","MainTask",55,"Fixation",10,4,"loss",2,0.761004400003003,"post_loss"
738.755673199994,0.5,"IA6LI11","2022_Jan_05_1046","MainTask",55,"Money",10,4,"loss",2,0.761004400003003,"post_loss"
739.255865399988,0.761004400003003,"IA6LI11","2022_Jan_05_1046","MainTask",55,"Choice",10,4,"loss",2,0.761004400003003,"post_loss"
740.016869799991,0,"IA6LI11","2022_Jan_05_1046","MainTask",55,"Response",10,4,"loss",2,0.761004400003003,"post_loss"
742.04148819999,1,"IA6LI11","2022_Jan_05_1046","MainTask",55,"Feedback",10,4,"loss",2,0.761004400003003,"post_loss"
743.077578199998,2.66695252546366,"IA6LI11","2022_Jan_05_1046","MainTask",56,"Fixation",10,4,"reward",2,0.447144499994465,"post_loss"
745.744424999997,0.5,"IA6LI11","2022_Jan_05_1046","MainTask",56,"Money",10,4,"reward",2,0.447144499994465,"post_loss"
746.245047399992,0.447144499994465,"IA6LI11","2022_Jan_05_1046","MainTask",56,"Choice",10,4,"reward",2,0.447144499994465,"post_loss"
746.692191899987,0,"IA6LI11","2022_Jan_05_1046","MainTask",56,"Response",10,4,"reward",2,0.447144499994465,"post_loss"
748.747288599989,1,"IA6LI11","2022_Jan_05_1046","MainTask",56,"Feedback",10,4,"reward",2,0.447144499994465,"post_loss"
749.782969299995,2.88619157549185,"IA6LI11","2022_Jan_05_1046","MainTask",57,"Fixation",50,5,"reward",2,10.8682251999999,"post_reward"
752.667021699992,0.5,"IA6LI11","2022_Jan_05_1046","MainTask",57,"Money",50,5,"reward",2,10.8682251999999,"post_reward"
753.1674795,10.8682251999999,"IA6LI11","2022_Jan_05_1046","MainTask",57,"Choice",50,5,"reward",2,10.8682251999999,"post_reward"
764.0357047,0,"IA6LI11","2022_Jan_05_1046","MainTask",57,"Response",50,5,"reward",2,10.8682251999999,"post_reward"
766.061665000001,1,"IA6LI11","2022_Jan_05_1046","MainTask",57,"Feedback",50,5,"reward",2,10.8682251999999,"post_reward"
767.11270089999,3.71383022775013,"IA6LI11","2022_Jan_05_1046","MainTask",58,"Fixation",50,4,"reward",2,1.18861610000022,"post_reward"
770.815398299994,0.5,"IA6LI11","2022_Jan_05_1046","MainTask",58,"Money",50,4,"reward",2,1.18861610000022,"post_reward"
771.31592529999,1.18861610000022,"IA6LI11","2022_Jan_05_1046","MainTask",58,"Choice",50,4,"reward",2,1.18861610000022,"post_reward"
772.504541399991,0,"IA6LI11","2022_Jan_05_1046","MainTask",58,"Response",50,4,"reward",2,1.18861610000022,"post_reward"
774.535263499987,1,"IA6LI11","2022_Jan_05_1046","MainTask",58,"Feedback",50,4,"reward",2,1.18861610000022,"post_reward"
775.5645869,4.22452063822348,"IA6LI11","2022_Jan_05_1046","MainTask",59,"Fixation",50,5,"loss",2,1.23508020000008,"post_reward"
779.772857599994,0.5,"IA6LI11","2022_Jan_05_1046","MainTask",59,"Money",50,5,"loss",2,1.23508020000008,"post_reward"
780.273525699988,1.23508020000008,"IA6LI11","2022_Jan_05_1046","MainTask",59,"Choice",50,5,"loss",2,1.23508020000008,"post_reward"
781.508605899988,0,"IA6LI11","2022_Jan_05_1046","MainTask",59,"Response",50,5,"loss",2,1.23508020000008,"post_reward"
783.559360599989,1,"IA6LI11","2022_Jan_05_1046","MainTask",59,"Feedback",50,5,"loss",2,1.23508020000008,"post_reward"
784.5926874,36.0230103000067,"IA6LI11","2022_Jan_05_1046","MainTask",1,"Break",NA,NA,NA,NA,36.0230103000067,NA
821.638476599997,3.76943756629756,"IA6LI11","2022_Jan_05_1046","MainTask",60,"Fixation",50,4,"loss",2,0.818050500005484,NA
825.394272099991,0.5,"IA6LI11","2022_Jan_05_1046","MainTask",60,"Money",50,4,"loss",2,0.818050500005484,NA
825.894659999991,0.818050500005484,"IA6LI11","2022_Jan_05_1046","MainTask",60,"Choice",50,4,"loss",2,0.818050500005484,NA
826.712710499996,0,"IA6LI11","2022_Jan_05_1046","MainTask",60,"Response",50,4,"loss",2,0.818050500005484,NA
828.730445900001,1,"IA6LI11","2022_Jan_05_1046","MainTask",60,"Feedback",50,4,"loss",2,0.818050500005484,NA
829.762331399994,2.6448326015764,"IA6LI11","2022_Jan_05_1046","MainTask",61,"Fixation",50,5,"reward",2,0.681310899992241,"post_loss"
832.399922500001,0.5,"IA6LI11","2022_Jan_05_1046","MainTask",61,"Money",50,5,"reward",2,0.681310899992241,"post_loss"
832.900562099996,0.681310899992241,"IA6LI11","2022_Jan_05_1046","MainTask",61,"Choice",50,5,"reward",2,0.681310899992241,"post_loss"
833.581872999988,0,"IA6LI11","2022_Jan_05_1046","MainTask",61,"Response",50,5,"reward",2,0.681310899992241,"post_loss"
835.636032399998,1,"IA6LI11","2022_Jan_05_1046","MainTask",61,"Feedback",50,5,"reward",2,0.681310899992241,"post_loss"
836.6654002,2.62884001939078,"IA6LI11","2022_Jan_05_1046","MainTask",62,"Fixation",50,5,"loss",2,0.675931899997522,"post_reward"
839.289218599995,0.5,"IA6LI11","2022_Jan_05_1046","MainTask",62,"Money",50,5,"loss",2,0.675931899997522,"post_reward"
839.789653699991,0.675931899997522,"IA6LI11","2022_Jan_05_1046","MainTask",62,"Choice",50,5,"loss",2,0.675931899997522,"post_reward"
840.465585599988,0,"IA6LI11","2022_Jan_05_1046","MainTask",62,"Response",50,5,"loss",2,0.675931899997522,"post_reward"
842.52509499999,1,"IA6LI11","2022_Jan_05_1046","MainTask",62,"Feedback",50,5,"loss",2,0.675931899997522,"post_reward"
843.561472599991,3.36801189234088,"IA6LI11","2022_Jan_05_1046","MainTask",63,"Fixation",10,5,"loss",2,0.906462899991311,"post_loss"
846.928732100001,0.5,"IA6LI11","2022_Jan_05_1046","MainTask",63,"Money",10,5,"loss",2,0.906462899991311,"post_loss"
847.429309399988,0.906462899991311,"IA6LI11","2022_Jan_05_1046","MainTask",63,"Choice",10,5,"loss",2,0.906462899991311,"post_loss"
848.335772299979,0,"IA6LI11","2022_Jan_05_1046","MainTask",63,"Response",10,5,"loss",2,0.906462899991311,"post_loss"
850.365082799995,1,"IA6LI11","2022_Jan_05_1046","MainTask",63,"Feedback",10,5,"loss",2,0.906462899991311,"post_loss"
851.400771399989,3.21406963099373,"IA6LI11","2022_Jan_05_1046","MainTask",64,"Fixation",10,5,"loss",2,0.440669000003254,"post_loss"
854.6184392,0.5,"IA6LI11","2022_Jan_05_1046","MainTask",64,"Money",10,5,"loss",2,0.440669000003254,"post_loss"
855.118990899995,0.440669000003254,"IA6LI11","2022_Jan_05_1046","MainTask",64,"Choice",10,5,"loss",2,0.440669000003254,"post_loss"
855.559659899998,0,"IA6LI11","2022_Jan_05_1046","MainTask",64,"Response",10,5,"loss",2,0.440669000003254,"post_loss"
857.587647699998,1,"IA6LI11","2022_Jan_05_1046","MainTask",64,"Feedback",10,5,"loss",2,0.440669000003254,"post_loss"
858.617505999995,2.98462907257592,"IA6LI11","2022_Jan_05_1046","MainTask",65,"Fixation",0,5,"loss",2,0.488342100012233,"post_loss"
861.591110399997,0.5,"IA6LI11","2022_Jan_05_1046","MainTask",65,"Money",0,5,"loss",2,0.488342100012233,"post_loss"
862.0912942,0.488342100012233,"IA6LI11","2022_Jan_05_1046","MainTask",65,"Choice",0,5,"loss",2,0.488342100012233,"post_loss"
862.579636300012,0,"IA6LI11","2022_Jan_05_1046","MainTask",65,"Response",0,5,"loss",2,0.488342100012233,"post_loss"
864.610153999995,1,"IA6LI11","2022_Jan_05_1046","MainTask",65,"Feedback",0,5,"loss",2,0.488342100012233,"post_loss"
865.612837099994,3.28821295829324,"IA6LI11","2022_Jan_05_1046","MainTask",66,"Fixation",10,4,"reward",2,0.598077599992394,"post_loss"
868.89733349999,0.5,"IA6LI11","2022_Jan_05_1046","MainTask",66,"Money",10,4,"reward",2,0.598077599992394,"post_loss"
869.380785299989,0.598077599992394,"IA6LI11","2022_Jan_05_1046","MainTask",66,"Choice",10,4,"reward",2,0.598077599992394,"post_loss"
869.978862899981,0,"IA6LI11","2022_Jan_05_1046","MainTask",66,"Response",10,4,"reward",2,0.598077599992394,"post_loss"
872.016439999992,1,"IA6LI11","2022_Jan_05_1046","MainTask",66,"Feedback",10,4,"reward",2,0.598077599992394,"post_loss"
873.0533326,4.35890991644174,"IA6LI11","2022_Jan_05_1046","MainTask",67,"Fixation",0,5,"reward",2,0.667212200001813,"post_reward"
877.404070299992,0.5,"IA6LI11","2022_Jan_05_1046","MainTask",67,"Money",0,5,"reward",2,0.667212200001813,"post_reward"
877.904514599999,0.667212200001813,"IA6LI11","2022_Jan_05_1046","MainTask",67,"Choice",0,5,"reward",2,0.667212200001813,"post_reward"
878.571726800001,0,"IA6LI11","2022_Jan_05_1046","MainTask",67,"Response",0,5,"reward",2,0.667212200001813,"post_reward"
880.590210299997,1,"IA6LI11","2022_Jan_05_1046","MainTask",67,"Feedback",0,5,"reward",2,0.667212200001813,"post_reward"
881.6111542,4.163851354199,"IA6LI11","2022_Jan_05_1046","MainTask",68,"Fixation",10,2,"reward",2,0.738162800000282,"post_reward"
885.761061500001,0.5,"IA6LI11","2022_Jan_05_1046","MainTask",68,"Money",10,2,"reward",2,0.738162800000282,"post_reward"
886.261481099995,0.738162800000282,"IA6LI11","2022_Jan_05_1046","MainTask",68,"Choice",10,2,"reward",2,0.738162800000282,"post_reward"
886.999643899995,0,"IA6LI11","2022_Jan_05_1046","MainTask",68,"Response",10,2,"reward",2,0.738162800000282,"post_reward"
889.030435199995,1,"IA6LI11","2022_Jan_05_1046","MainTask",68,"Feedback",10,2,"reward",2,0.738162800000282,"post_reward"
890.078242899996,4.28016907817251,"IA6LI11","2022_Jan_05_1046","MainTask",69,"Fixation",50,5,"reward",2,0.518046299999696,"post_reward"
894.351698699989,0.5,"IA6LI11","2022_Jan_05_1046","MainTask",69,"Money",50,5,"reward",2,0.518046299999696,"post_reward"
894.852476200002,0.518046299999696,"IA6LI11","2022_Jan_05_1046","MainTask",69,"Choice",50,5,"reward",2,0.518046299999696,"post_reward"
895.370522500001,0,"IA6LI11","2022_Jan_05_1046","MainTask",69,"Response",50,5,"reward",2,0.518046299999696,"post_reward"
897.387556299989,1,"IA6LI11","2022_Jan_05_1046","MainTask",69,"Feedback",50,5,"reward",2,0.518046299999696,"post_reward"
898.424225999988,3.95822989887067,"IA6LI11","2022_Jan_05_1046","MainTask",70,"Fixation",10,5,"reward",2,0.611340700008441,"post_reward"
902.37489169999,0.5,"IA6LI11","2022_Jan_05_1046","MainTask",70,"Money",10,5,"reward",2,0.611340700008441,"post_reward"
902.875301799999,0.611340700008441,"IA6LI11","2022_Jan_05_1046","MainTask",70,"Choice",10,5,"reward",2,0.611340700008441,"post_reward"
903.486642500007,0,"IA6LI11","2022_Jan_05_1046","MainTask",70,"Response",10,5,"reward",2,0.611340700008441,"post_reward"
905.510981299987,1,"IA6LI11","2022_Jan_05_1046","MainTask",70,"Feedback",10,5,"reward",2,0.611340700008441,"post_reward"
906.534527299998,3.45226815764146,"IA6LI11","2022_Jan_05_1046","MainTask",71,"Fixation",0,4,"loss",2,0.44072280000546,"post_reward"
909.981241699992,0.5,"IA6LI11","2022_Jan_05_1046","MainTask",71,"Money",0,4,"loss",2,0.44072280000546,"post_reward"
910.481813399994,0.44072280000546,"IA6LI11","2022_Jan_05_1046","MainTask",71,"Choice",0,4,"loss",2,0.44072280000546,"post_reward"
910.9225362,0,"IA6LI11","2022_Jan_05_1046","MainTask",71,"Response",0,4,"loss",2,0.44072280000546,"post_reward"
912.983706899991,1,"IA6LI11","2022_Jan_05_1046","MainTask",71,"Feedback",0,4,"loss",2,0.44072280000546,"post_reward"
913.976477499993,4.09385836022182,"IA6LI11","2022_Jan_05_1046","MainTask",72,"Fixation",50,7,"loss",4,0.789833400005591,"post_loss"
918.054584599988,0.5,"IA6LI11","2022_Jan_05_1046","MainTask",72,"Money",50,7,"loss",4,0.789833400005591,"post_loss"
918.555078399993,0.789833400005591,"IA6LI11","2022_Jan_05_1046","MainTask",72,"Choice",50,7,"loss",4,0.789833400005591,"post_loss"
919.344911799999,0,"IA6LI11","2022_Jan_05_1046","MainTask",72,"Response",50,7,"loss",4,0.789833400005591,"post_loss"
921.373945499989,1,"IA6LI11","2022_Jan_05_1046","MainTask",72,"Feedback",50,7,"loss",4,0.789833400005591,"post_loss"
922.42076149999,2.82728764177078,"IA6LI11","2022_Jan_05_1046","MainTask",73,"Fixation",10,5,"loss",2,0.462746200006222,"post_loss"
925.243914999999,0.5,"IA6LI11","2022_Jan_05_1046","MainTask",73,"Money",10,5,"loss",2,0.462746200006222,"post_loss"
925.74443749999,0.462746200006222,"IA6LI11","2022_Jan_05_1046","MainTask",73,"Choice",10,5,"loss",2,0.462746200006222,"post_loss"
926.207183699997,0,"IA6LI11","2022_Jan_05_1046","MainTask",73,"Response",10,5,"loss",2,0.462746200006222,"post_loss"
928.229850699994,1,"IA6LI11","2022_Jan_05_1046","MainTask",73,"Feedback",10,5,"loss",2,0.462746200006222,"post_loss"
929.266699100001,2.57198842813521,"IA6LI11","2022_Jan_05_1046","MainTask",74,"Fixation",0,6,"loss",4,1.08754439999757,"post_loss"
931.832837299997,0.5,"IA6LI11","2022_Jan_05_1046","MainTask",74,"Money",0,6,"loss",4,1.08754439999757,"post_loss"
932.333089499996,1.08754439999757,"IA6LI11","2022_Jan_05_1046","MainTask",74,"Choice",0,6,"loss",4,1.08754439999757,"post_loss"
933.420633899994,0,"IA6LI11","2022_Jan_05_1046","MainTask",74,"Response",0,6,"loss",4,1.08754439999757,"post_loss"
935.452594399991,1,"IA6LI11","2022_Jan_05_1046","MainTask",74,"Feedback",0,6,"loss",4,1.08754439999757,"post_loss"
936.461190599992,4.00353135907391,"IA6LI11","2022_Jan_05_1046","MainTask",75,"Fixation",50,4,"reward",2,0.758688399990206,"post_loss"
940.456542,0.5,"IA6LI11","2022_Jan_05_1046","MainTask",75,"Money",50,4,"reward",2,0.758688399990206,"post_loss"
940.9569242,0.758688399990206,"IA6LI11","2022_Jan_05_1046","MainTask",75,"Choice",50,4,"reward",2,0.758688399990206,"post_loss"
941.71561259999,0,"IA6LI11","2022_Jan_05_1046","MainTask",75,"Response",50,4,"reward",2,0.758688399990206,"post_loss"
943.775943100001,1,"IA6LI11","2022_Jan_05_1046","MainTask",75,"Feedback",50,4,"reward",2,0.758688399990206,"post_loss"
944.809658300001,2.5881786478447,"IA6LI11","2022_Jan_05_1046","MainTask",76,"Fixation",0,5,"loss",2,1.34787519999372,"post_reward"
947.395547599997,0.5,"IA6LI11","2022_Jan_05_1046","MainTask",76,"Money",0,5,"loss",2,1.34787519999372,"post_reward"
947.896046199996,1.34787519999372,"IA6LI11","2022_Jan_05_1046","MainTask",76,"Choice",0,5,"loss",2,1.34787519999372,"post_reward"
949.24392139999,0,"IA6LI11","2022_Jan_05_1046","MainTask",76,"Response",0,5,"loss",2,1.34787519999372,"post_reward"
951.299048100002,1,"IA6LI11","2022_Jan_05_1046","MainTask",76,"Feedback",0,5,"loss",2,1.34787519999372,"post_reward"
952.300499199991,3.21225666753301,"IA6LI11","2022_Jan_05_1046","MainTask",77,"Fixation",10,4,"loss",2,0.535594000000856,"post_loss"
955.50260729999,0.5,"IA6LI11","2022_Jan_05_1046","MainTask",77,"Money",10,4,"loss",2,0.535594000000856,"post_loss"
956.003229800001,0.535594000000856,"IA6LI11","2022_Jan_05_1046","MainTask",77,"Choice",10,4,"loss",2,0.535594000000856,"post_loss"
956.538823800001,0,"IA6LI11","2022_Jan_05_1046","MainTask",77,"Response",10,4,"loss",2,0.535594000000856,"post_loss"
958.571548399996,1,"IA6LI11","2022_Jan_05_1046","MainTask",77,"Feedback",10,4,"loss",2,0.535594000000856,"post_loss"
959.636060599994,4.09741893888345,"IA6LI11","2022_Jan_05_1046","MainTask",78,"Fixation",0,4,"reward",2,0.603264899997157,"post_loss"
963.726017099994,0.5,"IA6LI11","2022_Jan_05_1046","MainTask",78,"Money",0,4,"reward",2,0.603264899997157,"post_loss"
964.226458999998,0.603264899997157,"IA6LI11","2022_Jan_05_1046","MainTask",78,"Choice",0,4,"reward",2,0.603264899997157,"post_loss"
964.829723899995,0,"IA6LI11","2022_Jan_05_1046","MainTask",78,"Response",0,4,"reward",2,0.603264899997157,"post_loss"
966.895202,1,"IA6LI11","2022_Jan_05_1046","MainTask",78,"Feedback",0,4,"reward",2,0.603264899997157,"post_loss"
967.881711800001,3.12195203893521,"IA6LI11","2022_Jan_05_1046","MainTask",79,"Fixation",0,5,"reward",2,0.80379369998991,"post_reward"
970.998610099996,0.5,"IA6LI11","2022_Jan_05_1046","MainTask",79,"Money",0,5,"reward",2,0.80379369998991,"post_reward"
971.498996499999,0.80379369998991,"IA6LI11","2022_Jan_05_1046","MainTask",79,"Choice",0,5,"reward",2,0.80379369998991,"post_reward"
972.302790199989,0,"IA6LI11","2022_Jan_05_1046","MainTask",79,"Response",0,5,"reward",2,0.80379369998991,"post_reward"
974.334699999992,1,"IA6LI11","2022_Jan_05_1046","MainTask",79,"Feedback",0,5,"reward",2,0.80379369998991,"post_reward"
975.344335299989,3.73557149952624,"IA6LI11","2022_Jan_05_1046","MainTask",80,"Fixation",10,4,"loss",2,0.570383899990702,"post_reward"
979.072265700001,0.5,"IA6LI11","2022_Jan_05_1046","MainTask",80,"Money",10,4,"loss",2,0.570383899990702,"post_reward"
979.57239419999,0.570383899990702,"IA6LI11","2022_Jan_05_1046","MainTask",80,"Choice",10,4,"loss",2,0.570383899990702,"post_reward"
980.14277809998,0,"IA6LI11","2022_Jan_05_1046","MainTask",80,"Response",10,4,"loss",2,0.570383899990702,"post_reward"
982.174706299993,1,"IA6LI11","2022_Jan_05_1046","MainTask",80,"Feedback",10,4,"loss",2,0.570383899990702,"post_reward"
983.227292999989,2.70269712877385,"IA6LI11","2022_Jan_05_1046","MainTask",81,"Fixation",10,4,"loss",2,0.591275800004951,"post_loss"
985.927351099992,0.5,"IA6LI11","2022_Jan_05_1046","MainTask",81,"Money",10,4,"loss",2,0.591275800004951,"post_loss"
986.428243799994,0.591275800004951,"IA6LI11","2022_Jan_05_1046","MainTask",81,"Choice",10,4,"loss",2,0.591275800004951,"post_loss"
987.019519599999,0,"IA6LI11","2022_Jan_05_1046","MainTask",81,"Response",10,4,"loss",2,0.591275800004951,"post_loss"
989.047053499991,1,"IA6LI11","2022_Jan_05_1046","MainTask",81,"Feedback",10,4,"loss",2,0.591275800004951,"post_loss"
990.078328999996,3.92708868187896,"IA6LI11","2022_Jan_05_1046","MainTask",82,"Fixation",10,6,"reward",4,0.849466999992728,"post_loss"
994.001116299987,0.5,"IA6LI11","2022_Jan_05_1046","MainTask",82,"Money",10,6,"reward",4,0.849466999992728,"post_loss"
994.501477199999,0.849466999992728,"IA6LI11","2022_Jan_05_1046","MainTask",82,"Choice",10,6,"reward",4,0.849466999992728,"post_loss"
995.350944199992,0,"IA6LI11","2022_Jan_05_1046","MainTask",82,"Response",10,6,"reward",4,0.849466999992728,"post_loss"
997.404016299988,1,"IA6LI11","2022_Jan_05_1046","MainTask",82,"Feedback",10,6,"reward",4,0.849466999992728,"post_loss"
998.432537199988,3.17347086859369,"IA6LI11","2022_Jan_05_1046","MainTask",83,"Fixation",50,4,"reward",2,1.13265929999761,"post_reward"
1001.5907074,0.5,"IA6LI11","2022_Jan_05_1046","MainTask",83,"Money",50,4,"reward",2,1.13265929999761,"post_reward"
1002.09115889999,1.13265929999761,"IA6LI11","2022_Jan_05_1046","MainTask",83,"Choice",50,4,"reward",2,1.13265929999761,"post_reward"
1003.22381819999,0,"IA6LI11","2022_Jan_05_1046","MainTask",83,"Response",50,4,"reward",2,1.13265929999761,"post_reward"
1005.2438405,1,"IA6LI11","2022_Jan_05_1046","MainTask",83,"Feedback",50,4,"reward",2,1.13265929999761,"post_reward"
1006.2763973,4.33872452965649,"IA6LI11","2022_Jan_05_1046","MainTask",84,"Fixation",10,4,"loss",2,0.917554899991956,"post_reward"
1010.6149913,0.5,"IA6LI11","2022_Jan_05_1046","MainTask",84,"Money",10,4,"loss",2,0.917554899991956,"post_reward"
1011.11527179999,0.917554899991956,"IA6LI11","2022_Jan_05_1046","MainTask",84,"Choice",10,4,"loss",2,0.917554899991956,"post_reward"
1012.03282669999,0,"IA6LI11","2022_Jan_05_1046","MainTask",84,"Response",10,4,"loss",2,0.917554899991956,"post_reward"
1014.08461029999,1,"IA6LI11","2022_Jan_05_1046","MainTask",84,"Feedback",10,4,"loss",2,0.917554899991956,"post_reward"
1015.12804109999,4.43880906873466,"IA6LI11","2022_Jan_05_1046","MainTask",85,"Fixation",50,5,"loss",2,1.03972440000507,"post_loss"
1019.55562129999,0.5,"IA6LI11","2022_Jan_05_1046","MainTask",85,"Money",50,5,"loss",2,1.03972440000507,"post_loss"
1020.05606419999,1.03972440000507,"IA6LI11","2022_Jan_05_1046","MainTask",85,"Choice",50,5,"loss",2,1.03972440000507,"post_loss"
1021.0957886,0,"IA6LI11","2022_Jan_05_1046","MainTask",85,"Response",50,5,"loss",2,1.03972440000507,"post_loss"
1023.1252977,1,"IA6LI11","2022_Jan_05_1046","MainTask",85,"Feedback",50,5,"loss",2,1.03972440000507,"post_loss"
1024.16497119999,2.75793050404631,"IA6LI11","2022_Jan_05_1046","MainTask",86,"Fixation",0,4,"loss",2,2.8465986999945,"post_loss"
1026.92843249999,0.5,"IA6LI11","2022_Jan_05_1046","MainTask",86,"Money",0,4,"loss",2,2.8465986999945,"post_loss"
1027.4289664,2.8465986999945,"IA6LI11","2022_Jan_05_1046","MainTask",86,"Choice",0,4,"loss",2,2.8465986999945,"post_loss"
1030.27556509999,0,"IA6LI11","2022_Jan_05_1046","MainTask",86,"Response",0,4,"loss",2,2.8465986999945,"post_loss"
1032.2996883,1,"IA6LI11","2022_Jan_05_1046","MainTask",86,"Feedback",0,4,"loss",2,2.8465986999945,"post_loss"
1033.3052876,2.88377075539995,"IA6LI11","2022_Jan_05_1046","MainTask",87,"Fixation",0,5,"loss",2,0.639001000003191,"post_loss"
1036.18612899999,0.5,"IA6LI11","2022_Jan_05_1046","MainTask",87,"Money",0,5,"loss",2,0.639001000003191,"post_loss"
1036.6866323,0.639001000003191,"IA6LI11","2022_Jan_05_1046","MainTask",87,"Choice",0,5,"loss",2,0.639001000003191,"post_loss"
1037.3256333,0,"IA6LI11","2022_Jan_05_1046","MainTask",87,"Response",0,5,"loss",2,0.639001000003191,"post_loss"
1039.3555907,1,"IA6LI11","2022_Jan_05_1046","MainTask",87,"Feedback",0,5,"loss",2,0.639001000003191,"post_loss"
1040.36935379999,3.20169001763433,"IA6LI11","2022_Jan_05_1046","MainTask",88,"Fixation",10,4,"reward",2,0.669123899991973,"post_loss"
1043.5589949,0.5,"IA6LI11","2022_Jan_05_1046","MainTask",88,"Money",10,4,"reward",2,0.669123899991973,"post_loss"
1044.05945849999,0.669123899991973,"IA6LI11","2022_Jan_05_1046","MainTask",88,"Choice",10,4,"reward",2,0.669123899991973,"post_loss"
1044.72858239998,0,"IA6LI11","2022_Jan_05_1046","MainTask",88,"Response",10,4,"reward",2,0.669123899991973,"post_loss"
1046.79523239999,1,"IA6LI11","2022_Jan_05_1046","MainTask",88,"Feedback",10,4,"reward",2,0.669123899991973,"post_loss"
1047.8226861,3.64008599584216,"IA6LI11","2022_Jan_05_1046","MainTask",89,"Fixation",0,4,"reward",2,0.673386299997219,"post_reward"
1051.4488175,0.5,"IA6LI11","2022_Jan_05_1046","MainTask",89,"Money",0,4,"reward",2,0.673386299997219,"post_reward"
1051.9494005,0.673386299997219,"IA6LI11","2022_Jan_05_1046","MainTask",89,"Choice",0,4,"reward",2,0.673386299997219,"post_reward"
1052.6227868,0,"IA6LI11","2022_Jan_05_1046","MainTask",89,"Response",0,4,"reward",2,0.673386299997219,"post_reward"
1054.65210359999,1,"IA6LI11","2022_Jan_05_1046","MainTask",89,"Feedback",0,4,"reward",2,0.673386299997219,"post_reward"
1055.66502679999,3.58822424198784,"IA6LI11","2022_Jan_05_1046","MainTask",90,"Fixation",50,2,"reward",2,2.06586390000302,"post_reward"
1059.23879579999,0.5,"IA6LI11","2022_Jan_05_1046","MainTask",90,"Money",50,2,"reward",2,2.06586390000302,"post_reward"
1059.73921109999,2.06586390000302,"IA6LI11","2022_Jan_05_1046","MainTask",90,"Choice",50,2,"reward",2,2.06586390000302,"post_reward"
1061.805075,0,"IA6LI11","2022_Jan_05_1046","MainTask",90,"Response",50,2,"reward",2,2.06586390000302,"post_reward"
1063.8257757,1,"IA6LI11","2022_Jan_05_1046","MainTask",90,"Feedback",50,2,"reward",2,2.06586390000302,"post_reward"
1064.8769355,4.14920626956657,"IA6LI11","2022_Jan_05_1046","MainTask",91,"Fixation",0,5,"loss",4,0.591724400001112,"post_reward"
1069.01358329999,0.5,"IA6LI11","2022_Jan_05_1046","MainTask",91,"Money",0,5,"loss",4,0.591724400001112,"post_reward"
1069.5138437,0.591724400001112,"IA6LI11","2022_Jan_05_1046","MainTask",91,"Choice",0,5,"loss",4,0.591724400001112,"post_reward"
1070.1055681,0,"IA6LI11","2022_Jan_05_1046","MainTask",91,"Response",0,5,"loss",4,0.591724400001112,"post_reward"
1072.16604299999,1,"IA6LI11","2022_Jan_05_1046","MainTask",91,"Feedback",0,5,"loss",4,0.591724400001112,"post_reward"
1073.15277429999,3.98938333101482,"IA6LI11","2022_Jan_05_1046","MainTask",92,"Fixation",0,4,"reward",2,0.654304199997569,"post_loss"
1077.13699879999,0.5,"IA6LI11","2022_Jan_05_1046","MainTask",92,"Money",0,4,"reward",2,0.654304199997569,"post_loss"
1077.6373913,0.654304199997569,"IA6LI11","2022_Jan_05_1046","MainTask",92,"Choice",0,4,"reward",2,0.654304199997569,"post_loss"
1078.2916955,0,"IA6LI11","2022_Jan_05_1046","MainTask",92,"Response",0,4,"reward",2,0.654304199997569,"post_loss"
1080.32272459999,1,"IA6LI11","2022_Jan_05_1046","MainTask",92,"Feedback",0,4,"reward",2,0.654304199997569,"post_loss"
1081.3344598,3.0435336352857,"IA6LI11","2022_Jan_05_1046","MainTask",93,"Fixation",10,5,"loss",2,0.488738800006104,"post_reward"
1084.35960689999,0.5,"IA6LI11","2022_Jan_05_1046","MainTask",93,"Money",10,5,"loss",2,0.488738800006104,"post_reward"
1084.85995259999,0.488738800006104,"IA6LI11","2022_Jan_05_1046","MainTask",93,"Choice",10,5,"loss",2,0.488738800006104,"post_reward"
1085.3486914,0,"IA6LI11","2022_Jan_05_1046","MainTask",93,"Response",10,5,"loss",2,0.488738800006104,"post_reward"
1087.37879629999,1,"IA6LI11","2022_Jan_05_1046","MainTask",93,"Feedback",10,5,"loss",2,0.488738800006104,"post_reward"
1088.4243455,3.82855308114622,"IA6LI11","2022_Jan_05_1046","MainTask",94,"Fixation",10,4,"reward",2,0.984583000012208,"post_loss"
1092.24961629999,0.5,"IA6LI11","2022_Jan_05_1046","MainTask",94,"Money",10,4,"reward",2,0.984583000012208,"post_loss"
1092.75004289999,0.984583000012208,"IA6LI11","2022_Jan_05_1046","MainTask",94,"Choice",10,4,"reward",2,0.984583000012208,"post_loss"
1093.7346259,0,"IA6LI11","2022_Jan_05_1046","MainTask",94,"Response",10,4,"reward",2,0.984583000012208,"post_loss"
1095.8023676,1,"IA6LI11","2022_Jan_05_1046","MainTask",94,"Feedback",10,4,"reward",2,0.984583000012208,"post_loss"
1096.8457814,3.18233060366234,"IA6LI11","2022_Jan_05_1046","MainTask",95,"Fixation",0,4,"reward",2,0.518763100000797,"post_reward"
1100.02250969999,0.5,"IA6LI11","2022_Jan_05_1046","MainTask",95,"Money",0,4,"reward",2,0.518763100000797,"post_reward"
1100.52294929999,0.518763100000797,"IA6LI11","2022_Jan_05_1046","MainTask",95,"Choice",0,4,"reward",2,0.518763100000797,"post_reward"
1101.04171239999,0,"IA6LI11","2022_Jan_05_1046","MainTask",95,"Response",0,4,"reward",2,0.518763100000797,"post_reward"
1103.05847649999,1,"IA6LI11","2022_Jan_05_1046","MainTask",95,"Feedback",0,4,"reward",2,0.518763100000797,"post_reward"
1104.0670023,3.89222443346812,"IA6LI11","2022_Jan_05_1046","MainTask",96,"Fixation",10,4,"reward",2,0.481551700009732,"post_reward"
1107.945964,0.5,"IA6LI11","2022_Jan_05_1046","MainTask",96,"Money",10,4,"reward",2,0.481551700009732,"post_reward"
1108.4463784,0.481551700009732,"IA6LI11","2022_Jan_05_1046","MainTask",96,"Choice",10,4,"reward",2,0.481551700009732,"post_reward"
1108.92793010001,0,"IA6LI11","2022_Jan_05_1046","MainTask",96,"Response",10,4,"reward",2,0.481551700009732,"post_reward"
1110.9484233,1,"IA6LI11","2022_Jan_05_1046","MainTask",96,"Feedback",10,4,"reward",2,0.481551700009732,"post_reward"
1111.99053919999,3.81442994843182,"IA6LI11","2022_Jan_05_1046","MainTask",97,"Fixation",0,4,"reward",2,0.499623200012138,"post_reward"
1115.7858608,0.5,"IA6LI11","2022_Jan_05_1046","MainTask",97,"Money",0,4,"reward",2,0.499623200012138,"post_reward"
1116.28611299999,0.499623200012138,"IA6LI11","2022_Jan_05_1046","MainTask",97,"Choice",0,4,"reward",2,0.499623200012138,"post_reward"
1116.78573620001,0,"IA6LI11","2022_Jan_05_1046","MainTask",97,"Response",0,4,"reward",2,0.499623200012138,"post_reward"
1118.8047082,1,"IA6LI11","2022_Jan_05_1046","MainTask",97,"Feedback",0,4,"reward",2,0.499623200012138,"post_reward"
1119.81781749999,3.74883100215041,"IA6LI11","2022_Jan_05_1046","MainTask",98,"Fixation",50,6,"reward",4,1.27327619999414,"post_reward"
1123.55882539999,0.5,"IA6LI11","2022_Jan_05_1046","MainTask",98,"Money",50,6,"reward",4,1.27327619999414,"post_reward"
1124.0594157,1.27327619999414,"IA6LI11","2022_Jan_05_1046","MainTask",98,"Choice",50,6,"reward",4,1.27327619999414,"post_reward"
1125.3326919,0,"IA6LI11","2022_Jan_05_1046","MainTask",98,"Response",50,6,"reward",4,1.27327619999414,"post_reward"
1127.36211789999,1,"IA6LI11","2022_Jan_05_1046","MainTask",98,"Feedback",50,6,"reward",4,1.27327619999414,"post_reward"
1128.3986534,3.11748610861626,"IA6LI11","2022_Jan_05_1046","MainTask",99,"Fixation",50,2,"loss",2,0.639782800004468,"post_reward"
1131.51538309999,0.5,"IA6LI11","2022_Jan_05_1046","MainTask",99,"Money",50,2,"loss",2,0.639782800004468,"post_reward"
1132.01579969999,0.639782800004468,"IA6LI11","2022_Jan_05_1046","MainTask",99,"Choice",50,2,"loss",2,0.639782800004468,"post_reward"
1132.6555825,0,"IA6LI11","2022_Jan_05_1046","MainTask",99,"Response",50,2,"loss",2,0.639782800004468,"post_reward"
1134.71800189999,1,"IA6LI11","2022_Jan_05_1046","MainTask",99,"Feedback",50,2,"loss",2,0.639782800004468,"post_reward"
1135.7484787,4.39960347313766,"IA6LI11","2022_Jan_05_1046","MainTask",100,"Fixation",50,4,"loss",2,0.641828700012411,"post_loss"
1140.1392355,0.5,"IA6LI11","2022_Jan_05_1046","MainTask",100,"Money",50,4,"loss",2,0.641828700012411,"post_loss"
1140.63977749999,0.641828700012411,"IA6LI11","2022_Jan_05_1046","MainTask",100,"Choice",50,4,"loss",2,0.641828700012411,"post_loss"
1141.28160620001,0,"IA6LI11","2022_Jan_05_1046","MainTask",100,"Response",50,4,"loss",2,0.641828700012411,"post_loss"
1143.30867629999,1,"IA6LI11","2022_Jan_05_1046","MainTask",100,"Feedback",50,4,"loss",2,0.641828700012411,"post_loss"
1144.3559158,2.87622225324714,"IA6LI11","2022_Jan_05_1046","MainTask",101,"Fixation",50,4,"loss",4,2.1208181999973,"post_loss"
1147.2286184,0.5,"IA6LI11","2022_Jan_05_1046","MainTask",101,"Money",50,4,"loss",4,2.1208181999973,"post_loss"
1147.7288654,2.1208181999973,"IA6LI11","2022_Jan_05_1046","MainTask",101,"Choice",50,4,"loss",4,2.1208181999973,"post_loss"
1149.8496836,0,"IA6LI11","2022_Jan_05_1046","MainTask",101,"Response",50,4,"loss",4,2.1208181999973,"post_loss"
1151.8823403,1,"IA6LI11","2022_Jan_05_1046","MainTask",101,"Feedback",50,4,"loss",4,2.1208181999973,"post_loss"
1152.907391,3.91658000745813,"IA6LI11","2022_Jan_05_1046","MainTask",102,"Fixation",10,4,"reward",2,0.40336070000194,"post_loss"
1156.8031984,0.5,"IA6LI11","2022_Jan_05_1046","MainTask",102,"Money",10,4,"reward",2,0.40336070000194,"post_loss"
1157.3034829,0.40336070000194,"IA6LI11","2022_Jan_05_1046","MainTask",102,"Choice",10,4,"reward",2,0.40336070000194,"post_loss"
1157.7068436,0,"IA6LI11","2022_Jan_05_1046","MainTask",102,"Response",10,4,"reward",2,0.40336070000194,"post_loss"
1159.7891582,1,"IA6LI11","2022_Jan_05_1046","MainTask",102,"Feedback",10,4,"reward",2,0.40336070000194,"post_loss"
1160.7951699,3.30542794997805,"IA6LI11","2022_Jan_05_1046","MainTask",103,"Fixation",50,5,"reward",4,2.74198720000277,"post_reward"
1164.0927328,0.5,"IA6LI11","2022_Jan_05_1046","MainTask",103,"Money",50,5,"reward",4,2.74198720000277,"post_reward"
1164.59286539999,2.74198720000277,"IA6LI11","2022_Jan_05_1046","MainTask",103,"Choice",50,5,"reward",4,2.74198720000277,"post_reward"
1167.33485259999,0,"IA6LI11","2022_Jan_05_1046","MainTask",103,"Response",50,5,"reward",4,2.74198720000277,"post_reward"
1169.3636712,1,"IA6LI11","2022_Jan_05_1046","MainTask",103,"Feedback",50,5,"reward",4,2.74198720000277,"post_reward"
1170.39496789999,3.23978091734893,"IA6LI11","2022_Jan_05_1046","MainTask",104,"Fixation",50,4,"reward",2,1.24732479998784,"post_reward"
1173.6338465,0.5,"IA6LI11","2022_Jan_05_1046","MainTask",104,"Money",50,4,"reward",2,1.24732479998784,"post_reward"
1174.13408459999,1.24732479998784,"IA6LI11","2022_Jan_05_1046","MainTask",104,"Choice",50,4,"reward",2,1.24732479998784,"post_reward"
1175.38140939998,0,"IA6LI11","2022_Jan_05_1046","MainTask",104,"Response",50,4,"reward",2,1.24732479998784,"post_reward"
1177.40386409999,1,"IA6LI11","2022_Jan_05_1046","MainTask",104,"Feedback",50,4,"reward",2,1.24732479998784,"post_reward"
1178.44089909999,3.00312348350784,"IA6LI11","2022_Jan_05_1046","MainTask",105,"Fixation",50,5,"loss",4,1.72400269999343,"post_reward"
1181.44033829999,0.5,"IA6LI11","2022_Jan_05_1046","MainTask",105,"Money",50,5,"loss",4,1.72400269999343,"post_reward"
1181.94078759999,1.72400269999343,"IA6LI11","2022_Jan_05_1046","MainTask",105,"Choice",50,5,"loss",4,1.72400269999343,"post_reward"
1183.66479029998,0,"IA6LI11","2022_Jan_05_1046","MainTask",105,"Response",50,5,"loss",4,1.72400269999343,"post_reward"
1185.72713309999,1,"IA6LI11","2022_Jan_05_1046","MainTask",105,"Feedback",50,5,"loss",4,1.72400269999343,"post_reward"
1186.7578466,3.35547939376174,"IA6LI11","2022_Jan_05_1046","MainTask",106,"Fixation",50,5,"reward",2,2.49999100000423,"post_loss"
1190.0975948,0.5,"IA6LI11","2022_Jan_05_1046","MainTask",106,"Money",50,5,"reward",2,2.49999100000423,"post_loss"
1190.59784219999,2.49999100000423,"IA6LI11","2022_Jan_05_1046","MainTask",106,"Choice",50,5,"reward",2,2.49999100000423,"post_loss"
1193.09783319999,0,"IA6LI11","2022_Jan_05_1046","MainTask",106,"Response",50,5,"reward",2,2.49999100000423,"post_loss"
1195.15161239999,1,"IA6LI11","2022_Jan_05_1046","MainTask",106,"Feedback",50,5,"reward",2,2.49999100000423,"post_loss"
1196.184532,3.97944772668584,"IA6LI11","2022_Jan_05_1046","MainTask",107,"Fixation",0,5,"reward",2,1.25351379999483,"post_reward"
1200.15601199999,0.5,"IA6LI11","2022_Jan_05_1046","MainTask",107,"Money",0,5,"reward",2,1.25351379999483,"post_reward"
1200.65626369999,1.25351379999483,"IA6LI11","2022_Jan_05_1046","MainTask",107,"Choice",0,5,"reward",2,1.25351379999483,"post_reward"
1201.90977749998,0,"IA6LI11","2022_Jan_05_1046","MainTask",107,"Response",0,5,"reward",2,1.25351379999483,"post_reward"
1203.94227809999,1,"IA6LI11","2022_Jan_05_1046","MainTask",107,"Feedback",0,5,"reward",2,1.25351379999483,"post_reward"
1204.95127429999,3.94298254279825,"IA6LI11","2022_Jan_05_1046","MainTask",108,"Fixation",0,4,"loss",2,1.3043319999997,"post_reward"
1208.87972909999,0.5,"IA6LI11","2022_Jan_05_1046","MainTask",108,"Money",0,4,"loss",2,1.3043319999997,"post_reward"
1209.3802454,1.3043319999997,"IA6LI11","2022_Jan_05_1046","MainTask",108,"Choice",0,4,"loss",2,1.3043319999997,"post_reward"
1210.6845774,0,"IA6LI11","2022_Jan_05_1046","MainTask",108,"Response",0,4,"loss",2,1.3043319999997,"post_reward"
1212.7496041,1,"IA6LI11","2022_Jan_05_1046","MainTask",108,"Feedback",0,4,"loss",2,1.3043319999997,"post_reward"
1213.73646989999,3.14391670671926,"IA6LI11","2022_Jan_05_1046","MainTask",109,"Fixation",0,5,"reward",2,1.21930579999753,"post_loss"
1216.86983169999,0.5,"IA6LI11","2022_Jan_05_1046","MainTask",109,"Money",0,5,"reward",2,1.21930579999753,"post_loss"
1217.3702449,1.21930579999753,"IA6LI11","2022_Jan_05_1046","MainTask",109,"Choice",0,5,"reward",2,1.21930579999753,"post_loss"
1218.5895507,0,"IA6LI11","2022_Jan_05_1046","MainTask",109,"Response",0,5,"reward",2,1.21930579999753,"post_loss"
1220.6227827,1,"IA6LI11","2022_Jan_05_1046","MainTask",109,"Feedback",0,5,"reward",2,1.21930579999753,"post_loss"
1221.62565059999,2.67201915726848,"IA6LI11","2022_Jan_05_1046","MainTask",110,"Fixation",0,5,"reward",2,0.547636300005252,"post_reward"
1224.27598759999,0.5,"IA6LI11","2022_Jan_05_1046","MainTask",110,"Money",0,5,"reward",2,0.547636300005252,"post_reward"
1224.77626839999,0.547636300005252,"IA6LI11","2022_Jan_05_1046","MainTask",110,"Choice",0,5,"reward",2,0.547636300005252,"post_reward"
1225.3239047,0,"IA6LI11","2022_Jan_05_1046","MainTask",110,"Response",0,5,"reward",2,0.547636300005252,"post_reward"
1227.34506719999,1,"IA6LI11","2022_Jan_05_1046","MainTask",110,"Feedback",0,5,"reward",2,0.547636300005252,"post_reward"
1228.35528409999,3.51209449154421,"IA6LI11","2022_Jan_05_1046","MainTask",111,"Fixation",50,5,"loss",2,0.620490799992695,"post_reward"
1231.84894669999,0.5,"IA6LI11","2022_Jan_05_1046","MainTask",111,"Money",50,5,"loss",2,0.620490799992695,"post_reward"
1232.3491752,0.620490799992695,"IA6LI11","2022_Jan_05_1046","MainTask",111,"Choice",50,5,"loss",2,0.620490799992695,"post_reward"
1232.96966599999,0,"IA6LI11","2022_Jan_05_1046","MainTask",111,"Response",50,5,"loss",2,0.620490799992695,"post_reward"
1235.00193499999,1,"IA6LI11","2022_Jan_05_1046","MainTask",111,"Feedback",50,5,"loss",2,0.620490799992695,"post_reward"
1236.0677436,4.16589413687237,"IA6LI11","2022_Jan_05_1046","MainTask",112,"Fixation",10,4,"loss",2,0.927664799994091,"post_loss"
1240.22257329999,0.5,"IA6LI11","2022_Jan_05_1046","MainTask",112,"Money",10,4,"loss",2,0.927664799994091,"post_loss"
1240.7229966,0.927664799994091,"IA6LI11","2022_Jan_05_1046","MainTask",112,"Choice",10,4,"loss",2,0.927664799994091,"post_loss"
1241.6506614,0,"IA6LI11","2022_Jan_05_1046","MainTask",112,"Response",10,4,"loss",2,0.927664799994091,"post_loss"
1243.67538079999,1,"IA6LI11","2022_Jan_05_1046","MainTask",112,"Feedback",10,4,"loss",2,0.927664799994091,"post_loss"
1244.7026933,2.50035564137246,"IA6LI11","2022_Jan_05_1046","MainTask",113,"Fixation",0,5,"loss",2,1.14121089999389,"post_loss"
1247.1948934,0.5,"IA6LI11","2022_Jan_05_1046","MainTask",113,"Money",0,5,"loss",2,1.14121089999389,"post_loss"
1247.69531489999,1.14121089999389,"IA6LI11","2022_Jan_05_1046","MainTask",113,"Choice",0,5,"loss",2,1.14121089999389,"post_loss"
1248.83652579998,0,"IA6LI11","2022_Jan_05_1046","MainTask",113,"Response",0,5,"loss",2,1.14121089999389,"post_loss"
1250.86459249999,1,"IA6LI11","2022_Jan_05_1046","MainTask",113,"Feedback",0,5,"loss",2,1.14121089999389,"post_loss"
1251.8705091,4.47889932474402,"IA6LI11","2022_Jan_05_1046","MainTask",114,"Fixation",0,5,"loss",2,1.60018510000373,"post_loss"
1256.352669,0.5,"IA6LI11","2022_Jan_05_1046","MainTask",114,"Money",0,5,"loss",2,1.60018510000373,"post_loss"
1256.85293759999,1.60018510000373,"IA6LI11","2022_Jan_05_1046","MainTask",114,"Choice",0,5,"loss",2,1.60018510000373,"post_loss"
1258.4531227,0,"IA6LI11","2022_Jan_05_1046","MainTask",114,"Response",0,5,"loss",2,1.60018510000373,"post_loss"
1260.4726237,1,"IA6LI11","2022_Jan_05_1046","MainTask",114,"Feedback",0,5,"loss",2,1.60018510000373,"post_loss"
1261.48591389999,3.24123115880103,"IA6LI11","2022_Jan_05_1046","MainTask",115,"Fixation",0,4,"reward",2,0.813999999998487,"post_loss"
1264.70916899999,0.5,"IA6LI11","2022_Jan_05_1046","MainTask",115,"Money",0,4,"reward",2,0.813999999998487,"post_loss"
1265.21007069999,0.813999999998487,"IA6LI11","2022_Jan_05_1046","MainTask",115,"Choice",0,4,"reward",2,0.813999999998487,"post_loss"
1266.02407069999,0,"IA6LI11","2022_Jan_05_1046","MainTask",115,"Response",0,4,"reward",2,0.813999999998487,"post_loss"
1268.07908309999,1,"IA6LI11","2022_Jan_05_1046","MainTask",115,"Feedback",0,4,"reward",2,0.813999999998487,"post_loss"
1269.06499119999,4.19152371532478,"IA6LI11","2022_Jan_05_1046","MainTask",116,"Fixation",10,8,"loss",4,1.0443898000085,"post_reward"
1273.25007349999,0.5,"IA6LI11","2022_Jan_05_1046","MainTask",116,"Money",10,8,"loss",4,1.0443898000085,"post_reward"
1273.75031179999,1.0443898000085,"IA6LI11","2022_Jan_05_1046","MainTask",116,"Choice",10,8,"loss",4,1.0443898000085,"post_reward"
1274.7947016,0,"IA6LI11","2022_Jan_05_1046","MainTask",116,"Response",10,8,"loss",4,1.0443898000085,"post_reward"
1276.8196796,1,"IA6LI11","2022_Jan_05_1046","MainTask",116,"Feedback",10,8,"loss",4,1.0443898000085,"post_reward"
1277.86121609999,3.97506459019548,"IA6LI11","2022_Jan_05_1046","MainTask",117,"Fixation",10,4,"loss",2,1.94646070001181,"post_loss"
1281.82364999999,0.5,"IA6LI11","2022_Jan_05_1046","MainTask",117,"Money",10,4,"loss",2,1.94646070001181,"post_loss"
1282.32410469999,1.94646070001181,"IA6LI11","2022_Jan_05_1046","MainTask",117,"Choice",10,4,"loss",2,1.94646070001181,"post_loss"
1284.2705654,0,"IA6LI11","2022_Jan_05_1046","MainTask",117,"Response",10,4,"loss",2,1.94646070001181,"post_loss"
1286.2942072,1,"IA6LI11","2022_Jan_05_1046","MainTask",117,"Feedback",10,4,"loss",2,1.94646070001181,"post_loss"
1287.3332633,2.56152706255468,"IA6LI11","2022_Jan_05_1046","MainTask",118,"Fixation",10,5,"reward",2,0.963475299999118,"post_loss"
1289.8970667,0.5,"IA6LI11","2022_Jan_05_1046","MainTask",118,"Money",10,5,"reward",2,0.963475299999118,"post_loss"
1290.39750389999,0.963475299999118,"IA6LI11","2022_Jan_05_1046","MainTask",118,"Choice",10,5,"reward",2,0.963475299999118,"post_loss"
1291.36097919999,0,"IA6LI11","2022_Jan_05_1046","MainTask",118,"Response",10,5,"reward",2,0.963475299999118,"post_loss"
1293.4001914,1,"IA6LI11","2022_Jan_05_1046","MainTask",118,"Feedback",10,5,"reward",2,0.963475299999118,"post_loss"
1294.4491308,4.06318776669017,"IA6LI11","2022_Jan_05_1046","MainTask",119,"Fixation",0,5,"loss",2,0.790871299992432,"post_reward"
1298.50447649999,0.5,"IA6LI11","2022_Jan_05_1046","MainTask",119,"Money",0,5,"loss",2,0.790871299992432,"post_reward"
1299.00467949999,0.790871299992432,"IA6LI11","2022_Jan_05_1046","MainTask",119,"Choice",0,5,"loss",2,0.790871299992432,"post_reward"
1299.79555079999,0,"IA6LI11","2022_Jan_05_1046","MainTask",119,"Response",0,5,"loss",2,0.790871299992432,"post_reward"
1301.87370259999,1,"IA6LI11","2022_Jan_05_1046","MainTask",119,"Feedback",0,5,"loss",2,0.790871299992432,"post_reward"
1302.84411419999,20.9435244999913,"IA6LI11","2022_Jan_05_1046","MainTask",2,"Break",NA,NA,NA,NA,20.9435244999913,"post_break"
1324.8033133,4.02272683805213,"IA6LI11","2022_Jan_05_1046","MainTask",120,"Fixation",50,4,"loss",2,0.721552300004987,NA
1328.81290419999,0.5,"IA6LI11","2022_Jan_05_1046","MainTask",120,"Money",50,4,"loss",2,0.721552300004987,NA
1329.313211,0.721552300004987,"IA6LI11","2022_Jan_05_1046","MainTask",120,"Choice",50,4,"loss",2,0.721552300004987,NA
1330.03476330001,0,"IA6LI11","2022_Jan_05_1046","MainTask",120,"Response",50,4,"loss",2,0.721552300004987,NA
1332.0654487,1,"IA6LI11","2022_Jan_05_1046","MainTask",120,"Feedback",50,4,"loss",2,0.721552300004987,NA
1333.13791989999,3.79199567038817,"IA6LI11","2022_Jan_05_1046","MainTask",121,"Fixation",10,4,"reward",2,0.728104699999676,"post_loss"
1336.9360895,0.5,"IA6LI11","2022_Jan_05_1046","MainTask",121,"Money",10,4,"reward",2,0.728104699999676,"post_loss"
1337.43651229999,0.728104699999676,"IA6LI11","2022_Jan_05_1046","MainTask",121,"Choice",10,4,"reward",2,0.728104699999676,"post_loss"
1338.16461699999,0,"IA6LI11","2022_Jan_05_1046","MainTask",121,"Response",10,4,"reward",2,0.728104699999676,"post_loss"
1340.22239519999,1,"IA6LI11","2022_Jan_05_1046","MainTask",121,"Feedback",10,4,"reward",2,0.728104699999676,"post_loss"
1341.26377409999,4.2579707408374,"IA6LI11","2022_Jan_05_1046","MainTask",122,"Fixation",0,8,"reward",4,0.804796500000521,"post_reward"
1345.51011789999,0.5,"IA6LI11","2022_Jan_05_1046","MainTask",122,"Money",0,8,"reward",4,0.804796500000521,"post_reward"
1346.01029409999,0.804796500000521,"IA6LI11","2022_Jan_05_1046","MainTask",122,"Choice",0,8,"reward",4,0.804796500000521,"post_reward"
1346.81509059999,0,"IA6LI11","2022_Jan_05_1046","MainTask",122,"Response",0,8,"reward",4,0.804796500000521,"post_reward"
1348.8462477,1,"IA6LI11","2022_Jan_05_1046","MainTask",122,"Feedback",0,8,"reward",4,0.804796500000521,"post_reward"
1349.85632389999,4.06317183582896,"IA6LI11","2022_Jan_05_1046","MainTask",123,"Fixation",50,4,"loss",2,1.1548613999912,"post_reward"
1353.9005109,0.5,"IA6LI11","2022_Jan_05_1046","MainTask",123,"Money",50,4,"loss",2,1.1548613999912,"post_reward"
1354.4008258,1.1548613999912,"IA6LI11","2022_Jan_05_1046","MainTask",123,"Choice",50,4,"loss",2,1.1548613999912,"post_reward"
1355.55568719999,0,"IA6LI11","2022_Jan_05_1046","MainTask",123,"Response",50,4,"loss",2,1.1548613999912,"post_reward"
1357.620054,1,"IA6LI11","2022_Jan_05_1046","MainTask",123,"Feedback",50,4,"loss",2,1.1548613999912,"post_reward"
1358.6731095,3.53049204325578,"IA6LI11","2022_Jan_05_1046","MainTask",124,"Fixation",10,4,"reward",2,0.594783799999277,"post_loss"
1362.20719269999,0.5,"IA6LI11","2022_Jan_05_1046","MainTask",124,"Money",10,4,"reward",2,0.594783799999277,"post_loss"
1362.70774669999,0.594783799999277,"IA6LI11","2022_Jan_05_1046","MainTask",124,"Choice",10,4,"reward",2,0.594783799999277,"post_loss"
1363.30253049999,0,"IA6LI11","2022_Jan_05_1046","MainTask",124,"Response",10,4,"reward",2,0.594783799999277,"post_loss"
1365.3599655,1,"IA6LI11","2022_Jan_05_1046","MainTask",124,"Feedback",10,4,"reward",2,0.594783799999277,"post_loss"
1366.38498979999,3.46332696364408,"IA6LI11","2022_Jan_05_1046","MainTask",125,"Fixation",50,5,"loss",2,1.041158299995,"post_reward"
1369.8303457,0.5,"IA6LI11","2022_Jan_05_1046","MainTask",125,"Money",50,5,"loss",2,1.041158299995,"post_reward"
1370.330533,1.041158299995,"IA6LI11","2022_Jan_05_1046","MainTask",125,"Choice",50,5,"loss",2,1.041158299995,"post_reward"
1371.3716913,0,"IA6LI11","2022_Jan_05_1046","MainTask",125,"Response",50,5,"loss",2,1.041158299995,"post_reward"
1373.433141,1,"IA6LI11","2022_Jan_05_1046","MainTask",125,"Feedback",50,5,"loss",2,1.041158299995,"post_reward"
1374.47753999999,3.15032276587557,"IA6LI11","2022_Jan_05_1046","MainTask",126,"Fixation",10,4,"reward",2,1.20745209998859,"post_loss"
1377.620056,0.5,"IA6LI11","2022_Jan_05_1046","MainTask",126,"Money",10,4,"reward",2,1.20745209998859,"post_loss"
1378.1204473,1.20745209998859,"IA6LI11","2022_Jan_05_1046","MainTask",126,"Choice",10,4,"reward",2,1.20745209998859,"post_loss"
1379.32789939998,0,"IA6LI11","2022_Jan_05_1046","MainTask",126,"Response",10,4,"reward",2,1.20745209998859,"post_loss"
1381.38995079999,1,"IA6LI11","2022_Jan_05_1046","MainTask",126,"Feedback",10,4,"reward",2,1.20745209998859,"post_loss"
1382.43428409999,4.22322499533282,"IA6LI11","2022_Jan_05_1046","MainTask",127,"Fixation",50,4,"reward",4,2.86811769999622,"post_reward"
1386.6443053,0.5,"IA6LI11","2022_Jan_05_1046","MainTask",127,"Money",50,4,"reward",4,2.86811769999622,"post_reward"
1387.14474239999,2.86811769999622,"IA6LI11","2022_Jan_05_1046","MainTask",127,"Choice",50,4,"reward",4,2.86811769999622,"post_reward"
1390.01286009999,0,"IA6LI11","2022_Jan_05_1046","MainTask",127,"Response",50,4,"reward",4,2.86811769999622,"post_reward"
1392.03197689999,1,"IA6LI11","2022_Jan_05_1046","MainTask",127,"Feedback",50,4,"reward",4,2.86811769999622,"post_reward"
1393.06014769999,2.82996482310808,"IA6LI11","2022_Jan_05_1046","MainTask",128,"Fixation",0,5,"reward",2,1.48692390001088,"post_reward"
1395.88519789999,0.5,"IA6LI11","2022_Jan_05_1046","MainTask",128,"Money",0,5,"reward",2,1.48692390001088,"post_reward"
1396.38572179999,1.48692390001088,"IA6LI11","2022_Jan_05_1046","MainTask",128,"Choice",0,5,"reward",2,1.48692390001088,"post_reward"
1397.8726457,0,"IA6LI11","2022_Jan_05_1046","MainTask",128,"Response",0,5,"reward",2,1.48692390001088,"post_reward"
1399.9053213,1,"IA6LI11","2022_Jan_05_1046","MainTask",128,"Feedback",0,5,"reward",2,1.48692390001088,"post_reward"
1400.91188319999,3.37850139953342,"IA6LI11","2022_Jan_05_1046","MainTask",129,"Fixation",50,4,"reward",4,2.39590800000587,"post_reward"
1404.29222769999,0.5,"IA6LI11","2022_Jan_05_1046","MainTask",129,"Money",50,4,"reward",4,2.39590800000587,"post_reward"
1404.7927106,2.39590800000587,"IA6LI11","2022_Jan_05_1046","MainTask",129,"Choice",50,4,"reward",4,2.39590800000587,"post_reward"
1407.1886186,0,"IA6LI11","2022_Jan_05_1046","MainTask",129,"Response",50,4,"reward",4,2.39590800000587,"post_reward"
1409.21294489999,1,"IA6LI11","2022_Jan_05_1046","MainTask",129,"Feedback",50,4,"reward",4,2.39590800000587,"post_reward"
1410.23679479999,4.24099476282058,"IA6LI11","2022_Jan_05_1046","MainTask",130,"Fixation",0,8,"reward",2,1.19342330000654,"post_reward"
1414.4839922,0.5,"IA6LI11","2022_Jan_05_1046","MainTask",130,"Money",0,8,"reward",2,1.19342330000654,"post_reward"
1414.98432259999,1.19342330000654,"IA6LI11","2022_Jan_05_1046","MainTask",130,"Choice",0,8,"reward",2,1.19342330000654,"post_reward"
1416.1777459,0,"IA6LI11","2022_Jan_05_1046","MainTask",130,"Response",0,8,"reward",2,1.19342330000654,"post_reward"
1418.2039677,1,"IA6LI11","2022_Jan_05_1046","MainTask",130,"Feedback",0,8,"reward",2,1.19342330000654,"post_reward"
1419.20838689999,2.69606134905955,"IA6LI11","2022_Jan_05_1046","MainTask",131,"Fixation",0,5,"loss",2,0.468321099993773,"post_reward"
1421.90699239999,0.5,"IA6LI11","2022_Jan_05_1046","MainTask",131,"Money",0,5,"loss",2,0.468321099993773,"post_reward"
1422.40740079999,0.468321099993773,"IA6LI11","2022_Jan_05_1046","MainTask",131,"Choice",0,5,"loss",2,0.468321099993773,"post_reward"
1422.87572189998,0,"IA6LI11","2022_Jan_05_1046","MainTask",131,"Response",0,5,"loss",2,0.468321099993773,"post_reward"
1424.92602259999,1,"IA6LI11","2022_Jan_05_1046","MainTask",131,"Feedback",0,5,"loss",2,0.468321099993773,"post_reward"
1425.9225324,3.22422339922681,"IA6LI11","2022_Jan_05_1046","MainTask",132,"Fixation",50,5,"reward",2,0.583706500008702,"post_loss"
1429.1295122,0.5,"IA6LI11","2022_Jan_05_1046","MainTask",132,"Money",50,5,"reward",2,0.583706500008702,"post_loss"
1429.63004239999,0.583706500008702,"IA6LI11","2022_Jan_05_1046","MainTask",132,"Choice",50,5,"reward",2,0.583706500008702,"post_loss"
1430.2137489,0,"IA6LI11","2022_Jan_05_1046","MainTask",132,"Response",50,5,"reward",2,0.583706500008702,"post_loss"
1432.2322359,1,"IA6LI11","2022_Jan_05_1046","MainTask",132,"Feedback",50,5,"reward",2,0.583706500008702,"post_loss"
1433.29296029999,3.08938528524637,"IA6LI11","2022_Jan_05_1046","MainTask",133,"Fixation",50,4,"reward",4,1.17935980000766,"post_reward"
1436.36905679999,0.5,"IA6LI11","2022_Jan_05_1046","MainTask",133,"Money",50,4,"reward",4,1.17935980000766,"post_reward"
1436.869416,1.17935980000766,"IA6LI11","2022_Jan_05_1046","MainTask",133,"Choice",50,4,"reward",4,1.17935980000766,"post_reward"
1438.04877580001,0,"IA6LI11","2022_Jan_05_1046","MainTask",133,"Response",50,4,"reward",4,1.17935980000766,"post_reward"
1440.07207719999,1,"IA6LI11","2022_Jan_05_1046","MainTask",133,"Feedback",50,4,"reward",4,1.17935980000766,"post_reward"
1441.12811939999,3.49862757960402,"IA6LI11","2022_Jan_05_1046","MainTask",134,"Fixation",50,5,"reward",4,1.38369509999757,"post_reward"
1444.6257279,0.5,"IA6LI11","2022_Jan_05_1046","MainTask",134,"Money",50,5,"reward",4,1.38369509999757,"post_reward"
1445.12612999999,1.38369509999757,"IA6LI11","2022_Jan_05_1046","MainTask",134,"Choice",50,5,"reward",4,1.38369509999757,"post_reward"
1446.50982509999,0,"IA6LI11","2022_Jan_05_1046","MainTask",134,"Response",50,5,"reward",4,1.38369509999757,"post_reward"
1448.5290696,1,"IA6LI11","2022_Jan_05_1046","MainTask",134,"Feedback",50,5,"reward",4,1.38369509999757,"post_reward"
1449.54734729999,3.29955344374933,"IA6LI11","2022_Jan_05_1046","MainTask",135,"Fixation",10,5,"loss",2,1.0740189999924,"post_reward"
1452.84919759999,0.5,"IA6LI11","2022_Jan_05_1046","MainTask",135,"Money",10,5,"loss",2,1.0740189999924,"post_reward"
1453.3497809,1.0740189999924,"IA6LI11","2022_Jan_05_1046","MainTask",135,"Choice",10,5,"loss",2,1.0740189999924,"post_reward"
1454.42379989999,0,"IA6LI11","2022_Jan_05_1046","MainTask",135,"Response",10,5,"loss",2,1.0740189999924,"post_reward"
1456.4857351,1,"IA6LI11","2022_Jan_05_1046","MainTask",135,"Feedback",10,5,"loss",2,1.0740189999924,"post_reward"
1457.51997919999,4.22404242713342,"IA6LI11","2022_Jan_05_1046","MainTask",136,"Fixation",50,5,"loss",2,2.91964809999627,"post_loss"
1461.7399381,0.5,"IA6LI11","2022_Jan_05_1046","MainTask",136,"Money",50,5,"loss",2,2.91964809999627,"post_loss"
1462.24036149999,2.91964809999627,"IA6LI11","2022_Jan_05_1046","MainTask",136,"Choice",50,5,"loss",2,2.91964809999627,"post_loss"
1465.16000959999,0,"IA6LI11","2022_Jan_05_1046","MainTask",136,"Response",50,5,"loss",2,2.91964809999627,"post_loss"
1467.17781499999,1,"IA6LI11","2022_Jan_05_1046","MainTask",136,"Feedback",50,5,"loss",2,2.91964809999627,"post_loss"
1468.23167889999,4.09107286659805,"IA6LI11","2022_Jan_05_1046","MainTask",137,"Fixation",10,7,"reward",4,1.88960009999573,"post_loss"
1472.31555069999,0.5,"IA6LI11","2022_Jan_05_1046","MainTask",137,"Money",10,7,"reward",4,1.88960009999573,"post_loss"
1472.81599199999,1.88960009999573,"IA6LI11","2022_Jan_05_1046","MainTask",137,"Choice",10,7,"reward",4,1.88960009999573,"post_loss"
1474.70559209998,0,"IA6LI11","2022_Jan_05_1046","MainTask",137,"Response",10,7,"reward",4,1.88960009999573,"post_loss"
1476.76915119999,1,"IA6LI11","2022_Jan_05_1046","MainTask",137,"Feedback",10,7,"reward",4,1.88960009999573,"post_loss"
1477.79897269999,3.56624850101573,"IA6LI11","2022_Jan_05_1046","MainTask",138,"Fixation",50,4,"reward",2,0.792794099994353,"post_reward"
1481.3564011,0.5,"IA6LI11","2022_Jan_05_1046","MainTask",138,"Money",50,4,"reward",2,0.792794099994353,"post_reward"
1481.8568442,0.792794099994353,"IA6LI11","2022_Jan_05_1046","MainTask",138,"Choice",50,4,"reward",2,0.792794099994353,"post_reward"
1482.64963829999,0,"IA6LI11","2022_Jan_05_1046","MainTask",138,"Response",50,4,"reward",2,0.792794099994353,"post_reward"
1484.67584849999,1,"IA6LI11","2022_Jan_05_1046","MainTask",138,"Feedback",50,4,"reward",2,0.792794099994353,"post_reward"
1485.7128331,2.55832852243032,"IA6LI11","2022_Jan_05_1046","MainTask",139,"Fixation",10,6,"loss",4,0.957916300001671,"post_reward"
1488.26229319999,0.5,"IA6LI11","2022_Jan_05_1046","MainTask",139,"Money",10,6,"loss",4,0.957916300001671,"post_reward"
1488.76258359999,0.957916300001671,"IA6LI11","2022_Jan_05_1046","MainTask",139,"Choice",10,6,"loss",4,0.957916300001671,"post_reward"
1489.7204999,0,"IA6LI11","2022_Jan_05_1046","MainTask",139,"Response",10,6,"loss",4,0.957916300001671,"post_reward"
1491.7816623,1,"IA6LI11","2022_Jan_05_1046","MainTask",139,"Feedback",10,6,"loss",4,0.957916300001671,"post_reward"
1492.81077169999,3.60243875781247,"IA6LI11","2022_Jan_05_1046","MainTask",140,"Fixation",0,2,"loss",2,0.447475599998143,"post_loss"
1496.40204789999,0.5,"IA6LI11","2022_Jan_05_1046","MainTask",140,"Money",0,2,"loss",2,0.447475599998143,"post_loss"
1496.902475,0.447475599998143,"IA6LI11","2022_Jan_05_1046","MainTask",140,"Choice",0,2,"loss",2,0.447475599998143,"post_loss"
1497.34995059999,0,"IA6LI11","2022_Jan_05_1046","MainTask",140,"Response",0,2,"loss",2,0.447475599998143,"post_loss"
1499.37148429999,1,"IA6LI11","2022_Jan_05_1046","MainTask",140,"Feedback",0,2,"loss",2,0.447475599998143,"post_loss"
1500.3750785,3.47677328276971,"IA6LI11","2022_Jan_05_1046","MainTask",141,"Fixation",0,4,"loss",2,0.727598999990732,"post_loss"
1503.84160259999,0.5,"IA6LI11","2022_Jan_05_1046","MainTask",141,"Money",0,4,"loss",2,0.727598999990732,"post_loss"
1504.34202689999,0.727598999990732,"IA6LI11","2022_Jan_05_1046","MainTask",141,"Choice",0,4,"loss",2,0.727598999990732,"post_loss"
1505.06962589998,0,"IA6LI11","2022_Jan_05_1046","MainTask",141,"Response",0,4,"loss",2,0.727598999990732,"post_loss"
1507.09431429999,1,"IA6LI11","2022_Jan_05_1046","MainTask",141,"Feedback",0,4,"loss",2,0.727598999990732,"post_loss"
1508.10674249999,4.19709081634217,"IA6LI11","2022_Jan_05_1046","MainTask",142,"Fixation",50,4,"loss",4,1.56259950000094,"post_loss"
1512.29881529999,0.5,"IA6LI11","2022_Jan_05_1046","MainTask",142,"Money",50,4,"loss",4,1.56259950000094,"post_loss"
1512.7990263,1.56259950000094,"IA6LI11","2022_Jan_05_1046","MainTask",142,"Choice",50,4,"loss",4,1.56259950000094,"post_loss"
1514.3616258,0,"IA6LI11","2022_Jan_05_1046","MainTask",142,"Response",50,4,"loss",4,1.56259950000094,"post_loss"
1516.38541659999,1,"IA6LI11","2022_Jan_05_1046","MainTask",142,"Feedback",50,4,"loss",4,1.56259950000094,"post_loss"
1517.41595699999,3.65112754962304,"IA6LI11","2022_Jan_05_1046","MainTask",143,"Fixation",0,4,"reward",2,0.287179899998591,"post_loss"
1521.05590189999,0.5,"IA6LI11","2022_Jan_05_1046","MainTask",143,"Money",0,4,"reward",2,0.287179899998591,"post_loss"
1521.55639439999,0.287179899998591,"IA6LI11","2022_Jan_05_1046","MainTask",143,"Choice",0,4,"reward",2,0.287179899998591,"post_loss"
1521.84357429999,0,"IA6LI11","2022_Jan_05_1046","MainTask",143,"Response",0,4,"reward",2,0.287179899998591,"post_loss"
1523.9084531,1,"IA6LI11","2022_Jan_05_1046","MainTask",143,"Feedback",0,4,"reward",2,0.287179899998591,"post_loss"
1524.8945352,3.31450311768226,"IA6LI11","2022_Jan_05_1046","MainTask",144,"Fixation",50,5,"loss",2,1.00311269999656,"post_reward"
1528.19536069999,0.5,"IA6LI11","2022_Jan_05_1046","MainTask",144,"Money",50,5,"loss",2,1.00311269999656,"post_reward"
1528.6956521,1.00311269999656,"IA6LI11","2022_Jan_05_1046","MainTask",144,"Choice",50,5,"loss",2,1.00311269999656,"post_reward"
1529.69876479999,0,"IA6LI11","2022_Jan_05_1046","MainTask",144,"Response",50,5,"loss",2,1.00311269999656,"post_reward"
1531.74816609999,1,"IA6LI11","2022_Jan_05_1046","MainTask",144,"Feedback",50,5,"loss",2,1.00311269999656,"post_reward"
1532.7993366,3.59721136857272,"IA6LI11","2022_Jan_05_1046","MainTask",145,"Fixation",0,5,"reward",2,0.36392249999335,"post_loss"
1536.38549819999,0.5,"IA6LI11","2022_Jan_05_1046","MainTask",145,"Money",0,5,"reward",2,0.36392249999335,"post_loss"
1536.88592089999,0.36392249999335,"IA6LI11","2022_Jan_05_1046","MainTask",145,"Choice",0,5,"reward",2,0.36392249999335,"post_loss"
1537.24984339999,0,"IA6LI11","2022_Jan_05_1046","MainTask",145,"Response",0,5,"reward",2,0.36392249999335,"post_loss"
1539.3043891,1,"IA6LI11","2022_Jan_05_1046","MainTask",145,"Feedback",0,5,"reward",2,0.36392249999335,"post_loss"
1540.29610699999,3.56955385710785,"IA6LI11","2022_Jan_05_1046","MainTask",146,"Fixation",0,6,"loss",2,0.290567199990619,"post_reward"
1543.8416857,0.5,"IA6LI11","2022_Jan_05_1046","MainTask",146,"Money",0,6,"loss",2,0.290567199990619,"post_reward"
1544.34199609999,0.290567199990619,"IA6LI11","2022_Jan_05_1046","MainTask",146,"Choice",0,6,"loss",2,0.290567199990619,"post_reward"
1544.63256329998,0,"IA6LI11","2022_Jan_05_1046","MainTask",146,"Response",0,6,"loss",2,0.290567199990619,"post_reward"
1546.67755369999,1,"IA6LI11","2022_Jan_05_1046","MainTask",146,"Feedback",0,6,"loss",2,0.290567199990619,"post_reward"
1547.68743019999,3.36249225070693,"IA6LI11","2022_Jan_05_1046","MainTask",147,"Fixation",10,4,"loss",2,1.25116759999946,"post_loss"
1551.03140509999,0.5,"IA6LI11","2022_Jan_05_1046","MainTask",147,"Money",10,4,"loss",2,1.25116759999946,"post_loss"
1551.53164239999,1.25116759999946,"IA6LI11","2022_Jan_05_1046","MainTask",147,"Choice",10,4,"loss",2,1.25116759999946,"post_loss"
1552.78280999999,0,"IA6LI11","2022_Jan_05_1046","MainTask",147,"Response",10,4,"loss",2,1.25116759999946,"post_loss"
1554.80080529999,1,"IA6LI11","2022_Jan_05_1046","MainTask",147,"Feedback",10,4,"loss",2,1.25116759999946,"post_loss"
1555.8650107,4.02382389681791,"IA6LI11","2022_Jan_05_1046","MainTask",148,"Fixation",10,2,"loss",2,0.651821299994481,"post_loss"
1559.88823669999,0.5,"IA6LI11","2022_Jan_05_1046","MainTask",148,"Money",10,2,"loss",2,0.651821299994481,"post_loss"
1560.38880229999,0.651821299994481,"IA6LI11","2022_Jan_05_1046","MainTask",148,"Choice",10,2,"loss",2,0.651821299994481,"post_loss"
1561.04062359998,0,"IA6LI11","2022_Jan_05_1046","MainTask",148,"Response",10,2,"loss",2,0.651821299994481,"post_loss"
1563.05768309999,1,"IA6LI11","2022_Jan_05_1046","MainTask",148,"Feedback",10,2,"loss",2,0.651821299994481,"post_loss"
1564.0866345,3.38324552772995,"IA6LI11","2022_Jan_05_1046","MainTask",149,"Fixation",0,4,"loss",2,0.514301700008218,"post_loss"
1567.46124369999,0.5,"IA6LI11","2022_Jan_05_1046","MainTask",149,"Money",0,4,"loss",2,0.514301700008218,"post_loss"
1567.961608,0.514301700008218,"IA6LI11","2022_Jan_05_1046","MainTask",149,"Choice",0,4,"loss",2,0.514301700008218,"post_loss"
1568.47590970001,0,"IA6LI11","2022_Jan_05_1046","MainTask",149,"Response",0,4,"loss",2,0.514301700008218,"post_loss"
1570.49697879999,1,"IA6LI11","2022_Jan_05_1046","MainTask",149,"Feedback",0,4,"loss",2,0.514301700008218,"post_loss"
1571.5008504,3.71402070368279,"IA6LI11","2022_Jan_05_1046","MainTask",150,"Fixation",10,5,"loss",2,1.02371900000435,"post_loss"
1575.2176161,0.5,"IA6LI11","2022_Jan_05_1046","MainTask",150,"Money",10,5,"loss",2,1.02371900000435,"post_loss"
1575.718075,1.02371900000435,"IA6LI11","2022_Jan_05_1046","MainTask",150,"Choice",10,5,"loss",2,1.02371900000435,"post_loss"
1576.741794,0,"IA6LI11","2022_Jan_05_1046","MainTask",150,"Response",10,5,"loss",2,1.02371900000435,"post_loss"
1578.77058079999,1,"IA6LI11","2022_Jan_05_1046","MainTask",150,"Feedback",10,5,"loss",2,1.02371900000435,"post_loss"
1579.8088211,2.78911484706119,"IA6LI11","2022_Jan_05_1046","MainTask",151,"Fixation",0,3,"reward",2,0.425787500003935,"post_loss"
1582.5905834,0.5,"IA6LI11","2022_Jan_05_1046","MainTask",151,"Money",0,3,"reward",2,0.425787500003935,"post_loss"
1583.090883,0.425787500003935,"IA6LI11","2022_Jan_05_1046","MainTask",151,"Choice",0,3,"reward",2,0.425787500003935,"post_loss"
1583.5166705,0,"IA6LI11","2022_Jan_05_1046","MainTask",151,"Response",0,3,"reward",2,0.425787500003935,"post_loss"
1585.5756461,1,"IA6LI11","2022_Jan_05_1046","MainTask",151,"Feedback",0,3,"reward",2,0.425787500003935,"post_loss"
1586.56279499999,2.70760290667152,"IA6LI11","2022_Jan_05_1046","MainTask",152,"Fixation",10,4,"loss",2,0.713989800002309,"post_reward"
1589.2629248,0.5,"IA6LI11","2022_Jan_05_1046","MainTask",152,"Money",10,4,"loss",2,0.713989800002309,"post_reward"
