"Onset","Duration","Participant","date_time","Target_Mapping","Order_Instruction","Running","Trial","Event","Type","InstructionCondition","Accuracy","RT","Post_Trial","TaskPerf"
116.650263881336,0.5,"AU06EL20","2022_Mar_01_0938","circle","relaxed_first","Practice",0,"Fixation","Go","relaxed",0,NA,NA,90.4761904761905
117.133981475215,0.1,"AU06EL20","2022_Mar_01_0938","circle","relaxed_first","Practice",0,"Target","Go","relaxed",0,NA,NA,90.4761904761905
117.234065896238,1.5,"AU06EL20","2022_Mar_01_0938","circle","relaxed_first","Practice",0,"ITI","Go","relaxed",0,NA,NA,90.4761904761905
118.701994658197,0.5,"AU06EL20","2022_Mar_01_0938","circle","relaxed_first","Practice",1,"Fixation","Go","relaxed",1,0.640755868633278,"post_error_inh",90.4761904761905
119.185742589969,0.1,"AU06EL20","2022_Mar_01_0938","circle","relaxed_first","Practice",1,"Target","Go","relaxed",1,0.640755868633278,"post_error_inh",90.4761904761905
119.285830219809,1.5,"AU06EL20","2022_Mar_01_0938","circle","relaxed_first","Practice",1,"ITI","Go","relaxed",1,0.640755868633278,"post_error_inh",90.4761904761905
119.826498458602,0,"AU06EL20","2022_Mar_01_0938","circle","relaxed_first","Practice",1,"Response","Go","relaxed",1,0.640755868633278,"post_error_inh",90.4761904761905
120.820483971091,0.5,"AU06EL20","2022_Mar_01_0938","circle","relaxed_first","Practice",2,"Fixation","NoGo","relaxed",1,NA,"post_correct_resp",90.4761904761905
121.304228402336,0.1,"AU06EL20","2022_Mar_01_0938","circle","relaxed_first","Practice",2,"Target","NoGo","relaxed",1,NA,"post_correct_resp",90.4761904761905
121.404314281914,1.5,"AU06EL20","2022_Mar_01_0938","circle","relaxed_first","Practice",2,"ITI","NoGo","relaxed",1,NA,"post_correct_resp",90.4761904761905
122.905605392676,0.5,"AU06EL20","2022_Mar_01_0938","circle","relaxed_first","Practice",3,"Fixation","Go","relaxed",1,0.269101204879917,"post_correct_inh",90.4761904761905
123.389352741029,0.1,"AU06EL20","2022_Mar_01_0938","circle","relaxed_first","Practice",3,"Target","Go","relaxed",1,0.269101204879917,"post_correct_inh",90.4761904761905
123.489438037184,1.16910120487992,"AU06EL20","2022_Mar_01_0938","circle","relaxed_first","Practice",3,"ITI","Go","relaxed",1,0.269101204879917,"post_correct_inh",90.4761904761905
123.658453945909,0,"AU06EL20","2022_Mar_01_0938","circle","relaxed_first","Practice",3,"Response","Go","relaxed",1,0.269101204879917,"post_correct_inh",90.4761904761905
124.690851024603,0.5,"AU06EL20","2022_Mar_01_0938","circle","relaxed_first","Practice",4,"Fixation","Go","relaxed",1,0.272833640990939,"post_correct_resp",90.4761904761905
125.174609749665,0.1,"AU06EL20","2022_Mar_01_0938","circle","relaxed_first","Practice",4,"Target","Go","relaxed",1,0.272833640990939,"post_correct_resp",90.4761904761905
125.274692712137,1.17283364099094,"AU06EL20","2022_Mar_01_0938","circle","relaxed_first","Practice",4,"ITI","Go","relaxed",1,0.272833640990939,"post_correct_resp",90.4761904761905
125.447443390656,0,"AU06EL20","2022_Mar_01_0938","circle","relaxed_first","Practice",4,"Response","Go","relaxed",1,0.272833640990939,"post_correct_resp",90.4761904761905
126.475743978512,0.5,"AU06EL20","2022_Mar_01_0938","circle","relaxed_first","Practice",5,"Fixation","Go","relaxed",1,0.378938092026146,"post_correct_resp",90.4761904761905
126.959465072916,0.1,"AU06EL20","2022_Mar_01_0938","circle","relaxed_first","Practice",5,"Target","Go","relaxed",1,0.378938092026146,"post_correct_resp",90.4761904761905
127.059550369071,1.27893809202615,"AU06EL20","2022_Mar_01_0938","circle","relaxed_first","Practice",5,"ITI","Go","relaxed",1,0.378938092026146,"post_correct_resp",90.4761904761905
127.338403164942,0,"AU06EL20","2022_Mar_01_0938","circle","relaxed_first","Practice",5,"Response","Go","relaxed",1,0.378938092026146,"post_correct_resp",90.4761904761905
128.360670304102,0.5,"AU06EL20","2022_Mar_01_0938","circle","relaxed_first","Practice",6,"Fixation","NoGo","relaxed",1,NA,"post_correct_resp",90.4761904761905
128.844418527586,0.1,"AU06EL20","2022_Mar_01_0938","circle","relaxed_first","Practice",6,"Target","NoGo","relaxed",1,NA,"post_correct_resp",90.4761904761905
128.944506157426,1.5,"AU06EL20","2022_Mar_01_0938","circle","relaxed_first","Practice",6,"ITI","NoGo","relaxed",1,NA,"post_correct_resp",90.4761904761905
130.445794351084,0.5,"AU06EL20","2022_Mar_01_0938","circle","relaxed_first","Practice",7,"Fixation","NoGo","relaxed",1,NA,"post_correct_inh",90.4761904761905
130.929542282856,0.1,"AU06EL20","2022_Mar_01_0938","circle","relaxed_first","Practice",7,"Target","NoGo","relaxed",1,NA,"post_correct_inh",90.4761904761905
131.029626703881,1.5,"AU06EL20","2022_Mar_01_0938","circle","relaxed_first","Practice",7,"ITI","NoGo","relaxed",1,NA,"post_correct_inh",90.4761904761905
132.530916939513,0.5,"AU06EL20","2022_Mar_01_0938","circle","relaxed_first","Practice",8,"Fixation","Go","relaxed",1,0.203669368294868,"post_correct_inh",90.4761904761905
133.014665454706,0.1,"AU06EL20","2022_Mar_01_0938","circle","relaxed_first","Practice",8,"Target","Go","relaxed",1,0.203669368294868,"post_correct_inh",90.4761904761905
133.114750167442,1.10366936829487,"AU06EL20","2022_Mar_01_0938","circle","relaxed_first","Practice",8,"ITI","Go","relaxed",1,0.203669368294868,"post_correct_inh",90.4761904761905
133.218334823001,0,"AU06EL20","2022_Mar_01_0938","circle","relaxed_first","Practice",8,"Response","Go","relaxed",1,0.203669368294868,"post_correct_inh",90.4761904761905
134.249060400412,0.5,"AU06EL20","2022_Mar_01_0938","circle","relaxed_first","Practice",9,"Fixation","Go","relaxed",1,0.215509606610794,"post_correct_resp",90.4761904761905
134.732808332186,0.1,"AU06EL20","2022_Mar_01_0938","circle","relaxed_first","Practice",9,"Target","Go","relaxed",1,0.215509606610794,"post_correct_resp",90.4761904761905
134.832893628341,1.11550960661079,"AU06EL20","2022_Mar_01_0938","circle","relaxed_first","Practice",9,"ITI","Go","relaxed",1,0.215509606610794,"post_correct_resp",90.4761904761905
134.948317938797,0,"AU06EL20","2022_Mar_01_0938","circle","relaxed_first","Practice",9,"Response","Go","relaxed",1,0.215509606610794,"post_correct_resp",90.4761904761905
135.967222239076,0.5,"AU06EL20","2022_Mar_01_0938","circle","relaxed_first","Practice",10,"Fixation","NoGo","relaxed",1,NA,"post_correct_resp",90.4761904761905
136.450949167691,0.1,"AU06EL20","2022_Mar_01_0938","circle","relaxed_first","Practice",10,"Target","NoGo","relaxed",1,NA,"post_correct_resp",90.4761904761905
136.55103563069,1.5,"AU06EL20","2022_Mar_01_0938","circle","relaxed_first","Practice",10,"ITI","NoGo","relaxed",1,NA,"post_correct_resp",90.4761904761905
138.052349494874,0.5,"AU06EL20","2022_Mar_01_0938","circle","relaxed_first","Practice",11,"Fixation","Go","relaxed",1,0.21118908209246,"post_correct_inh",90.4761904761905
138.536073798094,0.1,"AU06EL20","2022_Mar_01_0938","circle","relaxed_first","Practice",11,"Target","Go","relaxed",1,0.21118908209246,"post_correct_inh",90.4761904761905
138.636160844513,1.11118908209246,"AU06EL20","2022_Mar_01_0938","circle","relaxed_first","Practice",11,"ITI","Go","relaxed",1,0.21118908209246,"post_correct_inh",90.4761904761905
138.747262880186,0,"AU06EL20","2022_Mar_01_0938","circle","relaxed_first","Practice",11,"Response","Go","relaxed",1,0.21118908209246,"post_correct_inh",90.4761904761905
139.770470785774,0.5,"AU06EL20","2022_Mar_01_0938","circle","relaxed_first","Practice",12,"Fixation","Go","relaxed",1,0.291025584179806,"post_correct_resp",90.4761904761905
140.254216383863,0.1,"AU06EL20","2022_Mar_01_0938","circle","relaxed_first","Practice",12,"Target","Go","relaxed",1,0.291025584179806,"post_correct_resp",90.4761904761905
140.354305763965,1.19102558417981,"AU06EL20","2022_Mar_01_0938","circle","relaxed_first","Practice",12,"ITI","Go","relaxed",1,0.291025584179806,"post_correct_resp",90.4761904761905
140.545241968042,0,"AU06EL20","2022_Mar_01_0938","circle","relaxed_first","Practice",12,"Response","Go","relaxed",1,0.291025584179806,"post_correct_resp",90.4761904761905
141.572015451322,0.5,"AU06EL20","2022_Mar_01_0938","circle","relaxed_first","Practice",13,"Fixation","Go","relaxed",1,0.219449448899468,"post_correct_resp",90.4761904761905
142.055762799673,0.1,"AU06EL20","2022_Mar_01_0938","circle","relaxed_first","Practice",13,"Target","Go","relaxed",1,0.219449448899468,"post_correct_resp",90.4761904761905
142.155849554383,1.11944944889947,"AU06EL20","2022_Mar_01_0938","circle","relaxed_first","Practice",13,"ITI","Go","relaxed",1,0.219449448899468,"post_correct_resp",90.4761904761905
142.275212248573,0,"AU06EL20","2022_Mar_01_0938","circle","relaxed_first","Practice",13,"Response","Go","relaxed",1,0.219449448899468,"post_correct_resp",90.4761904761905
143.306838628074,0.5,"AU06EL20","2022_Mar_01_0938","circle","relaxed_first","Practice",14,"Fixation","NoGo","relaxed",1,NA,"post_correct_resp",90.4761904761905
143.790607563004,0.1,"AU06EL20","2022_Mar_01_0938","circle","relaxed_first","Practice",14,"Target","NoGo","relaxed",1,NA,"post_correct_resp",90.4761904761905
143.890676815081,1.5,"AU06EL20","2022_Mar_01_0938","circle","relaxed_first","Practice",14,"ITI","NoGo","relaxed",1,NA,"post_correct_resp",90.4761904761905
155.634097867713,0.5,"AU06EL20","2022_Mar_01_0938","circle","relaxed_first","MainTask",0,"Fixation","NoGo","relaxed",1,NA,"post_correct_inh",90.4761904761905
156.101159957714,0.1,"AU06EL20","2022_Mar_01_0938","circle","relaxed_first","MainTask",0,"Target","NoGo","relaxed",1,NA,"post_correct_inh",90.4761904761905
156.2012627565,1.5,"AU06EL20","2022_Mar_01_0938","circle","relaxed_first","MainTask",0,"ITI","NoGo","relaxed",1,NA,"post_correct_inh",90.4761904761905
157.719212288246,0.5,"AU06EL20","2022_Mar_01_0938","circle","relaxed_first","MainTask",1,"Fixation","Go","relaxed",1,0.237050678286323,"post_correct_inh",90.4761904761905
158.202968096204,0.1,"AU06EL20","2022_Mar_01_0938","circle","relaxed_first","MainTask",1,"Target","Go","relaxed",1,0.237050678286323,"post_correct_inh",90.4761904761905
158.303050475255,1.13705067828632,"AU06EL20","2022_Mar_01_0938","circle","relaxed_first","MainTask",1,"ITI","Go","relaxed",1,0.237050678286323,"post_correct_inh",90.4761904761905
158.44001877449,0,"AU06EL20","2022_Mar_01_0938","circle","relaxed_first","MainTask",1,"Response","Go","relaxed",1,0.237050678286323,"post_correct_inh",90.4761904761905
159.487401022619,0.5,"AU06EL20","2022_Mar_01_0938","circle","relaxed_first","MainTask",2,"Fixation","Go","relaxed",1,0.265831129947401,"post_correct_resp",90.4761904761905
159.971151288077,0.1,"AU06EL20","2022_Mar_01_0938","circle","relaxed_first","MainTask",2,"Target","Go","relaxed",1,0.265831129947401,"post_correct_resp",90.4761904761905
160.071238334496,1.1658311299474,"AU06EL20","2022_Mar_01_0938","circle","relaxed_first","MainTask",2,"ITI","Go","relaxed",1,0.265831129947401,"post_correct_resp",90.4761904761905
160.236982418024,0,"AU06EL20","2022_Mar_01_0938","circle","relaxed_first","MainTask",2,"Response","Go","relaxed",1,0.265831129947401,"post_correct_resp",90.4761904761905
161.272269181132,0.5,"AU06EL20","2022_Mar_01_0938","circle","relaxed_first","MainTask",3,"Fixation","Go","relaxed",1,0.291944472319301,"post_correct_resp",90.4761904761905
161.756018279748,0.1,"AU06EL20","2022_Mar_01_0938","circle","relaxed_first","MainTask",3,"Target","Go","relaxed",1,0.291944472319301,"post_correct_resp",90.4761904761905
161.856103284194,1.1919444723193,"AU06EL20","2022_Mar_01_0938","circle","relaxed_first","MainTask",3,"ITI","Go","relaxed",1,0.291944472319301,"post_correct_resp",90.4761904761905
162.047962752067,0,"AU06EL20","2022_Mar_01_0938","circle","relaxed_first","MainTask",3,"Response","Go","relaxed",1,0.291944472319301,"post_correct_resp",90.4761904761905
163.090497063058,0.5,"AU06EL20","2022_Mar_01_0938","circle","relaxed_first","MainTask",4,"Fixation","Go","relaxed",1,0.209701650148418,"post_correct_resp",90.4761904761905
163.574245869962,0.1,"AU06EL20","2022_Mar_01_0938","circle","relaxed_first","MainTask",4,"Target","Go","relaxed",1,0.209701650148418,"post_correct_resp",90.4761904761905
163.674329999276,1.10970165014842,"AU06EL20","2022_Mar_01_0938","circle","relaxed_first","MainTask",4,"ITI","Go","relaxed",1,0.209701650148418,"post_correct_resp",90.4761904761905
163.783947520111,0,"AU06EL20","2022_Mar_01_0938","circle","relaxed_first","MainTask",4,"Response","Go","relaxed",1,0.209701650148418,"post_correct_resp",90.4761904761905
164.825321990073,0.5,"AU06EL20","2022_Mar_01_0938","circle","relaxed_first","MainTask",5,"Fixation","NoGo","relaxed",0,0.204854879850245,"post_correct_resp",90.4761904761905
165.309068755003,0.1,"AU06EL20","2022_Mar_01_0938","circle","relaxed_first","MainTask",5,"Target","NoGo","relaxed",0,0.204854879850245,"post_correct_resp",90.4761904761905
165.409156676553,1.10485487985025,"AU06EL20","2022_Mar_01_0938","circle","relaxed_first","MainTask",5,"ITI","NoGo","relaxed",0,0.204854879850245,"post_correct_resp",90.4761904761905
165.513923634853,0,"AU06EL20","2022_Mar_01_0938","circle","relaxed_first","MainTask",5,"Response","NoGo","relaxed",0,0.204854879850245,"post_correct_resp",90.4761904761905
166.56014370827,0.5,"AU06EL20","2022_Mar_01_0938","circle","relaxed_first","MainTask",6,"Fixation","Go","relaxed",1,0.190003313831767,"post_error_resp",90.4761904761905
167.043891056621,0.1,"AU06EL20","2022_Mar_01_0938","circle","relaxed_first","MainTask",6,"Target","Go","relaxed",1,0.190003313831767,"post_error_resp",90.4761904761905
167.14397810304,1.09000331383177,"AU06EL20","2022_Mar_01_0938","circle","relaxed_first","MainTask",6,"ITI","Go","relaxed",1,0.190003313831767,"post_error_resp",90.4761904761905
167.233894370453,0,"AU06EL20","2022_Mar_01_0938","circle","relaxed_first","MainTask",6,"Response","Go","relaxed",1,0.190003313831767,"post_error_resp",90.4761904761905
168.278287752591,0.5,"AU06EL20","2022_Mar_01_0938","circle","relaxed_first","MainTask",7,"Fixation","Go","relaxed",1,0.252834551127307,"post_correct_resp",90.4761904761905
168.762035100943,0.1,"AU06EL20","2022_Mar_01_0938","circle","relaxed_first","MainTask",7,"Target","Go","relaxed",1,0.252834551127307,"post_correct_resp",90.4761904761905
168.862121855653,1.15283455112731,"AU06EL20","2022_Mar_01_0938","circle","relaxed_first","MainTask",7,"ITI","Go","relaxed",1,0.252834551127307,"post_correct_resp",90.4761904761905
169.01486965207,0,"AU06EL20","2022_Mar_01_0938","circle","relaxed_first","MainTask",7,"Response","Go","relaxed",1,0.252834551127307,"post_correct_resp",90.4761904761905
170.063151827158,0.5,"AU06EL20","2022_Mar_01_0938","circle","relaxed_first","MainTask",8,"Fixation","Go","relaxed",1,0.412939286872643,"post_correct_resp",90.4761904761905
170.546900925772,0.1,"AU06EL20","2022_Mar_01_0938","circle","relaxed_first","MainTask",8,"Target","Go","relaxed",1,0.412939286872643,"post_correct_resp",90.4761904761905
170.647011892454,1.31293928687264,"AU06EL20","2022_Mar_01_0938","circle","relaxed_first","MainTask",8,"ITI","Go","relaxed",1,0.412939286872643,"post_correct_resp",90.4761904761905
170.959840212645,0,"AU06EL20","2022_Mar_01_0938","circle","relaxed_first","MainTask",8,"Response","Go","relaxed",1,0.412939286872643,"post_correct_resp",90.4761904761905
171.998146179641,0.5,"AU06EL20","2022_Mar_01_0938","circle","relaxed_first","MainTask",9,"Fixation","Go","relaxed",1,0.331914356125708,"post_correct_resp",90.4761904761905
172.481894403125,0.1,"AU06EL20","2022_Mar_01_0938","circle","relaxed_first","MainTask",9,"Target","Go","relaxed",1,0.331914356125708,"post_correct_resp",90.4761904761905
172.581983783228,1.23191435612571,"AU06EL20","2022_Mar_01_0938","circle","relaxed_first","MainTask",9,"ITI","Go","relaxed",1,0.331914356125708,"post_correct_resp",90.4761904761905
172.813808759251,0,"AU06EL20","2022_Mar_01_0938","circle","relaxed_first","MainTask",9,"Response","Go","relaxed",1,0.331914356125708,"post_correct_resp",90.4761904761905
173.849726492215,0.5,"AU06EL20","2022_Mar_01_0938","circle","relaxed_first","MainTask",10,"Fixation","Go","relaxed",1,0.291312627330626,"post_correct_resp",90.4761904761905
174.333484633857,0.1,"AU06EL20","2022_Mar_01_0938","circle","relaxed_first","MainTask",10,"Target","Go","relaxed",1,0.291312627330626,"post_correct_resp",90.4761904761905
174.433571680276,1.19131262733063,"AU06EL20","2022_Mar_01_0938","circle","relaxed_first","MainTask",10,"ITI","Go","relaxed",1,0.291312627330626,"post_correct_resp",90.4761904761905
174.624797261187,0,"AU06EL20","2022_Mar_01_0938","circle","relaxed_first","MainTask",10,"Response","Go","relaxed",1,0.291312627330626,"post_correct_resp",90.4761904761905
175.667963708876,0.5,"AU06EL20","2022_Mar_01_0938","circle","relaxed_first","MainTask",11,"Fixation","Go","relaxed",0,NA,"post_correct_resp",90.4761904761905
176.151712224071,0.1,"AU06EL20","2022_Mar_01_0938","circle","relaxed_first","MainTask",11,"Target","Go","relaxed",0,NA,"post_correct_resp",90.4761904761905
176.251797811938,1.5,"AU06EL20","2022_Mar_01_0938","circle","relaxed_first","MainTask",11,"ITI","Go","relaxed",0,NA,"post_correct_resp",90.4761904761905
177.753091256385,0.5,"AU06EL20","2022_Mar_01_0938","circle","relaxed_first","MainTask",12,"Fixation","NoGo","relaxed",1,NA,"post_error_inh",90.4761904761905
178.236836854474,0.1,"AU06EL20","2022_Mar_01_0938","circle","relaxed_first","MainTask",12,"Target","NoGo","relaxed",1,NA,"post_error_inh",90.4761904761905
178.336923900893,1.5,"AU06EL20","2022_Mar_01_0938","circle","relaxed_first","MainTask",12,"ITI","NoGo","relaxed",1,NA,"post_error_inh",90.4761904761905
179.838213553103,0.5,"AU06EL20","2022_Mar_01_0938","circle","relaxed_first","MainTask",13,"Fixation","Go","relaxed",1,0.23775195037706,"post_correct_inh",90.4761904761905
180.321960609745,0.1,"AU06EL20","2022_Mar_01_0938","circle","relaxed_first","MainTask",13,"Target","Go","relaxed",1,0.23775195037706,"post_correct_inh",90.4761904761905
180.422046197611,1.13775195037706,"AU06EL20","2022_Mar_01_0938","circle","relaxed_first","MainTask",13,"ITI","Go","relaxed",1,0.23775195037706,"post_correct_inh",90.4761904761905
180.559712560122,0,"AU06EL20","2022_Mar_01_0938","circle","relaxed_first","MainTask",13,"Response","Go","relaxed",1,0.23775195037706,"post_correct_inh",90.4761904761905
181.60639849524,0.5,"AU06EL20","2022_Mar_01_0938","circle","relaxed_first","MainTask",14,"Fixation","Go","relaxed",1,0.275543340016156,"post_correct_resp",90.4761904761905
182.09015051096,0.1,"AU06EL20","2022_Mar_01_0938","circle","relaxed_first","MainTask",14,"Target","Go","relaxed",1,0.275543340016156,"post_correct_resp",90.4761904761905
182.190236973958,1.17554334001616,"AU06EL20","2022_Mar_01_0938","circle","relaxed_first","MainTask",14,"ITI","Go","relaxed",1,0.275543340016156,"post_correct_resp",90.4761904761905
182.365693850976,0,"AU06EL20","2022_Mar_01_0938","circle","relaxed_first","MainTask",14,"Response","Go","relaxed",1,0.275543340016156,"post_correct_resp",90.4761904761905
183.407947536445,0.5,"AU06EL20","2022_Mar_01_0938","circle","relaxed_first","MainTask",15,"Fixation","NoGo","relaxed",1,NA,"post_correct_resp",90.4761904761905
183.891704219533,0.1,"AU06EL20","2022_Mar_01_0938","circle","relaxed_first","MainTask",15,"Target","NoGo","relaxed",1,NA,"post_correct_resp",90.4761904761905
183.991781347795,1.5,"AU06EL20","2022_Mar_01_0938","circle","relaxed_first","MainTask",15,"ITI","NoGo","relaxed",1,NA,"post_correct_resp",90.4761904761905
185.493070416585,0.5,"AU06EL20","2022_Mar_01_0938","circle","relaxed_first","MainTask",16,"Fixation","Go","relaxed",1,0.313829178987362,"post_break",90.4761904761905
185.97681980691,0.1,"AU06EL20","2022_Mar_01_0938","circle","relaxed_first","MainTask",16,"Target","Go","relaxed",1,0.313829178987362,"post_break",90.4761904761905
186.07690685333,1.21382917898736,"AU06EL20","2022_Mar_01_0938","circle","relaxed_first","MainTask",16,"ITI","Go","relaxed",1,0.313829178987362,"post_break",90.4761904761905
186.290648985898,0,"AU06EL20","2022_Mar_01_0938","circle","relaxed_first","MainTask",16,"Response","Go","relaxed",1,0.313829178987362,"post_break",90.4761904761905
187.327982390019,0.5,"AU06EL20","2022_Mar_01_0938","circle","relaxed_first","MainTask",17,"Fixation","Go","relaxed",1,0.249894109079833,"post_correct_resp",90.4761904761905
187.811730613501,0.1,"AU06EL20","2022_Mar_01_0938","circle","relaxed_first","MainTask",17,"Target","Go","relaxed",1,0.249894109079833,"post_correct_resp",90.4761904761905
187.911812409131,1.14989410907983,"AU06EL20","2022_Mar_01_0938","circle","relaxed_first","MainTask",17,"ITI","Go","relaxed",1,0.249894109079833,"post_correct_resp",90.4761904761905
188.061624722581,0,"AU06EL20","2022_Mar_01_0938","circle","relaxed_first","MainTask",17,"Response","Go","relaxed",1,0.249894109079833,"post_correct_resp",90.4761904761905
189.096168790707,0.5,"AU06EL20","2022_Mar_01_0938","circle","relaxed_first","MainTask",18,"Fixation","NoGo","relaxed",0,0.192691134567212,"post_correct_resp",90.4761904761905
189.579912930243,0.1,"AU06EL20","2022_Mar_01_0938","circle","relaxed_first","MainTask",18,"Target","NoGo","relaxed",0,0.192691134567212,"post_correct_resp",90.4761904761905
189.680012228504,1.09269113456721,"AU06EL20","2022_Mar_01_0938","circle","relaxed_first","MainTask",18,"ITI","NoGo","relaxed",0,0.192691134567212,"post_correct_resp",90.4761904761905
189.77260406481,0,"AU06EL20","2022_Mar_01_0938","circle","relaxed_first","MainTask",18,"Response","NoGo","relaxed",0,0.192691134567212,"post_correct_resp",90.4761904761905
190.81429649924,0.5,"AU06EL20","2022_Mar_01_0938","circle","relaxed_first","MainTask",19,"Fixation","Go","relaxed",0,NA,"post_error_resp",90.4761904761905
191.298071560092,0.1,"AU06EL20","2022_Mar_01_0938","circle","relaxed_first","MainTask",19,"Target","Go","relaxed",0,NA,"post_error_resp",90.4761904761905
191.398140812169,1.5,"AU06EL20","2022_Mar_01_0938","circle","relaxed_first","MainTask",19,"ITI","Go","relaxed",0,NA,"post_error_resp",90.4761904761905
192.899431047801,0.5,"AU06EL20","2022_Mar_01_0938","circle","relaxed_first","MainTask",20,"Fixation","NoGo","relaxed",1,NA,"post_error_inh",90.4761904761905
193.383179854705,0.1,"AU06EL20","2022_Mar_01_0938","circle","relaxed_first","MainTask",20,"Target","NoGo","relaxed",1,NA,"post_error_inh",90.4761904761905
193.48326515086,1.5,"AU06EL20","2022_Mar_01_0938","circle","relaxed_first","MainTask",20,"ITI","NoGo","relaxed",1,NA,"post_error_inh",90.4761904761905
194.984555094783,0.5,"AU06EL20","2022_Mar_01_0938","circle","relaxed_first","MainTask",21,"Fixation","Go","relaxed",1,0.36722562291834,"post_correct_inh",90.4761904761905
195.468310319318,0.1,"AU06EL20","2022_Mar_01_0938","circle","relaxed_first","MainTask",21,"Target","Go","relaxed",1,0.36722562291834,"post_correct_inh",90.4761904761905
195.568388031001,1.26722562291834,"AU06EL20","2022_Mar_01_0938","circle","relaxed_first","MainTask",21,"ITI","Go","relaxed",1,0.36722562291834,"post_correct_inh",90.4761904761905
195.835535942237,0,"AU06EL20","2022_Mar_01_0938","circle","relaxed_first","MainTask",21,"Response","Go","relaxed",1,0.36722562291834,"post_correct_inh",90.4761904761905
196.869505632347,0.5,"AU06EL20","2022_Mar_01_0938","circle","relaxed_first","MainTask",22,"Fixation","NoGo","relaxed",1,NA,"post_correct_resp",90.4761904761905
197.353255314381,0.1,"AU06EL20","2022_Mar_01_0938","circle","relaxed_first","MainTask",22,"Target","NoGo","relaxed",1,NA,"post_correct_resp",90.4761904761905
197.453335651458,1.5,"AU06EL20","2022_Mar_01_0938","circle","relaxed_first","MainTask",22,"ITI","NoGo","relaxed",1,NA,"post_correct_resp",90.4761904761905
198.954629971038,0.5,"AU06EL20","2022_Mar_01_0938","circle","relaxed_first","MainTask",23,"Fixation","Go","relaxed",1,0.297098413795538,"post_correct_inh",90.4761904761905
199.43837702768,0.1,"AU06EL20","2022_Mar_01_0938","circle","relaxed_first","MainTask",23,"Target","Go","relaxed",1,0.297098413795538,"post_correct_inh",90.4761904761905
199.538482743572,1.19709841379554,"AU06EL20","2022_Mar_01_0938","circle","relaxed_first","MainTask",23,"ITI","Go","relaxed",1,0.297098413795538,"post_correct_inh",90.4761904761905
199.735475441476,0,"AU06EL20","2022_Mar_01_0938","circle","relaxed_first","MainTask",23,"Response","Go","relaxed",1,0.297098413795538,"post_correct_inh",90.4761904761905
200.772853477305,0.5,"AU06EL20","2022_Mar_01_0938","circle","relaxed_first","MainTask",24,"Fixation","Go","relaxed",1,0.275845552116152,"post_correct_resp",90.4761904761905
201.256606659868,0.1,"AU06EL20","2022_Mar_01_0938","circle","relaxed_first","MainTask",24,"Target","Go","relaxed",1,0.275845552116152,"post_correct_resp",90.4761904761905
201.356693122865,1.17584555211615,"AU06EL20","2022_Mar_01_0938","circle","relaxed_first","MainTask",24,"ITI","Go","relaxed",1,0.275845552116152,"post_correct_resp",90.4761904761905
201.532452211984,0,"AU06EL20","2022_Mar_01_0938","circle","relaxed_first","MainTask",24,"Response","Go","relaxed",1,0.275845552116152,"post_correct_resp",90.4761904761905
202.574408061011,0.5,"AU06EL20","2022_Mar_01_0938","circle","relaxed_first","MainTask",25,"Fixation","Go","relaxed",1,0.268270121607202,"post_correct_resp",90.4761904761905
203.058153950809,0.1,"AU06EL20","2022_Mar_01_0938","circle","relaxed_first","MainTask",25,"Target","Go","relaxed",1,0.268270121607202,"post_correct_resp",90.4761904761905
203.15824158065,1.1682701216072,"AU06EL20","2022_Mar_01_0938","circle","relaxed_first","MainTask",25,"ITI","Go","relaxed",1,0.268270121607202,"post_correct_resp",90.4761904761905
203.326424072417,0,"AU06EL20","2022_Mar_01_0938","circle","relaxed_first","MainTask",25,"Response","Go","relaxed",1,0.268270121607202,"post_correct_resp",90.4761904761905
204.375953893401,0.5,"AU06EL20","2022_Mar_01_0938","circle","relaxed_first","MainTask",26,"Fixation","Go","relaxed",1,0.249683202375309,"post_correct_resp",90.4761904761905
204.859709701357,0.1,"AU06EL20","2022_Mar_01_0938","circle","relaxed_first","MainTask",26,"Target","Go","relaxed",1,0.249683202375309,"post_correct_resp",90.4761904761905
204.95978712133,1.14968320237531,"AU06EL20","2022_Mar_01_0938","circle","relaxed_first","MainTask",26,"ITI","Go","relaxed",1,0.249683202375309,"post_correct_resp",90.4761904761905
205.109392903732,0,"AU06EL20","2022_Mar_01_0938","circle","relaxed_first","MainTask",26,"Response","Go","relaxed",1,0.249683202375309,"post_correct_resp",90.4761904761905
206.144141752644,0.5,"AU06EL20","2022_Mar_01_0938","circle","relaxed_first","MainTask",27,"Fixation","NoGo","relaxed",1,NA,"post_correct_resp",90.4761904761905
206.627888809284,0.1,"AU06EL20","2022_Mar_01_0938","circle","relaxed_first","MainTask",27,"Target","NoGo","relaxed",1,NA,"post_correct_resp",90.4761904761905
206.727972938597,1.5,"AU06EL20","2022_Mar_01_0938","circle","relaxed_first","MainTask",27,"ITI","NoGo","relaxed",1,NA,"post_correct_resp",90.4761904761905
208.22926288252,0.5,"AU06EL20","2022_Mar_01_0938","circle","relaxed_first","MainTask",28,"Fixation","Go","relaxed",1,0.238348498391133,"post_correct_inh",90.4761904761905
208.713015189949,0.1,"AU06EL20","2022_Mar_01_0938","circle","relaxed_first","MainTask",28,"Target","Go","relaxed",1,0.238348498391133,"post_correct_inh",90.4761904761905
208.813096985579,1.13834849839113,"AU06EL20","2022_Mar_01_0938","circle","relaxed_first","MainTask",28,"ITI","Go","relaxed",1,0.238348498391133,"post_correct_inh",90.4761904761905
208.95136368834,0,"AU06EL20","2022_Mar_01_0938","circle","relaxed_first","MainTask",28,"Response","Go","relaxed",1,0.238348498391133,"post_correct_inh",90.4761904761905
209.997449574919,0.5,"AU06EL20","2022_Mar_01_0938","circle","relaxed_first","MainTask",29,"Fixation","Go","relaxed",1,0.292127083104788,"post_correct_resp",90.4761904761905
210.481195756429,0.1,"AU06EL20","2022_Mar_01_0938","circle","relaxed_first","MainTask",29,"Target","Go","relaxed",1,0.292127083104788,"post_correct_resp",90.4761904761905
210.581281927716,1.19212708310479,"AU06EL20","2022_Mar_01_0938","circle","relaxed_first","MainTask",29,"ITI","Go","relaxed",1,0.292127083104788,"post_correct_resp",90.4761904761905
210.773322839534,0,"AU06EL20","2022_Mar_01_0938","circle","relaxed_first","MainTask",29,"Response","Go","relaxed",1,0.292127083104788,"post_correct_resp",90.4761904761905
211.815679790529,0.5,"AU06EL20","2022_Mar_01_0938","circle","relaxed_first","MainTask",30,"Fixation","Go","relaxed",1,0.292900115982775,"post_correct_resp",90.4761904761905
212.299424513485,0.1,"AU06EL20","2022_Mar_01_0938","circle","relaxed_first","MainTask",30,"Target","Go","relaxed",1,0.292900115982775,"post_correct_resp",90.4761904761905
212.399511851614,1.19290011598277,"AU06EL20","2022_Mar_01_0938","circle","relaxed_first","MainTask",30,"ITI","Go","relaxed",1,0.292900115982775,"post_correct_resp",90.4761904761905
212.592324629468,0,"AU06EL20","2022_Mar_01_0938","circle","relaxed_first","MainTask",30,"Response","Go","relaxed",1,0.292900115982775,"post_correct_resp",90.4761904761905
213.633904171927,0.5,"AU06EL20","2022_Mar_01_0938","circle","relaxed_first","MainTask",31,"Fixation","NoGo","relaxed",1,NA,"post_correct_resp",90.4761904761905
214.11765297883,0.1,"AU06EL20","2022_Mar_01_0938","circle","relaxed_first","MainTask",31,"Target","NoGo","relaxed",1,NA,"post_correct_resp",90.4761904761905
214.217743525776,1.5,"AU06EL20","2022_Mar_01_0938","circle","relaxed_first","MainTask",31,"ITI","NoGo","relaxed",1,NA,"post_correct_resp",90.4761904761905
215.71902880233,0.5,"AU06EL20","2022_Mar_01_0938","circle","relaxed_first","MainTask",32,"Fixation","Go","relaxed",1,0.252480122844645,"post_correct_inh",90.4761904761905
216.202776734102,0.1,"AU06EL20","2022_Mar_01_0938","circle","relaxed_first","MainTask",32,"Target","Go","relaxed",1,0.252480122844645,"post_correct_inh",90.4761904761905
216.302862613678,1.15248012284464,"AU06EL20","2022_Mar_01_0938","circle","relaxed_first","MainTask",32,"ITI","Go","relaxed",1,0.252480122844645,"post_correct_inh",90.4761904761905
216.455256856947,0,"AU06EL20","2022_Mar_01_0938","circle","relaxed_first","MainTask",32,"Response","Go","relaxed",1,0.252480122844645,"post_correct_inh",90.4761904761905
217.503908920975,0.5,"AU06EL20","2022_Mar_01_0938","circle","relaxed_first","MainTask",33,"Fixation","Go","relaxed",1,0.308587432644345,"post_correct_resp",90.4761904761905
217.987642850641,0.1,"AU06EL20","2022_Mar_01_0938","circle","relaxed_first","MainTask",33,"Target","Go","relaxed",1,0.308587432644345,"post_correct_resp",90.4761904761905
218.087731355614,1.20858743264434,"AU06EL20","2022_Mar_01_0938","circle","relaxed_first","MainTask",33,"ITI","Go","relaxed",1,0.308587432644345,"post_correct_resp",90.4761904761905
218.296230283286,0,"AU06EL20","2022_Mar_01_0938","circle","relaxed_first","MainTask",33,"Response","Go","relaxed",1,0.308587432644345,"post_correct_resp",90.4761904761905
219.338806308881,0.5,"AU06EL20","2022_Mar_01_0938","circle","relaxed_first","MainTask",34,"Fixation","Go","relaxed",1,0.253646964927611,"post_correct_resp",90.4761904761905
219.822561825127,0.1,"AU06EL20","2022_Mar_01_0938","circle","relaxed_first","MainTask",34,"Target","Go","relaxed",1,0.253646964927611,"post_correct_resp",90.4761904761905
219.922642453916,1.15364696492761,"AU06EL20","2022_Mar_01_0938","circle","relaxed_first","MainTask",34,"ITI","Go","relaxed",1,0.253646964927611,"post_correct_resp",90.4761904761905
220.076208790055,0,"AU06EL20","2022_Mar_01_0938","circle","relaxed_first","MainTask",34,"Response","Go","relaxed",1,0.253646964927611,"post_correct_resp",90.4761904761905
221.123673008842,0.5,"AU06EL20","2022_Mar_01_0938","circle","relaxed_first","MainTask",35,"Fixation","Go","relaxed",1,0.300801095432689,"post_correct_resp",90.4761904761905
221.60741831522,0.1,"AU06EL20","2022_Mar_01_0938","circle","relaxed_first","MainTask",35,"Target","Go","relaxed",1,0.300801095432689,"post_correct_resp",90.4761904761905
221.707506820192,1.20080109543269,"AU06EL20","2022_Mar_01_0938","circle","relaxed_first","MainTask",35,"ITI","Go","relaxed",1,0.300801095432689,"post_correct_resp",90.4761904761905
221.908219410652,0,"AU06EL20","2022_Mar_01_0938","circle","relaxed_first","MainTask",35,"Response","Go","relaxed",1,0.300801095432689,"post_correct_resp",90.4761904761905
222.958577397801,0.5,"AU06EL20","2022_Mar_01_0938","circle","relaxed_first","MainTask",36,"Fixation","Go","relaxed",1,0.263837580250765,"post_correct_resp",90.4761904761905
223.442325912994,0.1,"AU06EL20","2022_Mar_01_0938","circle","relaxed_first","MainTask",36,"Target","Go","relaxed",1,0.263837580250765,"post_correct_resp",90.4761904761905
223.542416459941,1.16383758025077,"AU06EL20","2022_Mar_01_0938","circle","relaxed_first","MainTask",36,"ITI","Go","relaxed",1,0.263837580250765,"post_correct_resp",90.4761904761905
223.706163493245,0,"AU06EL20","2022_Mar_01_0938","circle","relaxed_first","MainTask",36,"Response","Go","relaxed",1,0.263837580250765,"post_correct_resp",90.4761904761905
224.743444681184,0.5,"AU06EL20","2022_Mar_01_0938","circle","relaxed_first","MainTask",37,"Fixation","NoGo","relaxed",1,NA,"post_correct_resp",90.4761904761905
225.227191737824,0.1,"AU06EL20","2022_Mar_01_0938","circle","relaxed_first","MainTask",37,"Target","NoGo","relaxed",1,NA,"post_correct_resp",90.4761904761905
225.32728841069,1.5,"AU06EL20","2022_Mar_01_0938","circle","relaxed_first","MainTask",37,"ITI","NoGo","relaxed",1,NA,"post_correct_resp",90.4761904761905
226.828536348297,0.5,"AU06EL20","2022_Mar_01_0938","circle","relaxed_first","MainTask",38,"Fixation","NoGo","relaxed",1,NA,"post_correct_inh",90.4761904761905
227.31231782678,0.1,"AU06EL20","2022_Mar_01_0938","circle","relaxed_first","MainTask",38,"Target","NoGo","relaxed",1,NA,"post_correct_inh",90.4761904761905
227.412412457672,1.5,"AU06EL20","2022_Mar_01_0938","circle","relaxed_first","MainTask",38,"ITI","NoGo","relaxed",1,NA,"post_correct_inh",90.4761904761905
228.913693066857,0.5,"AU06EL20","2022_Mar_01_0938","circle","relaxed_first","MainTask",39,"Fixation","NoGo","relaxed",1,NA,"post_correct_inh",90.4761904761905
229.397441290341,0.1,"AU06EL20","2022_Mar_01_0938","circle","relaxed_first","MainTask",39,"Target","NoGo","relaxed",1,NA,"post_correct_inh",90.4761904761905
229.497531837285,1.5,"AU06EL20","2022_Mar_01_0938","circle","relaxed_first","MainTask",39,"ITI","NoGo","relaxed",1,NA,"post_correct_inh",90.4761904761905
230.99881769726,0.5,"AU06EL20","2022_Mar_01_0938","circle","relaxed_first","MainTask",40,"Fixation","NoGo","relaxed",1,NA,"post_correct_inh",90.4761904761905
231.48256387877,0.1,"AU06EL20","2022_Mar_01_0938","circle","relaxed_first","MainTask",40,"Target","NoGo","relaxed",1,NA,"post_correct_inh",90.4761904761905
231.582649758346,1.5,"AU06EL20","2022_Mar_01_0938","circle","relaxed_first","MainTask",40,"ITI","NoGo","relaxed",1,NA,"post_correct_inh",90.4761904761905
233.083944077925,0.5,"AU06EL20","2022_Mar_01_0938","circle","relaxed_first","MainTask",41,"Fixation","Go","relaxed",1,0.294341165956212,"post_correct_inh",90.4761904761905
233.567691134567,0.1,"AU06EL20","2022_Mar_01_0938","circle","relaxed_first","MainTask",41,"Target","Go","relaxed",1,0.294341165956212,"post_correct_inh",90.4761904761905
233.667778180987,1.19434116595621,"AU06EL20","2022_Mar_01_0938","circle","relaxed_first","MainTask",41,"ITI","Go","relaxed",1,0.294341165956212,"post_correct_inh",90.4761904761905
233.862032300523,0,"AU06EL20","2022_Mar_01_0938","circle","relaxed_first","MainTask",41,"Response","Go","relaxed",1,0.294341165956212,"post_correct_inh",90.4761904761905
234.902169917877,0.5,"AU06EL20","2022_Mar_01_0938","circle","relaxed_first","MainTask",42,"Fixation","NoGo","relaxed",1,NA,"post_correct_resp",90.4761904761905
235.38591784965,0.1,"AU06EL20","2022_Mar_01_0938","circle","relaxed_first","MainTask",42,"Target","NoGo","relaxed",1,NA,"post_correct_resp",90.4761904761905
235.486003729227,1.5,"AU06EL20","2022_Mar_01_0938","circle","relaxed_first","MainTask",42,"ITI","NoGo","relaxed",1,NA,"post_correct_resp",90.4761904761905
236.987295715122,0.5,"AU06EL20","2022_Mar_01_0938","circle","relaxed_first","MainTask",43,"Fixation","Go","relaxed",1,0.34296318379711,"post_correct_inh",90.4761904761905
237.471043063473,0.1,"AU06EL20","2022_Mar_01_0938","circle","relaxed_first","MainTask",43,"Target","Go","relaxed",1,0.34296318379711,"post_correct_inh",90.4761904761905
237.571127776209,1.24296318379711,"AU06EL20","2022_Mar_01_0938","circle","relaxed_first","MainTask",43,"ITI","Go","relaxed",1,0.34296318379711,"post_correct_inh",90.4761904761905
237.81400624727,0,"AU06EL20","2022_Mar_01_0938","circle","relaxed_first","MainTask",43,"Response","Go","relaxed",1,0.34296318379711,"post_correct_inh",90.4761904761905
238.855564786572,0.5,"AU06EL20","2022_Mar_01_0938","circle","relaxed_first","MainTask",44,"Fixation","Go","relaxed",1,0.31363956714813,"post_correct_resp",90.4761904761905
239.339313885186,0.1,"AU06EL20","2022_Mar_01_0938","circle","relaxed_first","MainTask",44,"Target","Go","relaxed",1,0.31363956714813,"post_correct_resp",90.4761904761905
239.439400056475,1.21363956714813,"AU06EL20","2022_Mar_01_0938","circle","relaxed_first","MainTask",44,"ITI","Go","relaxed",1,0.31363956714813,"post_correct_resp",90.4761904761905
239.652953452334,0,"AU06EL20","2022_Mar_01_0938","circle","relaxed_first","MainTask",44,"Response","Go","relaxed",1,0.31363956714813,"post_correct_resp",90.4761904761905
240.690473259479,0.5,"AU06EL20","2022_Mar_01_0938","circle","relaxed_first","MainTask",45,"Fixation","Go","relaxed",1,0.314732606468169,"post_correct_resp",90.4761904761905
241.174227025462,0.1,"AU06EL20","2022_Mar_01_0938","circle","relaxed_first","MainTask",45,"Target","Go","relaxed",1,0.314732606468169,"post_correct_resp",90.4761904761905
241.274308821092,1.21473260646817,"AU06EL20","2022_Mar_01_0938","circle","relaxed_first","MainTask",45,"ITI","Go","relaxed",1,0.314732606468169,"post_correct_resp",90.4761904761905
241.48895963193,0,"AU06EL20","2022_Mar_01_0938","circle","relaxed_first","MainTask",45,"Response","Go","relaxed",1,0.314732606468169,"post_correct_resp",90.4761904761905
242.52538377436,0.5,"AU06EL20","2022_Mar_01_0938","circle","relaxed_first","MainTask",46,"Fixation","NoGo","relaxed",1,NA,"post_correct_resp",90.4761904761905
243.009130247579,0.1,"AU06EL20","2022_Mar_01_0938","circle","relaxed_first","MainTask",46,"Target","NoGo","relaxed",1,NA,"post_correct_resp",90.4761904761905
243.109228378999,1.5,"AU06EL20","2022_Mar_01_0938","circle","relaxed_first","MainTask",46,"ITI","NoGo","relaxed",1,NA,"post_correct_resp",90.4761904761905
244.610506654501,0.5,"AU06EL20","2022_Mar_01_0938","circle","relaxed_first","MainTask",47,"Fixation","Go","relaxed",1,0.290634983792188,"post_correct_inh",90.4761904761905
245.094257211667,0.1,"AU06EL20","2022_Mar_01_0938","circle","relaxed_first","MainTask",47,"Target","Go","relaxed",1,0.290634983792188,"post_correct_inh",90.4761904761905
245.194341049271,1.19063498379219,"AU06EL20","2022_Mar_01_0938","circle","relaxed_first","MainTask",47,"ITI","Go","relaxed",1,0.290634983792188,"post_correct_inh",90.4761904761905
245.38489219546,0,"AU06EL20","2022_Mar_01_0938","circle","relaxed_first","MainTask",47,"Response","Go","relaxed",1,0.290634983792188,"post_correct_inh",90.4761904761905
246.428738036951,0.5,"AU06EL20","2022_Mar_01_0938","circle","relaxed_first","MainTask",48,"Fixation","Go","relaxed",1,0.418386689130784,"post_correct_resp",90.4761904761905
246.912482468197,0.1,"AU06EL20","2022_Mar_01_0938","circle","relaxed_first","MainTask",48,"Target","Go","relaxed",1,0.418386689130784,"post_correct_resp",90.4761904761905
247.012570098037,1.31838668913078,"AU06EL20","2022_Mar_01_0938","circle","relaxed_first","MainTask",48,"ITI","Go","relaxed",1,0.418386689130784,"post_correct_resp",90.4761904761905
247.330869157327,0,"AU06EL20","2022_Mar_01_0938","circle","relaxed_first","MainTask",48,"Response","Go","relaxed",1,0.418386689130784,"post_correct_resp",90.4761904761905
248.380413272129,0.5,"AU06EL20","2022_Mar_01_0938","circle","relaxed_first","MainTask",49,"Fixation","Go","relaxed",1,0.225675426539965,"post_correct_resp",90.4761904761905
248.864159745348,0.1,"AU06EL20","2022_Mar_01_0938","circle","relaxed_first","MainTask",49,"Target","Go","relaxed",1,0.225675426539965,"post_correct_resp",90.4761904761905
248.964245041505,1.12567542653996,"AU06EL20","2022_Mar_01_0938","circle","relaxed_first","MainTask",49,"ITI","Go","relaxed",1,0.225675426539965,"post_correct_resp",90.4761904761905
249.089835171888,0,"AU06EL20","2022_Mar_01_0938","circle","relaxed_first","MainTask",49,"Response","Go","relaxed",1,0.225675426539965,"post_correct_resp",90.4761904761905
250.131915289598,0.5,"AU06EL20","2022_Mar_01_0938","circle","relaxed_first","MainTask",50,"Fixation","NoGo","relaxed",1,NA,"post_correct_resp",90.4761904761905
250.61566322137,0.1,"AU06EL20","2022_Mar_01_0938","circle","relaxed_first","MainTask",50,"Target","NoGo","relaxed",1,NA,"post_correct_resp",90.4761904761905
250.715752601474,1.5,"AU06EL20","2022_Mar_01_0938","circle","relaxed_first","MainTask",50,"ITI","NoGo","relaxed",1,NA,"post_correct_resp",90.4761904761905
252.217041086842,0.5,"AU06EL20","2022_Mar_01_0938","circle","relaxed_first","MainTask",51,"Fixation","NoGo","relaxed",1,NA,"post_correct_inh",90.4761904761905
252.700785226378,0.1,"AU06EL20","2022_Mar_01_0938","circle","relaxed_first","MainTask",51,"Target","NoGo","relaxed",1,NA,"post_correct_inh",90.4761904761905
252.800874898192,1.5,"AU06EL20","2022_Mar_01_0938","circle","relaxed_first","MainTask",51,"ITI","NoGo","relaxed",1,NA,"post_correct_inh",90.4761904761905
254.30216309185,0.5,"AU06EL20","2022_Mar_01_0938","circle","relaxed_first","MainTask",52,"Fixation","NoGo","relaxed",1,NA,"post_correct_inh",90.4761904761905
254.785911898754,0.1,"AU06EL20","2022_Mar_01_0938","circle","relaxed_first","MainTask",52,"Target","NoGo","relaxed",1,NA,"post_correct_inh",90.4761904761905
254.885997194911,1.5,"AU06EL20","2022_Mar_01_0938","circle","relaxed_first","MainTask",52,"ITI","NoGo","relaxed",1,NA,"post_correct_inh",90.4761904761905
256.387287138832,0.5,"AU06EL20","2022_Mar_01_0938","circle","relaxed_first","MainTask",53,"Fixation","Go","relaxed",1,0.345702053875357,"post_correct_inh",90.4761904761905
256.871036529157,0.1,"AU06EL20","2022_Mar_01_0938","circle","relaxed_first","MainTask",53,"Target","Go","relaxed",1,0.345702053875357,"post_correct_inh",90.4761904761905
256.971126784392,1.24570205387536,"AU06EL20","2022_Mar_01_0938","circle","relaxed_first","MainTask",53,"ITI","Go","relaxed",1,0.345702053875357,"post_correct_inh",90.4761904761905
257.216738583033,0,"AU06EL20","2022_Mar_01_0938","circle","relaxed_first","MainTask",53,"Response","Go","relaxed",1,0.345702053875357,"post_correct_inh",90.4761904761905
258.255560585942,0.5,"AU06EL20","2022_Mar_01_0938","circle","relaxed_first","MainTask",54,"Fixation","Go","relaxed",1,0.329394560649234,"post_correct_resp",90.4761904761905
258.739311726529,0.1,"AU06EL20","2022_Mar_01_0938","circle","relaxed_first","MainTask",54,"Target","Go","relaxed",1,0.329394560649234,"post_correct_resp",90.4761904761905
258.839391480185,1.22939456064923,"AU06EL20","2022_Mar_01_0938","circle","relaxed_first","MainTask",54,"ITI","Go","relaxed",1,0.329394560649234,"post_correct_resp",90.4761904761905
259.068706287178,0,"AU06EL20","2022_Mar_01_0938","circle","relaxed_first","MainTask",54,"Response","Go","relaxed",1,0.329394560649234,"post_correct_resp",90.4761904761905
260.107148191277,0.5,"AU06EL20","2022_Mar_01_0938","circle","relaxed_first","MainTask",55,"Fixation","Go","relaxed",1,0.279799396508679,"post_correct_resp",90.4761904761905
260.590895831339,0.1,"AU06EL20","2022_Mar_01_0938","circle","relaxed_first","MainTask",55,"Target","Go","relaxed",1,0.279799396508679,"post_correct_resp",90.4761904761905
260.690987253416,1.17979939650868,"AU06EL20","2022_Mar_01_0938","circle","relaxed_first","MainTask",55,"ITI","Go","relaxed",1,0.279799396508679,"post_correct_resp",90.4761904761905
260.870695227848,0,"AU06EL20","2022_Mar_01_0938","circle","relaxed_first","MainTask",55,"Response","Go","relaxed",1,0.279799396508679,"post_correct_resp",90.4761904761905
261.908701316432,0.5,"AU06EL20","2022_Mar_01_0938","circle","relaxed_first","MainTask",56,"Fixation","Go","relaxed",1,0.408217076968867,"post_correct_resp",90.4761904761905
262.392443705703,0.1,"AU06EL20","2022_Mar_01_0938","circle","relaxed_first","MainTask",56,"Target","Go","relaxed",1,0.408217076968867,"post_correct_resp",90.4761904761905
262.492533669229,1.30821707696887,"AU06EL20","2022_Mar_01_0938","circle","relaxed_first","MainTask",56,"ITI","Go","relaxed",1,0.408217076968867,"post_correct_resp",90.4761904761905
262.800660782672,0,"AU06EL20","2022_Mar_01_0938","circle","relaxed_first","MainTask",56,"Response","Go","relaxed",1,0.408217076968867,"post_correct_resp",90.4761904761905
263.843712879836,0.5,"AU06EL20","2022_Mar_01_0938","circle","relaxed_first","MainTask",57,"Fixation","NoGo","relaxed",1,NA,"post_correct_resp",90.4761904761905
264.327442142136,0.1,"AU06EL20","2022_Mar_01_0938","circle","relaxed_first","MainTask",57,"Target","NoGo","relaxed",1,NA,"post_correct_resp",90.4761904761905
264.427529771976,1.5,"AU06EL20","2022_Mar_01_0938","circle","relaxed_first","MainTask",57,"ITI","NoGo","relaxed",1,NA,"post_correct_resp",90.4761904761905
265.928815340239,0.5,"AU06EL20","2022_Mar_01_0938","circle","relaxed_first","MainTask",58,"Fixation","Go","relaxed",1,0.272057691005102,"post_correct_inh",90.4761904761905
266.412563272012,0.1,"AU06EL20","2022_Mar_01_0938","circle","relaxed_first","MainTask",58,"Target","Go","relaxed",1,0.272057691005102,"post_correct_inh",90.4761904761905
266.512648859878,1.1720576910051,"AU06EL20","2022_Mar_01_0938","circle","relaxed_first","MainTask",58,"ITI","Go","relaxed",1,0.272057691005102,"post_correct_inh",90.4761904761905
266.684620963017,0,"AU06EL20","2022_Mar_01_0938","circle","relaxed_first","MainTask",58,"Response","Go","relaxed",1,0.272057691005102,"post_correct_inh",90.4761904761905
267.730362047761,0.5,"AU06EL20","2022_Mar_01_0938","circle","relaxed_first","MainTask",59,"Fixation","NoGo","relaxed",1,NA,"post_correct_resp",90.4761904761905
268.214109687822,0.1,"AU06EL20","2022_Mar_01_0938","circle","relaxed_first","MainTask",59,"Target","NoGo","relaxed",1,NA,"post_correct_resp",90.4761904761905
268.314196150821,1.5,"AU06EL20","2022_Mar_01_0938","circle","relaxed_first","MainTask",59,"ITI","NoGo","relaxed",1,NA,"post_correct_resp",90.4761904761905
269.815489303559,0.5,"AU06EL20","2022_Mar_01_0938","circle","relaxed_first","MainTask",60,"Fixation","Go","relaxed",1,0.263333796181541,"post_correct_inh",90.4761904761905
270.299234901646,0.1,"AU06EL20","2022_Mar_01_0938","circle","relaxed_first","MainTask",60,"Target","Go","relaxed",1,0.263333796181541,"post_correct_inh",90.4761904761905
270.399319906091,1.16333379618154,"AU06EL20","2022_Mar_01_0938","circle","relaxed_first","MainTask",60,"ITI","Go","relaxed",1,0.263333796181541,"post_correct_inh",90.4761904761905
270.562568697827,0,"AU06EL20","2022_Mar_01_0938","circle","relaxed_first","MainTask",60,"Response","Go","relaxed",1,0.263333796181541,"post_correct_inh",90.4761904761905
271.60035658694,0.5,"AU06EL20","2022_Mar_01_0938","circle","relaxed_first","MainTask",61,"Fixation","Go","relaxed",1,0.357428525088835,"post_correct_resp",90.4761904761905
272.08410335187,0.1,"AU06EL20","2022_Mar_01_0938","circle","relaxed_first","MainTask",61,"Target","Go","relaxed",1,0.357428525088835,"post_correct_resp",90.4761904761905
272.184208484341,1.25742852508884,"AU06EL20","2022_Mar_01_0938","circle","relaxed_first","MainTask",61,"ITI","Go","relaxed",1,0.357428525088835,"post_correct_resp",90.4761904761905
272.441531876959,0,"AU06EL20","2022_Mar_01_0938","circle","relaxed_first","MainTask",61,"Response","Go","relaxed",1,0.357428525088835,"post_correct_resp",90.4761904761905
273.485314708978,0.5,"AU06EL20","2022_Mar_01_0938","circle","relaxed_first","MainTask",62,"Fixation","NoGo","relaxed",1,NA,"post_correct_resp",90.4761904761905
273.969055347987,0.1,"AU06EL20","2022_Mar_01_0938","circle","relaxed_first","MainTask",62,"Target","NoGo","relaxed",1,NA,"post_correct_resp",90.4761904761905
274.069138893879,1.5,"AU06EL20","2022_Mar_01_0938","circle","relaxed_first","MainTask",62,"ITI","NoGo","relaxed",1,NA,"post_correct_resp",90.4761904761905
275.57042767096,0.5,"AU06EL20","2022_Mar_01_0938","circle","relaxed_first","MainTask",63,"Fixation","Go","relaxed",1,0.253318207169286,"post_correct_inh",90.4761904761905
276.054176186153,0.1,"AU06EL20","2022_Mar_01_0938","circle","relaxed_first","MainTask",63,"Target","Go","relaxed",1,0.253318207169286,"post_correct_inh",90.4761904761905
276.154260898888,1.15331820716929,"AU06EL20","2022_Mar_01_0938","circle","relaxed_first","MainTask",63,"ITI","Go","relaxed",1,0.253318207169286,"post_correct_inh",90.4761904761905
276.307494393322,0,"AU06EL20","2022_Mar_01_0938","circle","relaxed_first","MainTask",63,"Response","Go","relaxed",1,0.253318207169286,"post_correct_inh",90.4761904761905
277.35529437092,0.5,"AU06EL20","2022_Mar_01_0938","circle","relaxed_first","MainTask",64,"Fixation","NoGo","relaxed",1,NA,"post_correct_resp",90.4761904761905
277.839042886113,0.1,"AU06EL20","2022_Mar_01_0938","circle","relaxed_first","MainTask",64,"Target","NoGo","relaxed",1,NA,"post_correct_resp",90.4761904761905
277.939131391086,1.5,"AU06EL20","2022_Mar_01_0938","circle","relaxed_first","MainTask",64,"ITI","NoGo","relaxed",1,NA,"post_correct_resp",90.4761904761905
279.440415500796,0.5,"AU06EL20","2022_Mar_01_0938","circle","relaxed_first","MainTask",65,"Fixation","Go","relaxed",1,0.263272245259941,"post_correct_inh",90.4761904761905
279.92416926678,0.1,"AU06EL20","2022_Mar_01_0938","circle","relaxed_first","MainTask",65,"Target","Go","relaxed",1,0.263272245259941,"post_correct_inh",90.4761904761905
280.024252812673,1.16327224525994,"AU06EL20","2022_Mar_01_0938","circle","relaxed_first","MainTask",65,"ITI","Go","relaxed",1,0.263272245259941,"post_correct_inh",90.4761904761905
280.18744151204,0,"AU06EL20","2022_Mar_01_0938","circle","relaxed_first","MainTask",65,"Response","Go","relaxed",1,0.263272245259941,"post_correct_inh",90.4761904761905
281.225285409573,0.5,"AU06EL20","2022_Mar_01_0938","circle","relaxed_first","MainTask",66,"Fixation","NoGo","relaxed",1,NA,"post_correct_resp",90.4761904761905
281.709034508187,0.1,"AU06EL20","2022_Mar_01_0938","circle","relaxed_first","MainTask",66,"Target","NoGo","relaxed",1,NA,"post_correct_resp",90.4761904761905
281.809120387765,1.5,"AU06EL20","2022_Mar_01_0938","circle","relaxed_first","MainTask",66,"ITI","NoGo","relaxed",1,NA,"post_correct_resp",90.4761904761905
283.31041295708,0.5,"AU06EL20","2022_Mar_01_0938","circle","relaxed_first","MainTask",67,"Fixation","NoGo","relaxed",1,NA,"post_correct_inh",90.4761904761905
283.794160305431,0.1,"AU06EL20","2022_Mar_01_0938","circle","relaxed_first","MainTask",67,"Target","NoGo","relaxed",1,NA,"post_correct_inh",90.4761904761905
283.894244143035,1.5,"AU06EL20","2022_Mar_01_0938","circle","relaxed_first","MainTask",67,"ITI","NoGo","relaxed",1,NA,"post_correct_inh",90.4761904761905
285.395531461563,0.5,"AU06EL20","2022_Mar_01_0938","circle","relaxed_first","MainTask",68,"Fixation","Go","relaxed",1,0.295087653175869,"post_correct_inh",90.4761904761905
285.879279101624,0.1,"AU06EL20","2022_Mar_01_0938","circle","relaxed_first","MainTask",68,"Target","Go","relaxed",1,0.295087653175869,"post_correct_inh",90.4761904761905
285.979365272913,1.19508765317587,"AU06EL20","2022_Mar_01_0938","circle","relaxed_first","MainTask",68,"ITI","Go","relaxed",1,0.295087653175869,"post_correct_inh",90.4761904761905
286.1743667548,0,"AU06EL20","2022_Mar_01_0938","circle","relaxed_first","MainTask",68,"Response","Go","relaxed",1,0.295087653175869,"post_correct_inh",90.4761904761905
287.213765177697,0.5,"AU06EL20","2022_Mar_01_0938","circle","relaxed_first","MainTask",69,"Fixation","Go","relaxed",1,0.450854361772144,"post_correct_resp",90.4761904761905
287.697507275259,0.1,"AU06EL20","2022_Mar_01_0938","circle","relaxed_first","MainTask",69,"Target","Go","relaxed",1,0.450854361772144,"post_correct_resp",90.4761904761905
287.797592571416,1.35085436177214,"AU06EL20","2022_Mar_01_0938","circle","relaxed_first","MainTask",69,"ITI","Go","relaxed",1,0.450854361772144,"post_correct_resp",90.4761904761905
288.148361637031,0,"AU06EL20","2022_Mar_01_0938","circle","relaxed_first","MainTask",69,"Response","Go","relaxed",1,0.450854361772144,"post_correct_resp",90.4761904761905
289.1821221707,0.5,"AU06EL20","2022_Mar_01_0938","circle","relaxed_first","MainTask",70,"Fixation","NoGo","relaxed",1,NA,"post_correct_resp",90.4761904761905
289.665867185366,0.1,"AU06EL20","2022_Mar_01_0938","circle","relaxed_first","MainTask",70,"Target","NoGo","relaxed",1,NA,"post_correct_resp",90.4761904761905
289.765951898102,1.5,"AU06EL20","2022_Mar_01_0938","circle","relaxed_first","MainTask",70,"ITI","NoGo","relaxed",1,NA,"post_correct_resp",90.4761904761905
291.267240966892,0.5,"AU06EL20","2022_Mar_01_0938","circle","relaxed_first","MainTask",71,"Fixation","Go","relaxed",1,0.267331980574454,"post_correct_inh",90.4761904761905
291.750992399191,0.1,"AU06EL20","2022_Mar_01_0938","circle","relaxed_first","MainTask",71,"Target","Go","relaxed",1,0.267331980574454,"post_correct_inh",90.4761904761905
291.851082362715,1.16733198057445,"AU06EL20","2022_Mar_01_0938","circle","relaxed_first","MainTask",71,"ITI","Go","relaxed",1,0.267331980574454,"post_correct_inh",90.4761904761905
292.018324379766,0,"AU06EL20","2022_Mar_01_0938","circle","relaxed_first","MainTask",71,"Response","Go","relaxed",1,0.267331980574454,"post_correct_inh",90.4761904761905
293.052108833694,0.5,"AU06EL20","2022_Mar_01_0938","circle","relaxed_first","MainTask",72,"Fixation","Go","relaxed",1,0.277404453136114,"post_correct_resp",90.4761904761905
293.535856765468,0.1,"AU06EL20","2022_Mar_01_0938","circle","relaxed_first","MainTask",72,"Target","Go","relaxed",1,0.277404453136114,"post_correct_resp",90.4761904761905
293.635940019649,1.17740445313611,"AU06EL20","2022_Mar_01_0938","circle","relaxed_first","MainTask",72,"ITI","Go","relaxed",1,0.277404453136114,"post_correct_resp",90.4761904761905
293.813261218604,0,"AU06EL20","2022_Mar_01_0938","circle","relaxed_first","MainTask",72,"Response","Go","relaxed",1,0.277404453136114,"post_correct_resp",90.4761904761905
294.853645623058,0.5,"AU06EL20","2022_Mar_01_0938","circle","relaxed_first","MainTask",73,"Fixation","Go","relaxed",1,0.21280603350715,"post_correct_resp",90.4761904761905
295.337430602067,0.1,"AU06EL20","2022_Mar_01_0938","circle","relaxed_first","MainTask",73,"Target","Go","relaxed",1,0.21280603350715,"post_correct_resp",90.4761904761905
295.437487602303,1.11280603350715,"AU06EL20","2022_Mar_01_0938","circle","relaxed_first","MainTask",73,"ITI","Go","relaxed",1,0.21280603350715,"post_correct_resp",90.4761904761905
295.550236635574,0,"AU06EL20","2022_Mar_01_0938","circle","relaxed_first","MainTask",73,"Response","Go","relaxed",1,0.21280603350715,"post_correct_resp",90.4761904761905
296.588492720071,0.5,"AU06EL20","2022_Mar_01_0938","circle","relaxed_first","MainTask",74,"Fixation","Go","relaxed",1,0.274986464632093,"post_correct_resp",90.4761904761905
297.072224607766,0.1,"AU06EL20","2022_Mar_01_0938","circle","relaxed_first","MainTask",74,"Target","Go","relaxed",1,0.274986464632093,"post_correct_resp",90.4761904761905
297.172310195632,1.17498646463209,"AU06EL20","2022_Mar_01_0938","circle","relaxed_first","MainTask",74,"ITI","Go","relaxed",1,0.274986464632093,"post_correct_resp",90.4761904761905
297.347211072398,0,"AU06EL20","2022_Mar_01_0938","circle","relaxed_first","MainTask",74,"Response","Go","relaxed",1,0.274986464632093,"post_correct_resp",90.4761904761905
298.390027759173,0.5,"AU06EL20","2022_Mar_01_0938","circle","relaxed_first","MainTask",75,"Fixation","Go","relaxed",1,0.256429299872252,"post_correct_resp",90.4761904761905
298.873775107524,0.1,"AU06EL20","2022_Mar_01_0938","circle","relaxed_first","MainTask",75,"Target","Go","relaxed",1,0.256429299872252,"post_correct_resp",90.4761904761905
298.973862153944,1.15642929987225,"AU06EL20","2022_Mar_01_0938","circle","relaxed_first","MainTask",75,"ITI","Go","relaxed",1,0.256429299872252,"post_correct_resp",90.4761904761905
299.130204407396,0,"AU06EL20","2022_Mar_01_0938","circle","relaxed_first","MainTask",75,"Response","Go","relaxed",1,0.256429299872252,"post_correct_resp",90.4761904761905
300.174890083475,0.5,"AU06EL20","2022_Mar_01_0938","circle","relaxed_first","MainTask",76,"Fixation","Go","relaxed",1,0.269537312109605,"post_correct_resp",90.4761904761905
300.658642974327,0.1,"AU06EL20","2022_Mar_01_0938","circle","relaxed_first","MainTask",76,"Target","Go","relaxed",1,0.269537312109605,"post_correct_resp",90.4761904761905
300.758725936799,1.16953731210961,"AU06EL20","2022_Mar_01_0938","circle","relaxed_first","MainTask",76,"ITI","Go","relaxed",1,0.269537312109605,"post_correct_resp",90.4761904761905
300.928180286437,0,"AU06EL20","2022_Mar_01_0938","circle","relaxed_first","MainTask",76,"Response","Go","relaxed",1,0.269537312109605,"post_correct_resp",90.4761904761905
301.976442041787,0.5,"AU06EL20","2022_Mar_01_0938","circle","relaxed_first","MainTask",77,"Fixation","Go","relaxed",1,0.219956733495565,"post_correct_resp",90.4761904761905
302.46018472277,0.1,"AU06EL20","2022_Mar_01_0938","circle","relaxed_first","MainTask",77,"Target","Go","relaxed",1,0.219956733495565,"post_correct_resp",90.4761904761905
302.560289855241,1.11995673349556,"AU06EL20","2022_Mar_01_0938","circle","relaxed_first","MainTask",77,"ITI","Go","relaxed",1,0.219956733495565,"post_correct_resp",90.4761904761905
302.680141456265,0,"AU06EL20","2022_Mar_01_0938","circle","relaxed_first","MainTask",77,"Response","Go","relaxed",1,0.219956733495565,"post_correct_resp",90.4761904761905
303.727939683598,0.5,"AU06EL20","2022_Mar_01_0938","circle","relaxed_first","MainTask",78,"Fixation","Go","relaxed",1,0.212432352329415,"post_correct_resp",90.4761904761905
304.211689657344,0.1,"AU06EL20","2022_Mar_01_0938","circle","relaxed_first","MainTask",78,"Target","Go","relaxed",1,0.212432352329415,"post_correct_resp",90.4761904761905
304.311774953501,1.11243235232942,"AU06EL20","2022_Mar_01_0938","circle","relaxed_first","MainTask",78,"ITI","Go","relaxed",1,0.212432352329415,"post_correct_resp",90.4761904761905
304.424122009674,0,"AU06EL20","2022_Mar_01_0938","circle","relaxed_first","MainTask",78,"Response","Go","relaxed",1,0.212432352329415,"post_correct_resp",90.4761904761905
305.462764318901,0.5,"AU06EL20","2022_Mar_01_0938","circle","relaxed_first","MainTask",79,"Fixation","NoGo","relaxed",0,0.226574770073057,"post_correct_resp",90.4761904761905
305.94651516778,0.1,"AU06EL20","2022_Mar_01_0938","circle","relaxed_first","MainTask",79,"Target","NoGo","relaxed",0,0.226574770073057,"post_correct_resp",90.4761904761905
306.046599297093,1.12657477007306,"AU06EL20","2022_Mar_01_0938","circle","relaxed_first","MainTask",79,"ITI","NoGo","relaxed",0,0.226574770073057,"post_correct_resp",90.4761904761905
306.173089937853,0,"AU06EL20","2022_Mar_01_0938","circle","relaxed_first","MainTask",79,"Response","NoGo","relaxed",0,0.226574770073057,"post_correct_resp",90.4761904761905
307.214272170582,0.5,"AU06EL20","2022_Mar_01_0938","circle","relaxed_first","MainTask",80,"Fixation","NoGo","relaxed",1,NA,"post_error_resp",90.4761904761905
307.698033521039,0.1,"AU06EL20","2022_Mar_01_0938","circle","relaxed_first","MainTask",80,"Target","NoGo","relaxed",1,NA,"post_error_resp",90.4761904761905
307.798069809827,1.5,"AU06EL20","2022_Mar_01_0938","circle","relaxed_first","MainTask",80,"ITI","NoGo","relaxed",1,NA,"post_error_resp",90.4761904761905
309.29939359217,0.5,"AU06EL20","2022_Mar_01_0938","circle","relaxed_first","MainTask",81,"Fixation","Go","relaxed",1,0.311932477183291,"post_correct_inh",90.4761904761905
309.783127521838,0.1,"AU06EL20","2022_Mar_01_0938","circle","relaxed_first","MainTask",81,"Target","Go","relaxed",1,0.311932477183291,"post_correct_inh",90.4761904761905
309.883225069834,1.21193247718329,"AU06EL20","2022_Mar_01_0938","circle","relaxed_first","MainTask",81,"ITI","Go","relaxed",1,0.311932477183291,"post_correct_inh",90.4761904761905
310.095059999021,0,"AU06EL20","2022_Mar_01_0938","circle","relaxed_first","MainTask",81,"Response","Go","relaxed",1,0.311932477183291,"post_correct_inh",90.4761904761905
311.134299147972,0.5,"AU06EL20","2022_Mar_01_0938","circle","relaxed_first","MainTask",82,"Fixation","Go","relaxed",1,0.262976450792848,"post_correct_resp",90.4761904761905
311.618047079744,0.1,"AU06EL20","2022_Mar_01_0938","circle","relaxed_first","MainTask",82,"Target","Go","relaxed",1,0.262976450792848,"post_correct_resp",90.4761904761905
311.718133251032,1.16297645079285,"AU06EL20","2022_Mar_01_0938","circle","relaxed_first","MainTask",82,"ITI","Go","relaxed",1,0.262976450792848,"post_correct_resp",90.4761904761905
311.881023530537,0,"AU06EL20","2022_Mar_01_0938","circle","relaxed_first","MainTask",82,"Response","Go","relaxed",1,0.262976450792848,"post_correct_resp",90.4761904761905
312.919167306485,0.5,"AU06EL20","2022_Mar_01_0938","circle","relaxed_first","MainTask",83,"Fixation","Go","relaxed",1,0.272084820086093,"post_correct_resp",90.4761904761905
313.402913487995,0.1,"AU06EL20","2022_Mar_01_0938","circle","relaxed_first","MainTask",83,"Target","Go","relaxed",1,0.272084820086093,"post_correct_resp",90.4761904761905
313.502999950992,1.17208482008609,"AU06EL20","2022_Mar_01_0938","circle","relaxed_first","MainTask",83,"ITI","Go","relaxed",1,0.272084820086093,"post_correct_resp",90.4761904761905
313.674998308081,0,"AU06EL20","2022_Mar_01_0938","circle","relaxed_first","MainTask",83,"Response","Go","relaxed",1,0.272084820086093,"post_correct_resp",90.4761904761905
314.72071576427,0.5,"AU06EL20","2022_Mar_01_0938","circle","relaxed_first","MainTask",84,"Fixation","NoGo","relaxed",1,NA,"post_correct_resp",90.4761904761905
315.204465446304,0.1,"AU06EL20","2022_Mar_01_0938","circle","relaxed_first","MainTask",84,"Target","NoGo","relaxed",1,NA,"post_correct_resp",90.4761904761905
315.304548408778,1.5,"AU06EL20","2022_Mar_01_0938","circle","relaxed_first","MainTask",84,"ITI","NoGo","relaxed",1,NA,"post_correct_resp",90.4761904761905
316.805839811252,0.5,"AU06EL20","2022_Mar_01_0938","circle","relaxed_first","MainTask",85,"Fixation","Go","relaxed",1,0.290369818929321,"post_correct_inh",90.4761904761905
317.289588326445,0.1,"AU06EL20","2022_Mar_01_0938","circle","relaxed_first","MainTask",85,"Target","Go","relaxed",1,0.290369818929321,"post_correct_inh",90.4761904761905
317.389671288916,1.19036981892932,"AU06EL20","2022_Mar_01_0938","circle","relaxed_first","MainTask",85,"ITI","Go","relaxed",1,0.290369818929321,"post_correct_inh",90.4761904761905
317.579958145374,0,"AU06EL20","2022_Mar_01_0938","circle","relaxed_first","MainTask",85,"Response","Go","relaxed",1,0.290369818929321,"post_correct_inh",90.4761904761905
318.624074110807,0.5,"AU06EL20","2022_Mar_01_0938","circle","relaxed_first","MainTask",86,"Fixation","Go","relaxed",1,0.268151978847527,"post_correct_resp",90.4761904761905
319.107812707844,0.1,"AU06EL20","2022_Mar_01_0938","circle","relaxed_first","MainTask",86,"Target","Go","relaxed",1,0.268151978847527,"post_correct_resp",90.4761904761905
319.207901212816,1.16815197884753,"AU06EL20","2022_Mar_01_0938","circle","relaxed_first","MainTask",86,"ITI","Go","relaxed",1,0.268151978847527,"post_correct_resp",90.4761904761905
319.375964686691,0,"AU06EL20","2022_Mar_01_0938","circle","relaxed_first","MainTask",86,"Response","Go","relaxed",1,0.268151978847527,"post_correct_resp",90.4761904761905
320.42561527583,0.5,"AU06EL20","2022_Mar_01_0938","circle","relaxed_first","MainTask",87,"Fixation","NoGo","relaxed",1,NA,"post_correct_resp",90.4761904761905
320.909360290496,0.1,"AU06EL20","2022_Mar_01_0938","circle","relaxed_first","MainTask",87,"Target","NoGo","relaxed",1,NA,"post_correct_resp",90.4761904761905
321.009447336915,1.5,"AU06EL20","2022_Mar_01_0938","circle","relaxed_first","MainTask",87,"ITI","NoGo","relaxed",1,NA,"post_correct_resp",90.4761904761905
322.510745448732,0.5,"AU06EL20","2022_Mar_01_0938","circle","relaxed_first","MainTask",88,"Fixation","Go","relaxed",1,0.241401832408883,"post_correct_inh",90.4761904761905
322.994484629189,0.1,"AU06EL20","2022_Mar_01_0938","circle","relaxed_first","MainTask",88,"Target","Go","relaxed",1,0.241401832408883,"post_correct_inh",90.4761904761905
323.094571383897,1.14140183240888,"AU06EL20","2022_Mar_01_0938","circle","relaxed_first","MainTask",88,"ITI","Go","relaxed",1,0.241401832408883,"post_correct_inh",90.4761904761905
323.235886461598,0,"AU06EL20","2022_Mar_01_0938","circle","relaxed_first","MainTask",88,"Response","Go","relaxed",1,0.241401832408883,"post_correct_inh",90.4761904761905
324.278922222973,0.5,"AU06EL20","2022_Mar_01_0938","circle","relaxed_first","MainTask",89,"Fixation","Go","relaxed",1,0.243181558293145,"post_correct_resp",90.4761904761905
324.762671613298,0.1,"AU06EL20","2022_Mar_01_0938","circle","relaxed_first","MainTask",89,"Target","Go","relaxed",1,0.243181558293145,"post_correct_resp",90.4761904761905
324.862756034323,1.14318155829314,"AU06EL20","2022_Mar_01_0938","circle","relaxed_first","MainTask",89,"ITI","Go","relaxed",1,0.243181558293145,"post_correct_resp",90.4761904761905
325.005853171591,0,"AU06EL20","2022_Mar_01_0938","circle","relaxed_first","MainTask",89,"Response","Go","relaxed",1,0.243181558293145,"post_correct_resp",90.4761904761905
326.047106581689,0.5,"AU06EL20","2022_Mar_01_0938","circle","relaxed_first","MainTask",90,"Fixation","Go","relaxed",1,0.247977862671178,"post_correct_resp",90.4761904761905
326.53085334662,0.1,"AU06EL20","2022_Mar_01_0938","circle","relaxed_first","MainTask",90,"Target","Go","relaxed",1,0.247977862671178,"post_correct_resp",90.4761904761905
326.630949144354,1.14797786267118,"AU06EL20","2022_Mar_01_0938","circle","relaxed_first","MainTask",90,"ITI","Go","relaxed",1,0.247977862671178,"post_correct_resp",90.4761904761905
326.778831209291,0,"AU06EL20","2022_Mar_01_0938","circle","relaxed_first","MainTask",90,"Response","Go","relaxed",1,0.247977862671178,"post_correct_resp",90.4761904761905
327.815290648694,0.5,"AU06EL20","2022_Mar_01_0938","circle","relaxed_first","MainTask",91,"Fixation","NoGo","relaxed",1,NA,"post_correct_resp",90.4761904761905
328.299041205861,0.1,"AU06EL20","2022_Mar_01_0938","circle","relaxed_first","MainTask",91,"Target","NoGo","relaxed",1,NA,"post_correct_resp",90.4761904761905
328.399136420176,1.5,"AU06EL20","2022_Mar_01_0938","circle","relaxed_first","MainTask",91,"ITI","NoGo","relaxed",1,NA,"post_correct_resp",90.4761904761905
329.900418779624,0.5,"AU06EL20","2022_Mar_01_0938","circle","relaxed_first","MainTask",92,"Fixation","NoGo","relaxed",1,NA,"post_correct_inh",90.4761904761905
330.384181588632,0.1,"AU06EL20","2022_Mar_01_0938","circle","relaxed_first","MainTask",92,"Target","NoGo","relaxed",1,NA,"post_correct_inh",90.4761904761905
330.484233629788,1.5,"AU06EL20","2022_Mar_01_0938","circle","relaxed_first","MainTask",92,"ITI","NoGo","relaxed",1,NA,"post_correct_inh",90.4761904761905
331.985538450946,0.5,"AU06EL20","2022_Mar_01_0938","circle","relaxed_first","MainTask",93,"Fixation","Go","relaxed",1,0.319468818479436,"post_correct_inh",90.4761904761905
332.469295717456,0.1,"AU06EL20","2022_Mar_01_0938","circle","relaxed_first","MainTask",93,"Target","Go","relaxed",1,0.319468818479436,"post_correct_inh",90.4761904761905
332.569374012559,1.21946881847944,"AU06EL20","2022_Mar_01_0938","circle","relaxed_first","MainTask",93,"ITI","Go","relaxed",1,0.319468818479436,"post_correct_inh",90.4761904761905
332.788764535935,0,"AU06EL20","2022_Mar_01_0938","circle","relaxed_first","MainTask",93,"Response","Go","relaxed",1,0.319468818479436,"post_correct_inh",90.4761904761905
333.837128389967,0.5,"AU06EL20","2022_Mar_01_0938","circle","relaxed_first","MainTask",94,"Fixation","Go","relaxed",1,0.235849122651416,"post_correct_resp",90.4761904761905
334.32088740674,0.1,"AU06EL20","2022_Mar_01_0938","circle","relaxed_first","MainTask",94,"Target","Go","relaxed",1,0.235849122651416,"post_correct_resp",90.4761904761905
334.420964243291,1.13584912265142,"AU06EL20","2022_Mar_01_0938","circle","relaxed_first","MainTask",94,"ITI","Go","relaxed",1,0.235849122651416,"post_correct_resp",90.4761904761905
334.556736529392,0,"AU06EL20","2022_Mar_01_0938","circle","relaxed_first","MainTask",94,"Response","Go","relaxed",1,0.235849122651416,"post_correct_resp",90.4761904761905
335.605319458025,0.5,"AU06EL20","2022_Mar_01_0938","circle","relaxed_first","MainTask",95,"Fixation","Go","relaxed",1,0.261639833188383,"post_correct_resp",90.4761904761905
336.089066514665,0.1,"AU06EL20","2022_Mar_01_0938","circle","relaxed_first","MainTask",95,"Target","Go","relaxed",1,0.261639833188383,"post_correct_resp",90.4761904761905
336.189148893716,1.16163983318838,"AU06EL20","2022_Mar_01_0938","circle","relaxed_first","MainTask",95,"ITI","Go","relaxed",1,0.261639833188383,"post_correct_resp",90.4761904761905
336.350706347854,0,"AU06EL20","2022_Mar_01_0938","circle","relaxed_first","MainTask",95,"Response","Go","relaxed",1,0.261639833188383,"post_correct_resp",90.4761904761905
337.39018294917,0.5,"AU06EL20","2022_Mar_01_0938","circle","relaxed_first","MainTask",96,"Fixation","Go","relaxed",1,0.258752190746236,"post_correct_resp",90.4761904761905
337.873928547258,0.1,"AU06EL20","2022_Mar_01_0938","circle","relaxed_first","MainTask",96,"Target","Go","relaxed",1,0.258752190746236,"post_correct_resp",90.4761904761905
337.974019677624,1.15875219074624,"AU06EL20","2022_Mar_01_0938","circle","relaxed_first","MainTask",96,"ITI","Go","relaxed",1,0.258752190746236,"post_correct_resp",90.4761904761905
338.132680738005,0,"AU06EL20","2022_Mar_01_0938","circle","relaxed_first","MainTask",96,"Response","Go","relaxed",1,0.258752190746236,"post_correct_resp",90.4761904761905
339.175046440314,0.5,"AU06EL20","2022_Mar_01_0938","circle","relaxed_first","MainTask",97,"Fixation","Go","relaxed",1,0.219874471127696,"post_correct_resp",90.4761904761905
339.658793496956,0.1,"AU06EL20","2022_Mar_01_0938","circle","relaxed_first","MainTask",97,"Target","Go","relaxed",1,0.219874471127696,"post_correct_resp",90.4761904761905
339.758880543375,1.1198744711277,"AU06EL20","2022_Mar_01_0938","circle","relaxed_first","MainTask",97,"ITI","Go","relaxed",1,0.219874471127696,"post_correct_resp",90.4761904761905
339.878667968083,0,"AU06EL20","2022_Mar_01_0938","circle","relaxed_first","MainTask",97,"Response","Go","relaxed",1,0.219874471127696,"post_correct_resp",90.4761904761905
340.9265516666,0.5,"AU06EL20","2022_Mar_01_0938","circle","relaxed_first","MainTask",98,"Fixation","Go","relaxed",1,0.2763420434203,"post_correct_resp",90.4761904761905
341.410298723242,0.1,"AU06EL20","2022_Mar_01_0938","circle","relaxed_first","MainTask",98,"Target","Go","relaxed",1,0.2763420434203,"post_correct_resp",90.4761904761905
341.510388686766,1.1763420434203,"AU06EL20","2022_Mar_01_0938","circle","relaxed_first","MainTask",98,"ITI","Go","relaxed",1,0.2763420434203,"post_correct_resp",90.4761904761905
341.686640766662,0,"AU06EL20","2022_Mar_01_0938","circle","relaxed_first","MainTask",98,"Response","Go","relaxed",1,0.2763420434203,"post_correct_resp",90.4761904761905
342.728098957543,0.5,"AU06EL20","2022_Mar_01_0938","circle","relaxed_first","MainTask",99,"Fixation","Go","relaxed",1,0.225750104431427,"post_correct_resp",90.4761904761905
343.211863808525,0.1,"AU06EL20","2022_Mar_01_0938","circle","relaxed_first","MainTask",99,"Target","Go","relaxed",1,0.225750104431427,"post_correct_resp",90.4761904761905
343.311930726919,1.12575010443143,"AU06EL20","2022_Mar_01_0938","circle","relaxed_first","MainTask",99,"ITI","Go","relaxed",1,0.225750104431427,"post_correct_resp",90.4761904761905
343.437613912956,0,"AU06EL20","2022_Mar_01_0938","circle","relaxed_first","MainTask",99,"Response","Go","relaxed",1,0.225750104431427,"post_correct_resp",90.4761904761905
344.479602433565,0.5,"AU06EL20","2022_Mar_01_0938","circle","relaxed_first","MainTask",100,"Fixation","Go","relaxed",1,0.206240504823654,"post_correct_resp",90.4761904761905
344.963353865864,0.1,"AU06EL20","2022_Mar_01_0938","circle","relaxed_first","MainTask",100,"Target","Go","relaxed",1,0.206240504823654,"post_correct_resp",90.4761904761905
345.063400947942,1.10624050482365,"AU06EL20","2022_Mar_01_0938","circle","relaxed_first","MainTask",100,"ITI","Go","relaxed",1,0.206240504823654,"post_correct_resp",90.4761904761905
345.169594370687,0,"AU06EL20","2022_Mar_01_0938","circle","relaxed_first","MainTask",100,"Response","Go","relaxed",1,0.206240504823654,"post_correct_resp",90.4761904761905
346.214425902026,0.5,"AU06EL20","2022_Mar_01_0938","circle","relaxed_first","MainTask",101,"Fixation","Go","relaxed",0,NA,"post_correct_resp",90.4761904761905
346.698175000642,0.1,"AU06EL20","2022_Mar_01_0938","circle","relaxed_first","MainTask",101,"Target","Go","relaxed",0,NA,"post_correct_resp",90.4761904761905
346.798258546534,1.5,"AU06EL20","2022_Mar_01_0938","circle","relaxed_first","MainTask",101,"ITI","Go","relaxed",0,NA,"post_correct_resp",90.4761904761905
348.299550240719,0.5,"AU06EL20","2022_Mar_01_0938","circle","relaxed_first","MainTask",102,"Fixation","Go","relaxed",1,0.21726657907675,"post_error_inh",90.4761904761905
348.783300797886,0.1,"AU06EL20","2022_Mar_01_0938","circle","relaxed_first","MainTask",102,"Target","Go","relaxed",1,0.21726657907675,"post_error_inh",90.4761904761905
348.883382885228,1.11726657907675,"AU06EL20","2022_Mar_01_0938","circle","relaxed_first","MainTask",102,"ITI","Go","relaxed",1,0.21726657907675,"post_error_inh",90.4761904761905
349.000567376963,0,"AU06EL20","2022_Mar_01_0938","circle","relaxed_first","MainTask",102,"Response","Go","relaxed",1,0.21726657907675,"post_error_inh",90.4761904761905
350.034370792075,0.5,"AU06EL20","2022_Mar_01_0938","circle","relaxed_first","MainTask",103,"Fixation","Go","relaxed",1,0.200429631255247,"post_correct_resp",90.4761904761905
350.518121932664,0.1,"AU06EL20","2022_Mar_01_0938","circle","relaxed_first","MainTask",103,"Target","Go","relaxed",1,0.200429631255247,"post_correct_resp",90.4761904761905
350.618208687372,1.10042963125525,"AU06EL20","2022_Mar_01_0938","circle","relaxed_first","MainTask",103,"ITI","Go","relaxed",1,0.200429631255247,"post_correct_resp",90.4761904761905
350.718551563919,0,"AU06EL20","2022_Mar_01_0938","circle","relaxed_first","MainTask",103,"Response","Go","relaxed",1,0.200429631255247,"post_correct_resp",90.4761904761905
351.752513961264,0.5,"AU06EL20","2022_Mar_01_0938","circle","relaxed_first","MainTask",104,"Fixation","NoGo","relaxed",0,0.203242304092782,"post_correct_resp",90.4761904761905
352.236262476459,0.1,"AU06EL20","2022_Mar_01_0938","circle","relaxed_first","MainTask",104,"Target","NoGo","relaxed",0,0.203242304092782,"post_correct_resp",90.4761904761905
352.336348939456,1.10324230409278,"AU06EL20","2022_Mar_01_0938","circle","relaxed_first","MainTask",104,"ITI","NoGo","relaxed",0,0.203242304092782,"post_correct_resp",90.4761904761905
352.439504780552,0,"AU06EL20","2022_Mar_01_0938","circle","relaxed_first","MainTask",104,"Response","NoGo","relaxed",0,0.203242304092782,"post_correct_resp",90.4761904761905
353.487338304858,0.5,"AU06EL20","2022_Mar_01_0938","circle","relaxed_first","MainTask",105,"Fixation","Go","relaxed",1,0.297394208262631,"post_error_resp",90.4761904761905
353.971084778077,0.1,"AU06EL20","2022_Mar_01_0938","circle","relaxed_first","MainTask",105,"Target","Go","relaxed",1,0.297394208262631,"post_error_resp",90.4761904761905
354.071170949366,1.19739420826263,"AU06EL20","2022_Mar_01_0938","circle","relaxed_first","MainTask",105,"ITI","Go","relaxed",1,0.297394208262631,"post_error_resp",90.4761904761905
354.26847898634,0,"AU06EL20","2022_Mar_01_0938","circle","relaxed_first","MainTask",105,"Response","Go","relaxed",1,0.297394208262631,"post_error_resp",90.4761904761905
355.305568520467,0.5,"AU06EL20","2022_Mar_01_0938","circle","relaxed_first","MainTask",106,"Fixation","Go","relaxed",1,0.272176417187438,"post_correct_resp",90.4761904761905
355.789281155267,0.1,"AU06EL20","2022_Mar_01_0938","circle","relaxed_first","MainTask",106,"Target","Go","relaxed",1,0.272176417187438,"post_correct_resp",90.4761904761905
355.889401456685,1.17217641718744,"AU06EL20","2022_Mar_01_0938","circle","relaxed_first","MainTask",106,"ITI","Go","relaxed",1,0.272176417187438,"post_correct_resp",90.4761904761905
356.061457572454,0,"AU06EL20","2022_Mar_01_0938","circle","relaxed_first","MainTask",106,"Response","Go","relaxed",1,0.272176417187438,"post_correct_resp",90.4761904761905
357.10711581141,0.5,"AU06EL20","2022_Mar_01_0938","circle","relaxed_first","MainTask",107,"Fixation","Go","relaxed",1,0.246540313228252,"post_correct_resp",90.4761904761905
357.590860242655,0.1,"AU06EL20","2022_Mar_01_0938","circle","relaxed_first","MainTask",107,"Target","Go","relaxed",1,0.246540313228252,"post_correct_resp",90.4761904761905
357.690935037233,1.14654031322825,"AU06EL20","2022_Mar_01_0938","circle","relaxed_first","MainTask",107,"ITI","Go","relaxed",1,0.246540313228252,"post_correct_resp",90.4761904761905
357.837400555884,0,"AU06EL20","2022_Mar_01_0938","circle","relaxed_first","MainTask",107,"Response","Go","relaxed",1,0.246540313228252,"post_correct_resp",90.4761904761905
358.858619579143,0.5,"AU06EL20","2022_Mar_01_0938","circle","relaxed_first","MainTask",108,"Fixation","Go","relaxed",1,0.211053144990728,"post_correct_resp",90.4761904761905
359.342364593811,0.1,"AU06EL20","2022_Mar_01_0938","circle","relaxed_first","MainTask",108,"Target","Go","relaxed",1,0.211053144990728,"post_correct_resp",90.4761904761905
359.442450181677,1.11105314499073,"AU06EL20","2022_Mar_01_0938","circle","relaxed_first","MainTask",108,"ITI","Go","relaxed",1,0.211053144990728,"post_correct_resp",90.4761904761905
359.553417738802,0,"AU06EL20","2022_Mar_01_0938","circle","relaxed_first","MainTask",108,"Response","Go","relaxed",1,0.211053144990728,"post_correct_resp",90.4761904761905
360.593442755893,0.5,"AU06EL20","2022_Mar_01_0938","circle","relaxed_first","MainTask",109,"Fixation","Go","relaxed",1,0.248177100958856,"post_correct_resp",90.4761904761905
361.077190687667,0.1,"AU06EL20","2022_Mar_01_0938","circle","relaxed_first","MainTask",109,"Target","Go","relaxed",1,0.248177100958856,"post_correct_resp",90.4761904761905
361.177294653296,1.14817710095886,"AU06EL20","2022_Mar_01_0938","circle","relaxed_first","MainTask",109,"ITI","Go","relaxed",1,0.248177100958856,"post_correct_resp",90.4761904761905
361.325367788626,0,"AU06EL20","2022_Mar_01_0938","circle","relaxed_first","MainTask",109,"Response","Go","relaxed",1,0.248177100958856,"post_correct_resp",90.4761904761905
362.361625072635,0.5,"AU06EL20","2022_Mar_01_0938","circle","relaxed_first","MainTask",110,"Fixation","Go","relaxed",1,0.206980282702716,"post_correct_resp",90.4761904761905
362.845377963487,0.1,"AU06EL20","2022_Mar_01_0938","circle","relaxed_first","MainTask",110,"Target","Go","relaxed",1,0.206980282702716,"post_correct_resp",90.4761904761905
362.945457425432,1.10698028270272,"AU06EL20","2022_Mar_01_0938","circle","relaxed_first","MainTask",110,"ITI","Go","relaxed",1,0.206980282702716,"post_correct_resp",90.4761904761905
363.05235824619,0,"AU06EL20","2022_Mar_01_0938","circle","relaxed_first","MainTask",110,"Response","Go","relaxed",1,0.206980282702716,"post_correct_resp",90.4761904761905
364.096447665965,0.5,"AU06EL20","2022_Mar_01_0938","circle","relaxed_first","MainTask",111,"Fixation","Go","relaxed",1,0.231141498272336,"post_correct_resp",90.4761904761905
364.580199973396,0.1,"AU06EL20","2022_Mar_01_0938","circle","relaxed_first","MainTask",111,"Target","Go","relaxed",1,0.231141498272336,"post_correct_resp",90.4761904761905
364.680279143631,1.13114149827234,"AU06EL20","2022_Mar_01_0938","circle","relaxed_first","MainTask",111,"ITI","Go","relaxed",1,0.231141498272336,"post_correct_resp",90.4761904761905
364.811341471668,0,"AU06EL20","2022_Mar_01_0938","circle","relaxed_first","MainTask",111,"Response","Go","relaxed",1,0.231141498272336,"post_correct_resp",90.4761904761905
365.847951433698,0.5,"AU06EL20","2022_Mar_01_0938","circle","relaxed_first","MainTask",112,"Fixation","Go","relaxed",1,0.228621702795863,"post_correct_resp",90.4761904761905
366.331697323498,0.1,"AU06EL20","2022_Mar_01_0938","circle","relaxed_first","MainTask",112,"Target","Go","relaxed",1,0.228621702795863,"post_correct_resp",90.4761904761905
366.431784953338,1.12862170279586,"AU06EL20","2022_Mar_01_0938","circle","relaxed_first","MainTask",112,"ITI","Go","relaxed",1,0.228621702795863,"post_correct_resp",90.4761904761905
366.560319026294,0,"AU06EL20","2022_Mar_01_0938","circle","relaxed_first","MainTask",112,"Response","Go","relaxed",1,0.228621702795863,"post_correct_resp",90.4761904761905
367.599455493142,0.5,"AU06EL20","2022_Mar_01_0938","circle","relaxed_first","MainTask",113,"Fixation","Go","relaxed",1,0.234094192161137,"post_correct_resp",90.4761904761905
368.083203424914,0.1,"AU06EL20","2022_Mar_01_0938","circle","relaxed_first","MainTask",113,"Target","Go","relaxed",1,0.234094192161137,"post_correct_resp",90.4761904761905
368.183291929887,1.13409419216114,"AU06EL20","2022_Mar_01_0938","circle","relaxed_first","MainTask",113,"ITI","Go","relaxed",1,0.234094192161137,"post_correct_resp",90.4761904761905
368.317297617075,0,"AU06EL20","2022_Mar_01_0938","circle","relaxed_first","MainTask",113,"Response","Go","relaxed",1,0.234094192161137,"post_correct_resp",90.4761904761905
369.350963636532,0.5,"AU06EL20","2022_Mar_01_0938","circle","relaxed_first","MainTask",114,"Fixation","NoGo","relaxed",1,NA,"post_correct_resp",90.4761904761905
369.834707192647,0.1,"AU06EL20","2022_Mar_01_0938","circle","relaxed_first","MainTask",114,"Target","NoGo","relaxed",1,NA,"post_correct_resp",90.4761904761905
369.934792780514,1.5,"AU06EL20","2022_Mar_01_0938","circle","relaxed_first","MainTask",114,"ITI","NoGo","relaxed",1,NA,"post_correct_resp",90.4761904761905
371.436084182988,0.5,"AU06EL20","2022_Mar_01_0938","circle","relaxed_first","MainTask",115,"Fixation","NoGo","relaxed",1,NA,"post_correct_inh",90.4761904761905
371.919839699234,0.1,"AU06EL20","2022_Mar_01_0938","circle","relaxed_first","MainTask",115,"Target","NoGo","relaxed",1,NA,"post_correct_inh",90.4761904761905
372.019916535786,1.5,"AU06EL20","2022_Mar_01_0938","circle","relaxed_first","MainTask",115,"ITI","NoGo","relaxed",1,NA,"post_correct_inh",90.4761904761905
373.521206479707,0.5,"AU06EL20","2022_Mar_01_0938","circle","relaxed_first","MainTask",116,"Fixation","Go","relaxed",1,0.266270445988994,"post_correct_inh",90.4761904761905
374.00495411977,0.1,"AU06EL20","2022_Mar_01_0938","circle","relaxed_first","MainTask",116,"Target","Go","relaxed",1,0.266270445988994,"post_correct_inh",90.4761904761905
374.105040291057,1.16627044598899,"AU06EL20","2022_Mar_01_0938","circle","relaxed_first","MainTask",116,"ITI","Go","relaxed",1,0.266270445988994,"post_correct_inh",90.4761904761905
374.271224565759,0,"AU06EL20","2022_Mar_01_0938","circle","relaxed_first","MainTask",116,"Response","Go","relaxed",1,0.266270445988994,"post_correct_inh",90.4761904761905
375.306075805061,0.5,"AU06EL20","2022_Mar_01_0938","circle","relaxed_first","MainTask",117,"Fixation","Go","relaxed",1,0.22637611520986,"post_correct_resp",90.4761904761905
375.789820236309,0.1,"AU06EL20","2022_Mar_01_0938","circle","relaxed_first","MainTask",117,"Target","Go","relaxed",1,0.22637611520986,"post_correct_resp",90.4761904761905
375.889906699307,1.12637611520986,"AU06EL20","2022_Mar_01_0938","circle","relaxed_first","MainTask",117,"ITI","Go","relaxed",1,0.22637611520986,"post_correct_resp",90.4761904761905
376.016196351518,0,"AU06EL20","2022_Mar_01_0938","circle","relaxed_first","MainTask",117,"Response","Go","relaxed",1,0.22637611520986,"post_correct_resp",90.4761904761905
377.0575935749,0.5,"AU06EL20","2022_Mar_01_0938","circle","relaxed_first","MainTask",118,"Fixation","NoGo","relaxed",1,NA,"post_correct_resp",90.4761904761905
377.541326046015,0.1,"AU06EL20","2022_Mar_01_0938","circle","relaxed_first","MainTask",118,"Target","NoGo","relaxed",1,NA,"post_correct_resp",90.4761904761905
377.641413675856,1.5,"AU06EL20","2022_Mar_01_0938","circle","relaxed_first","MainTask",118,"ITI","NoGo","relaxed",1,NA,"post_correct_resp",90.4761904761905
379.142717330171,0.5,"AU06EL20","2022_Mar_01_0938","circle","relaxed_first","MainTask",119,"Fixation","Go","relaxed",1,0.254704415563538,"post_correct_inh",90.4761904761905
379.626449217865,0.1,"AU06EL20","2022_Mar_01_0938","circle","relaxed_first","MainTask",119,"Target","Go","relaxed",1,0.254704415563538,"post_correct_inh",90.4761904761905
379.726534805732,1.15470441556354,"AU06EL20","2022_Mar_01_0938","circle","relaxed_first","MainTask",119,"ITI","Go","relaxed",1,0.254704415563538,"post_correct_inh",90.4761904761905
379.881153633429,0,"AU06EL20","2022_Mar_01_0938","circle","relaxed_first","MainTask",119,"Response","Go","relaxed",1,0.254704415563538,"post_correct_inh",90.4761904761905
380.92756623579,0.5,"AU06EL20","2022_Mar_01_0938","circle","relaxed_first","MainTask",120,"Fixation","NoGo","relaxed",1,NA,"post_correct_resp",90.4761904761905
381.41131329243,0.1,"AU06EL20","2022_Mar_01_0938","circle","relaxed_first","MainTask",120,"Target","NoGo","relaxed",1,NA,"post_correct_resp",90.4761904761905
381.511401797403,1.5,"AU06EL20","2022_Mar_01_0938","circle","relaxed_first","MainTask",120,"ITI","NoGo","relaxed",1,NA,"post_correct_resp",90.4761904761905
383.012690866193,0.5,"AU06EL20","2022_Mar_01_0938","circle","relaxed_first","MainTask",121,"Fixation","Go","relaxed",1,0.280666068465507,"post_correct_inh",90.4761904761905
383.496443173623,0.1,"AU06EL20","2022_Mar_01_0938","circle","relaxed_first","MainTask",121,"Target","Go","relaxed",1,0.280666068465507,"post_correct_inh",90.4761904761905
383.596525260964,1.18066606846551,"AU06EL20","2022_Mar_01_0938","circle","relaxed_first","MainTask",121,"ITI","Go","relaxed",1,0.280666068465507,"post_correct_inh",90.4761904761905
383.777109242088,0,"AU06EL20","2022_Mar_01_0938","circle","relaxed_first","MainTask",121,"Response","Go","relaxed",1,0.280666068465507,"post_correct_inh",90.4761904761905
384.814203443584,0.5,"AU06EL20","2022_Mar_01_0938","circle","relaxed_first","MainTask",122,"Fixation","Go","relaxed",1,0.255089473450425,"post_correct_resp",90.4761904761905
385.297985797199,0.1,"AU06EL20","2022_Mar_01_0938","circle","relaxed_first","MainTask",122,"Target","Go","relaxed",1,0.255089473450425,"post_correct_resp",90.4761904761905
385.398071968486,1.15508947345043,"AU06EL20","2022_Mar_01_0938","circle","relaxed_first","MainTask",122,"ITI","Go","relaxed",1,0.255089473450425,"post_correct_resp",90.4761904761905
385.553075270649,0,"AU06EL20","2022_Mar_01_0938","circle","relaxed_first","MainTask",122,"Response","Go","relaxed",1,0.255089473450425,"post_correct_resp",90.4761904761905
386.59911185815,0.5,"AU06EL20","2022_Mar_01_0938","circle","relaxed_first","MainTask",123,"Fixation","Go","relaxed",1,0.316217704728842,"post_correct_resp",90.4761904761905
387.082850455185,0.1,"AU06EL20","2022_Mar_01_0938","circle","relaxed_first","MainTask",123,"Target","Go","relaxed",1,0.316217704728842,"post_correct_resp",90.4761904761905
387.182945669498,1.21621770472884,"AU06EL20","2022_Mar_01_0938","circle","relaxed_first","MainTask",123,"ITI","Go","relaxed",1,0.316217704728842,"post_correct_resp",90.4761904761905
387.399068159913,0,"AU06EL20","2022_Mar_01_0938","circle","relaxed_first","MainTask",123,"Response","Go","relaxed",1,0.316217704728842,"post_correct_resp",90.4761904761905
388.434013038293,0.5,"AU06EL20","2022_Mar_01_0938","circle","relaxed_first","MainTask",124,"Fixation","Go","relaxed",1,0.264264936162363,"post_correct_resp",90.4761904761905
388.917759219803,0.1,"AU06EL20","2022_Mar_01_0938","circle","relaxed_first","MainTask",124,"Target","Go","relaxed",1,0.264264936162363,"post_correct_resp",90.4761904761905
389.017846557932,1.16426493616236,"AU06EL20","2022_Mar_01_0938","circle","relaxed_first","MainTask",124,"ITI","Go","relaxed",1,0.264264936162363,"post_correct_resp",90.4761904761905
389.182024155965,0,"AU06EL20","2022_Mar_01_0938","circle","relaxed_first","MainTask",124,"Response","Go","relaxed",1,0.264264936162363,"post_correct_resp",90.4761904761905
390.218877112859,0.5,"AU06EL20","2022_Mar_01_0938","circle","relaxed_first","MainTask",125,"Fixation","Go","relaxed",1,0.24637724704553,"post_correct_resp",90.4761904761905
390.702625628051,0.1,"AU06EL20","2022_Mar_01_0938","circle","relaxed_first","MainTask",125,"Target","Go","relaxed",1,0.24637724704553,"post_correct_resp",90.4761904761905
390.802710340788,1.14637724704553,"AU06EL20","2022_Mar_01_0938","circle","relaxed_first","MainTask",125,"ITI","Go","relaxed",1,0.24637724704553,"post_correct_resp",90.4761904761905
390.949002875097,0,"AU06EL20","2022_Mar_01_0938","circle","relaxed_first","MainTask",125,"Response","Go","relaxed",1,0.24637724704553,"post_correct_resp",90.4761904761905
392.020427029196,45.4890290590356,"AU06EL20","2022_Mar_01_0938","circle","relaxed_first","MainTask",125,"Break",NA,NA,NA,NA,NA,90.4761904761905
439.494524301819,0.5,"AU06EL20","2022_Mar_01_0938","circle","relaxed_first","MainTask",126,"Fixation","NoGo","relaxed",1,NA,"post_break",90.4761904761905
439.978273108723,0.1,"AU06EL20","2022_Mar_01_0938","circle","relaxed_first","MainTask",126,"Target","NoGo","relaxed",1,NA,"post_break",90.4761904761905
440.07835840488,1.5,"AU06EL20","2022_Mar_01_0938","circle","relaxed_first","MainTask",126,"ITI","NoGo","relaxed",1,NA,"post_break",90.4761904761905
441.579641056038,0.5,"AU06EL20","2022_Mar_01_0938","circle","relaxed_first","MainTask",127,"Fixation","Go","relaxed",1,0.264948705622373,"post_correct_inh",90.4761904761905
442.063397155705,0.1,"AU06EL20","2022_Mar_01_0938","circle","relaxed_first","MainTask",127,"Target","Go","relaxed",1,0.264948705622373,"post_correct_inh",90.4761904761905
442.16348157673,1.16494870562237,"AU06EL20","2022_Mar_01_0938","circle","relaxed_first","MainTask",127,"ITI","Go","relaxed",1,0.264948705622373,"post_correct_inh",90.4761904761905
442.328345861328,0,"AU06EL20","2022_Mar_01_0938","circle","relaxed_first","MainTask",127,"Response","Go","relaxed",1,0.264948705622373,"post_correct_inh",90.4761904761905
443.364514757051,0.5,"AU06EL20","2022_Mar_01_0938","circle","relaxed_first","MainTask",128,"Fixation","Go","relaxed",1,0.220055331650656,"post_correct_resp",90.4761904761905
443.848262688824,0.1,"AU06EL20","2022_Mar_01_0938","circle","relaxed_first","MainTask",128,"Target","Go","relaxed",1,0.220055331650656,"post_correct_resp",90.4761904761905
443.948347984981,1.12005533165066,"AU06EL20","2022_Mar_01_0938","circle","relaxed_first","MainTask",128,"ITI","Go","relaxed",1,0.220055331650656,"post_correct_resp",90.4761904761905
444.068318020474,0,"AU06EL20","2022_Mar_01_0938","circle","relaxed_first","MainTask",128,"Response","Go","relaxed",1,0.220055331650656,"post_correct_resp",90.4761904761905
445.116037485968,0.5,"AU06EL20","2022_Mar_01_0938","circle","relaxed_first","MainTask",129,"Fixation","Go","relaxed",1,0.189500988315558,"post_correct_resp",90.4761904761905
445.599769957083,0.1,"AU06EL20","2022_Mar_01_0938","circle","relaxed_first","MainTask",129,"Target","Go","relaxed",1,0.189500988315558,"post_correct_resp",90.4761904761905
445.699854378108,1.08950098831556,"AU06EL20","2022_Mar_01_0938","circle","relaxed_first","MainTask",129,"ITI","Go","relaxed",1,0.189500988315558,"post_correct_resp",90.4761904761905
445.789270945399,0,"AU06EL20","2022_Mar_01_0938","circle","relaxed_first","MainTask",129,"Response","Go","relaxed",1,0.189500988315558,"post_correct_resp",90.4761904761905
446.834179780026,0.5,"AU06EL20","2022_Mar_01_0938","circle","relaxed_first","MainTask",130,"Fixation","NoGo","relaxed",0,0.183358148175103,"post_correct_resp",90.4761904761905
447.317912251141,0.1,"AU06EL20","2022_Mar_01_0938","circle","relaxed_first","MainTask",130,"Target","NoGo","relaxed",0,0.183358148175103,"post_correct_resp",90.4761904761905
447.417998422428,1.0833581481751,"AU06EL20","2022_Mar_01_0938","circle","relaxed_first","MainTask",130,"ITI","NoGo","relaxed",0,0.183358148175103,"post_correct_resp",90.4761904761905
447.501270399316,0,"AU06EL20","2022_Mar_01_0938","circle","relaxed_first","MainTask",130,"Response","NoGo","relaxed",0,0.183358148175103,"post_correct_resp",90.4761904761905
448.535618729682,0.5,"AU06EL20","2022_Mar_01_0938","circle","relaxed_first","MainTask",131,"Fixation","NoGo","relaxed",1,NA,"post_error_resp",90.4761904761905
449.01937045369,0.1,"AU06EL20","2022_Mar_01_0938","circle","relaxed_first","MainTask",131,"Target","NoGo","relaxed",1,NA,"post_error_resp",90.4761904761905
449.119454291294,1.5,"AU06EL20","2022_Mar_01_0938","circle","relaxed_first","MainTask",131,"ITI","NoGo","relaxed",1,NA,"post_error_resp",90.4761904761905
450.620748319163,0.5,"AU06EL20","2022_Mar_01_0938","circle","relaxed_first","MainTask",132,"Fixation","Go","relaxed",1,0.234762209252949,"post_correct_inh",90.4761904761905
451.104495375805,0.1,"AU06EL20","2022_Mar_01_0938","circle","relaxed_first","MainTask",132,"Target","Go","relaxed",1,0.234762209252949,"post_correct_inh",90.4761904761905
451.204578921697,1.13476220925295,"AU06EL20","2022_Mar_01_0938","circle","relaxed_first","MainTask",132,"ITI","Go","relaxed",1,0.234762209252949,"post_correct_inh",90.4761904761905
451.339257585058,0,"AU06EL20","2022_Mar_01_0938","circle","relaxed_first","MainTask",132,"Response","Go","relaxed",1,0.234762209252949,"post_correct_inh",90.4761904761905
452.388932677879,0.5,"AU06EL20","2022_Mar_01_0938","circle","relaxed_first","MainTask",133,"Fixation","Go","relaxed",1,0.258519697459633,"post_correct_resp",90.4761904761905
452.872680609651,0.1,"AU06EL20","2022_Mar_01_0938","circle","relaxed_first","MainTask",133,"Target","Go","relaxed",1,0.258519697459633,"post_correct_resp",90.4761904761905
452.972764738965,1.15851969745963,"AU06EL20","2022_Mar_01_0938","circle","relaxed_first","MainTask",133,"ITI","Go","relaxed",1,0.258519697459633,"post_correct_resp",90.4761904761905
453.131200307111,0,"AU06EL20","2022_Mar_01_0938","circle","relaxed_first","MainTask",133,"Response","Go","relaxed",1,0.258519697459633,"post_correct_resp",90.4761904761905
454.173799086129,0.5,"AU06EL20","2022_Mar_01_0938","circle","relaxed_first","MainTask",134,"Fixation","Go","relaxed",1,0.230647340649739,"post_correct_resp",90.4761904761905
454.65754585106,0.1,"AU06EL20","2022_Mar_01_0938","circle","relaxed_first","MainTask",134,"Target","Go","relaxed",1,0.230647340649739,"post_correct_resp",90.4761904761905
454.757633189189,1.13064734064974,"AU06EL20","2022_Mar_01_0938","circle","relaxed_first","MainTask",134,"ITI","Go","relaxed",1,0.230647340649739,"post_correct_resp",90.4761904761905
454.888193191709,0,"AU06EL20","2022_Mar_01_0938","circle","relaxed_first","MainTask",134,"Response","Go","relaxed",1,0.230647340649739,"post_correct_resp",90.4761904761905
455.925299936756,0.5,"AU06EL20","2022_Mar_01_0938","circle","relaxed_first","MainTask",135,"Fixation","Go","relaxed",1,0.236116329488141,"post_correct_resp",90.4761904761905
456.409047285108,0.1,"AU06EL20","2022_Mar_01_0938","circle","relaxed_first","MainTask",135,"Target","Go","relaxed",1,0.236116329488141,"post_correct_resp",90.4761904761905
456.509132872974,1.13611632948814,"AU06EL20","2022_Mar_01_0938","circle","relaxed_first","MainTask",135,"ITI","Go","relaxed",1,0.236116329488141,"post_correct_resp",90.4761904761905
456.645163614596,0,"AU06EL20","2022_Mar_01_0938","circle","relaxed_first","MainTask",135,"Response","Go","relaxed",1,0.236116329488141,"post_correct_resp",90.4761904761905
457.693484003761,0.5,"AU06EL20","2022_Mar_01_0938","circle","relaxed_first","MainTask",136,"Fixation","Go","relaxed",1,0.205896286408461,"post_correct_resp",90.4761904761905
458.177241853691,0.1,"AU06EL20","2022_Mar_01_0938","circle","relaxed_first","MainTask",136,"Target","Go","relaxed",1,0.205896286408461,"post_correct_resp",90.4761904761905
458.277318106822,1.10589628640846,"AU06EL20","2022_Mar_01_0938","circle","relaxed_first","MainTask",136,"ITI","Go","relaxed",1,0.205896286408461,"post_correct_resp",90.4761904761905
458.3831381401,0,"AU06EL20","2022_Mar_01_0938","circle","relaxed_first","MainTask",136,"Response","Go","relaxed",1,0.205896286408461,"post_correct_resp",90.4761904761905
459.428307180513,0.5,"AU06EL20","2022_Mar_01_0938","circle","relaxed_first","MainTask",137,"Fixation","Go","relaxed",1,0.199046339967026,"post_correct_resp",90.4761904761905
459.91205773768,0.1,"AU06EL20","2022_Mar_01_0938","circle","relaxed_first","MainTask",137,"Target","Go","relaxed",1,0.199046339967026,"post_correct_resp",90.4761904761905
460.012143033835,1.09904633996703,"AU06EL20","2022_Mar_01_0938","circle","relaxed_first","MainTask",137,"ITI","Go","relaxed",1,0.199046339967026,"post_correct_resp",90.4761904761905
460.111104077647,0,"AU06EL20","2022_Mar_01_0938","circle","relaxed_first","MainTask",137,"Response","Go","relaxed",1,0.199046339967026,"post_correct_resp",90.4761904761905
461.146453850228,0.5,"AU06EL20","2022_Mar_01_0938","circle","relaxed_first","MainTask",138,"Fixation","Go","relaxed",1,0.231869607730914,"post_correct_resp",90.4761904761905
461.630203823974,0.1,"AU06EL20","2022_Mar_01_0938","circle","relaxed_first","MainTask",138,"Target","Go","relaxed",1,0.231869607730914,"post_correct_resp",90.4761904761905
461.730284452762,1.13186960773091,"AU06EL20","2022_Mar_01_0938","circle","relaxed_first","MainTask",138,"ITI","Go","relaxed",1,0.231869607730914,"post_correct_resp",90.4761904761905
461.862073431705,0,"AU06EL20","2022_Mar_01_0938","circle","relaxed_first","MainTask",138,"Response","Go","relaxed",1,0.231869607730914,"post_correct_resp",90.4761904761905
462.89796286875,0.5,"AU06EL20","2022_Mar_01_0938","circle","relaxed_first","MainTask",139,"Fixation","NoGo","relaxed",0,0.260363307950684,"post_correct_resp",90.4761904761905
463.381702340917,0.1,"AU06EL20","2022_Mar_01_0938","circle","relaxed_first","MainTask",139,"Target","NoGo","relaxed",0,0.260363307950684,"post_correct_resp",90.4761904761905
463.481787345363,1.16036330795068,"AU06EL20","2022_Mar_01_0938","circle","relaxed_first","MainTask",139,"ITI","NoGo","relaxed",0,0.260363307950684,"post_correct_resp",90.4761904761905
463.642065648868,0,"AU06EL20","2022_Mar_01_0938","circle","relaxed_first","MainTask",139,"Response","NoGo","relaxed",0,0.260363307950684,"post_correct_resp",90.4761904761905
464.682820233975,0.5,"AU06EL20","2022_Mar_01_0938","circle","relaxed_first","MainTask",140,"Fixation","NoGo","relaxed",1,NA,"post_error_resp",90.4761904761905
465.166568165747,0.1,"AU06EL20","2022_Mar_01_0938","circle","relaxed_first","MainTask",140,"Target","NoGo","relaxed",1,NA,"post_error_resp",90.4761904761905
465.266657837561,1.5,"AU06EL20","2022_Mar_01_0938","circle","relaxed_first","MainTask",140,"ITI","NoGo","relaxed",1,NA,"post_error_resp",90.4761904761905
466.767927653456,0.5,"AU06EL20","2022_Mar_01_0938","circle","relaxed_first","MainTask",141,"Fixation","NoGo","relaxed",1,NA,"post_correct_inh",90.4761904761905
467.25169250444,0.1,"AU06EL20","2022_Mar_01_0938","circle","relaxed_first","MainTask",141,"Target","NoGo","relaxed",1,NA,"post_correct_inh",90.4761904761905
467.351778967437,1.5,"AU06EL20","2022_Mar_01_0938","circle","relaxed_first","MainTask",141,"ITI","NoGo","relaxed",1,NA,"post_correct_inh",90.4761904761905
468.853060743464,0.5,"AU06EL20","2022_Mar_01_0938","circle","relaxed_first","MainTask",142,"Fixation","Go","relaxed",1,0.235177605032732,"post_correct_inh",90.4761904761905
469.336831720368,0.1,"AU06EL20","2022_Mar_01_0938","circle","relaxed_first","MainTask",142,"Target","Go","relaxed",1,0.235177605032732,"post_correct_inh",90.4761904761905
469.436900680736,1.13517760503273,"AU06EL20","2022_Mar_01_0938","circle","relaxed_first","MainTask",142,"ITI","Go","relaxed",1,0.235177605032732,"post_correct_inh",90.4761904761905
469.5720093254,0,"AU06EL20","2022_Mar_01_0938","circle","relaxed_first","MainTask",142,"Response","Go","relaxed",1,0.235177605032732,"post_correct_inh",90.4761904761905
