Instruction_Condition,MarkCondition,Type,Letter,CorrectResponse,Condition,RandomizeBlocks.thisRepN,RandomizeBlocks.thisTrialN,RandomizeBlocks.thisN,RandomizeBlocks.thisIndex,Practice.thisRepN,Practice.thisTrialN,Practice.thisN,Practice.thisIndex,Trials.thisRepN,Trials.thisTrialN,Trials.thisN,Trials.thisIndex,Target_Mapping,Fixation_practice.started,Fixation_practice.stopped,Target_practice.started,Target_practice.stopped,Target_resp_practice.keys,Target_resp_practice.corr,Target_resp_practice.started,Target_resp_practice.stopped,ITI_resp_practice.started,ITI_resp_practice.stopped,ITI_Duration,ITI.started,ITI.stopped,square2.started,square2.stopped,Target_resp_practice.rt,Instr_Repe.started,Instr_Repe.stopped,Trigger_Target,TriggerResp,Fixation.started,Fixation.stopped,Target.started,Target.stopped,Target_resp.keys,Target_resp.corr,Target_resp.started,Target_resp.stopped,ITI_resp.started,ITI_resp.stopped,square1.started,square1.stopped,showReminder,ReminderErrors.started,ReminderErrors.stopped,ReminderErrorsResp.keys,ReminderErrorsResp.started,ReminderErrorsResp.stopped,break_block.started,break_block.stopped,break_block_resp.keys,Target_resp.rt,break_block_resp.rt,SelfReport.started,SelfReport.stopped,anxious.response,anxious.rt,peppy.response,peppy.rt,peeved.response,peeved.rt,happy.response,happy.rt,tired.response,tired.rt,relaxed.response,relaxed.rt,sad.response,sad.rt,calm.response,calm.rt,exhausted.response,exhausted.rt,irritated.response,irritated.rt,break_cond.started,break_cond.stopped,break_cond_resp.keys,break_cond_resp.rt,participant,session,EEGPort,LogFilesFolder,date,expName,psychopyVersion,frameRate,
IN DIESEM BLOCK KÖNNEN SIE EINFACH ENTSPANNT AN DIE AUFGABE HERANGEHEN. SIE SOLLEN SICH NICHT VERAUSGABEN.,100,Go,go,4,0,0,0,0,0,0,0,0,1,,,,,circle,116.65026388133629,117.150662357908,117.13398147521548,117.23406589623846,None,0,117.13398147521548,None,117.23406589623846,None,0.9,117.80118907042379,None,117.80118907042379,None,,,,,,,,,,,,,,,,,,,,,,,,,,,,,,,,,,,,,,,,,,,,,,,,,,,,,,,AU06EL20,1,0xC010,G:\Experimente\CoScience\Tasks\Logfiles\,2022_Mar_01_0938,GoNoGo,2020.1.3,59.94645477052368,
IN DIESEM BLOCK KÖNNEN SIE EINFACH ENTSPANNT AN DIE AUFGABE HERANGEHEN. SIE SOLLEN SICH NICHT VERAUSGABEN.,100,Go,go,4,0,0,0,0,0,0,1,1,1,,,,,,118.70199465819678,119.20242522292392,119.18574258996887,119.28583021980921,4,1,119.18574258996887,None,119.28583021980921,None,0.9592441313667223,119.8530044433337,None,119.8530044433337,None,0.6407558686332777,,,,,,,,,,,,,,,,,,,,,,,,,,,,,,,,,,,,,,,,,,,,,,,,,,,,,,AU06EL20,1,0xC010,G:\Experimente\CoScience\Tasks\Logfiles\,2022_Mar_01_0938,GoNoGo,2020.1.3,59.94645477052368,
IN DIESEM BLOCK KÖNNEN SIE EINFACH ENTSPANNT AN DIE AUFGABE HERANGEHEN. SIE SOLLEN SICH NICHT VERAUSGABEN.,100,NoGo,nogo,None,0,0,0,0,0,0,2,2,2,,,,,,120.82048397109065,121.32090957673972,121.30422840233587,121.40431428191368,None,1,121.30422840233587,None,121.40431428191368,None,0.9,122.00483130963948,None,122.00483130963948,None,,,,,,,,,,,,,,,,,,,,,,,,,,,,,,,,,,,,,,,,,,,,,,,,,,,,,,,AU06EL20,1,0xC010,G:\Experimente\CoScience\Tasks\Logfiles\,2022_Mar_01_0938,GoNoGo,2020.1.3,59.94645477052368,
IN DIESEM BLOCK KÖNNEN SIE EINFACH ENTSPANNT AN DIE AUFGABE HERANGEHEN. SIE SOLLEN SICH NICHT VERAUSGABEN.,100,Go,go,4,0,0,0,0,0,1,0,3,1,,,,,,122.90560539267608,123.40603449885202,123.38935274102914,123.4894380371843,4,1,123.38935274102914,None,123.4894380371843,None,1,123.68962554870632,None,123.68962554870632,None,0.2691012048799166,,,,,,,,,,,,,,,,,,,,,,,,,,,,,,,,,,,,,,,,,,,,,,,,,,,,,,AU06EL20,1,0xC010,G:\Experimente\CoScience\Tasks\Logfiles\,2022_Mar_01_0938,GoNoGo,2020.1.3,59.94645477052368,
IN DIESEM BLOCK KÖNNEN SIE EINFACH ENTSPANNT AN DIE AUFGABE HERANGEHEN. SIE SOLLEN SICH NICHT VERAUSGABEN.,100,Go,go,4,0,0,0,0,0,1,1,4,1,,,,,,124.69085102460303,125.19128013077898,125.17460974966525,125.27469271213704,4,1,125.17460974966525,None,125.27469271213704,None,1,125.47485805365977,None,125.47485805365977,None,0.2728336409909389,,,,,,,,,,,,,,,,,,,,,,,,,,,,,,,,,,,,,,,,,,,,,,,,,,,,,,AU06EL20,1,0xC010,G:\Experimente\CoScience\Tasks\Logfiles\,2022_Mar_01_0938,GoNoGo,2020.1.3,59.94645477052368,
IN DIESEM BLOCK KÖNNEN SIE EINFACH ENTSPANNT AN DIE AUFGABE HERANGEHEN. SIE SOLLEN SICH NICHT VERAUSGABEN.,100,Go,go,4,0,0,0,0,0,1,2,5,0,,,,,,126.47574397851167,126.97614566389711,126.95946507291592,127.05955036907108,4,1,126.95946507291592,None,127.05955036907108,None,1,127.35980946635573,None,127.35980946635573,None,0.3789380920261465,,,,,,,,,,,,,,,,,,,,,,,,,,,,,,,,,,,,,,,,,,,,,,,,,,,,,,AU06EL20,1,0xC010,G:\Experimente\CoScience\Tasks\Logfiles\,2022_Mar_01_0938,GoNoGo,2020.1.3,59.94645477052368,
IN DIESEM BLOCK KÖNNEN SIE EINFACH ENTSPANNT AN DIE AUFGABE HERANGEHEN. SIE SOLLEN SICH NICHT VERAUSGABEN.,100,NoGo,nogo,None,0,0,0,0,0,2,0,6,2,,,,,,128.3606703041023,128.86109853514608,128.84441852758573,128.94450615742608,None,1,128.84441852758573,None,128.94450615742608,None,0.9,129.54502376857272,None,129.54502376857272,None,,,,,,,,,,,,,,,,,,,,,,,,,,,,,,,,,,,,,,,,,,,,,,,,,,,,,,,AU06EL20,1,0xC010,G:\Experimente\CoScience\Tasks\Logfiles\,2022_Mar_01_0938,GoNoGo,2020.1.3,59.94645477052368,
IN DIESEM BLOCK KÖNNEN SIE EINFACH ENTSPANNT AN DIE AUFGABE HERANGEHEN. SIE SOLLEN SICH NICHT VERAUSGABEN.,100,NoGo,nogo,None,0,0,0,0,0,2,1,7,2,,,,,,130.44579435108426,130.94622549923224,130.92954228285635,131.02962670388115,None,1,130.92954228285635,None,131.02962670388115,None,0.9,131.63014343989744,None,131.63014343989744,None,,,,,,,,,,,,,,,,,,,,,,,,,,,,,,,,,,,,,,,,,,,,,,,,,,,,,,,AU06EL20,1,0xC010,G:\Experimente\CoScience\Tasks\Logfiles\,2022_Mar_01_0938,GoNoGo,2020.1.3,59.94645477052368,
IN DIESEM BLOCK KÖNNEN SIE EINFACH ENTSPANNT AN DIE AUFGABE HERANGEHEN. SIE SOLLEN SICH NICHT VERAUSGABEN.,100,Go,go,4,0,0,0,0,0,2,2,8,0,,,,,,132.5309169395132,133.0313469208195,133.01466545470612,133.11475016744225,4,1,133.01466545470612,None,133.11475016744225,None,1,133.2482001460885,None,133.2482001460885,None,0.20366936829486804,,,,,,,,,,,,,,,,,,,,,,,,,,,,,,,,,,,,,,,,,,,,,,,,,,,,,,AU06EL20,1,0xC010,G:\Experimente\CoScience\Tasks\Logfiles\,2022_Mar_01_0938,GoNoGo,2020.1.3,59.94645477052368,
IN DIESEM BLOCK KÖNNEN SIE EINFACH ENTSPANNT AN DIE AUFGABE HERANGEHEN. SIE SOLLEN SICH NICHT VERAUSGABEN.,100,Go,go,4,0,0,0,0,0,3,0,9,1,,,,,,134.24906040041242,134.74948921487885,134.73280833218632,134.83289362834148,4,1,134.73280833218632,None,134.83289362834148,None,1,134.96634302356688,None,134.96634302356688,None,0.21550960661079444,,,,,,,,,,,,,,,,,,,,,,,,,,,,,,,,,,,,,,,,,,,,,,,,,,,,,,AU06EL20,1,0xC010,G:\Experimente\CoScience\Tasks\Logfiles\,2022_Mar_01_0938,GoNoGo,2020.1.3,59.94645477052368,
IN DIESEM BLOCK KÖNNEN SIE EINFACH ENTSPANNT AN DIE AUFGABE HERANGEHEN. SIE SOLLEN SICH NICHT VERAUSGABEN.,100,NoGo,nogo,None,0,0,0,0,0,3,1,10,2,,,,,,135.96722223907636,136.46763471775193,136.45094916769085,136.5510356306895,None,1,136.45094916769085,None,136.5510356306895,None,0.9,137.15155207499447,None,137.15155207499447,None,,,,,,,,,,,,,,,,,,,,,,,,,,,,,,,,,,,,,,,,,,,,,,,,,,,,,,,AU06EL20,1,0xC010,G:\Experimente\CoScience\Tasks\Logfiles\,2022_Mar_01_0938,GoNoGo,2020.1.3,59.94645477052368,
IN DIESEM BLOCK KÖNNEN SIE EINFACH ENTSPANNT AN DIE AUFGABE HERANGEHEN. SIE SOLLEN SICH NICHT VERAUSGABEN.,100,Go,go,4,0,0,0,0,0,3,2,11,0,,,,,,138.05234949487385,138.55275613933918,138.53607379809364,138.63616084451314,4,1,138.53607379809364,None,138.63616084451314,None,1,138.76962219987035,None,138.76962219987035,None,0.21118908209246,,,,,,,,,,,,,,,,,,,,,,,,,,,,,,,,,,,,,,,,,,,,,,,,,,,,,,AU06EL20,1,0xC010,G:\Experimente\CoScience\Tasks\Logfiles\,2022_Mar_01_0938,GoNoGo,2020.1.3,59.94645477052368,
IN DIESEM BLOCK KÖNNEN SIE EINFACH ENTSPANNT AN DIE AUFGABE HERANGEHEN. SIE SOLLEN SICH NICHT VERAUSGABEN.,100,Go,go,4,0,0,0,0,0,4,0,12,0,,,,,,139.7704707857738,140.27090222563493,140.2542163838625,140.35430576396539,4,1,140.2542163838625,None,140.35430576396539,None,1,140.57115578041885,None,140.57115578041885,None,0.2910255841798062,,,,,,,,,,,,,,,,,,,,,,,,,,,,,,,,,,,,,,,,,,,,,,,,,,,,,,AU06EL20,1,0xC010,G:\Experimente\CoScience\Tasks\Logfiles\,2022_Mar_01_0938,GoNoGo,2020.1.3,59.94645477052368,
IN DIESEM BLOCK KÖNNEN SIE EINFACH ENTSPANNT AN DIE AUFGABE HERANGEHEN. SIE SOLLEN SICH NICHT VERAUSGABEN.,100,Go,go,4,0,0,0,0,0,4,1,13,0,,,,,,141.57201545132193,142.07244834973426,142.05576279967318,142.15584955438317,4,1,142.05576279967318,None,142.15584955438317,None,1,142.30597808203856,None,142.30597808203856,None,0.21944944889946782,,,,,,,,,,,,,,,,,,,,,,,,,,,,,,,,,,,,,,,,,,,,,,,,,,,,,,AU06EL20,1,0xC010,G:\Experimente\CoScience\Tasks\Logfiles\,2022_Mar_01_0938,GoNoGo,2020.1.3,59.94645477052368,
IN DIESEM BLOCK KÖNNEN SIE EINFACH ENTSPANNT AN DIE AUFGABE HERANGEHEN. SIE SOLLEN SICH NICHT VERAUSGABEN.,100,NoGo,nogo,None,0,0,0,0,0,4,2,14,2,,,,,,143.30683862807382,143.80726860938012,143.7906075630035,143.89067681508095,None,1,143.7906075630035,None,143.89067681508095,None,0.9,144.4911929676764,None,144.4911929676764,None,,,,,,,,,,,,,,,,,,,,,,,,,,,,,,,,,,,,,,,,,,,,,,,,,,,,,,,AU06EL20,1,0xC010,G:\Experimente\CoScience\Tasks\Logfiles\,2022_Mar_01_0938,GoNoGo,2020.1.3,59.94645477052368,
IN DIESEM BLOCK KÖNNEN SIE EINFACH ENTSPANNT AN DIE AUFGABE HERANGEHEN. SIE SOLLEN SICH NICHT VERAUSGABEN.,100,NoGo,nogo,None,2,0,0,0,0,,,,,0,0,0,2,,,,,,,,,,,,0.9,156.8017794925163,None,156.8017794925163,None,,145.42532969123022,None,102,0,155.63409786771263,156.13452230652,156.10115995771412,156.2012627565,None,1,156.10115995771412,None,156.2012627565,None,156.10115995771412,None,False,None,None,None,None,None,None,None,None,,,,,,,,,,,,,,,,,,,,,,,,,,,,,AU06EL20,1,0xC010,G:\Experimente\CoScience\Tasks\Logfiles\,2022_Mar_01_0938,GoNoGo,2020.1.3,59.94645477052368,
IN DIESEM BLOCK KÖNNEN SIE EINFACH ENTSPANNT AN DIE AUFGABE HERANGEHEN. SIE SOLLEN SICH NICHT VERAUSGABEN.,100,Go,go,4,1,0,0,0,0,,,,,0,1,1,1,,,,,,,,,,,,1,158.4870019626287,None,158.4870019626287,None,,,,101,111,157.71921228824613,158.21964897889666,158.20296809620413,158.30305047525508,4,1,158.20296809620413,None,158.30305047525508,None,158.20296809620413,None,False,None,None,None,None,None,None,None,None,0.2370506782863231,,,,,,,,,,,,,,,,,,,,,,,,,,,,AU06EL20,1,0xC010,G:\Experimente\CoScience\Tasks\Logfiles\,2022_Mar_01_0938,GoNoGo,2020.1.3,59.94645477052368,
IN DIESEM BLOCK KÖNNEN SIE EINFACH ENTSPANNT AN DIE AUFGABE HERANGEHEN. SIE SOLLEN SICH NICHT VERAUSGABEN.,100,Go,go,4,1,0,0,0,0,,,,,0,2,2,1,,,,,,,,,,,,1,160.2718890823253,None,160.2718890823253,None,,,,101,111,159.48740102261945,159.9878327541901,159.97115128807673,160.07123833449623,4,1,159.97115128807673,None,160.07123833449623,None,159.97115128807673,None,False,None,None,None,None,None,None,None,None,0.26583112994740077,,,,,,,,,,,,,,,,,,,,,,,,,,,,AU06EL20,1,0xC010,G:\Experimente\CoScience\Tasks\Logfiles\,2022_Mar_01_0938,GoNoGo,2020.1.3,59.94645477052368,
IN DIESEM BLOCK KÖNNEN SIE EINFACH ENTSPANNT AN DIE AUFGABE HERANGEHEN. SIE SOLLEN SICH NICHT VERAUSGABEN.,100,Go,go,4,1,0,0,0,0,,,,,1,0,3,0,,,,,,,,,,,,1,162.09011492227546,None,162.09011492227546,None,,,,101,111,161.2722691811323,161.77270587178282,161.75601827974788,161.85610328419352,4,1,161.75601827974788,None,161.85610328419352,None,161.75601827974788,None,False,None,None,None,None,None,None,None,None,0.291944472319301,,,,,,,,,,,,,,,,,,,,,,,,,,,,AU06EL20,1,0xC010,G:\Experimente\CoScience\Tasks\Logfiles\,2022_Mar_01_0938,GoNoGo,2020.1.3,59.94645477052368,
IN DIESEM BLOCK KÖNNEN SIE EINFACH ENTSPANNT AN DIE AUFGABE HERANGEHEN. SIE SOLLEN SICH NICHT VERAUSGABEN.,100,Go,go,4,1,0,0,0,0,,,,,1,1,4,1,,,,,,,,,,,,1,163.82491184508035,None,163.82491184508035,None,,,,101,111,163.09049706305814,163.59092558581324,163.5742458699624,163.67432999927587,4,1,163.5742458699624,None,163.67432999927587,None,163.5742458699624,None,False,None,None,None,None,None,None,None,None,0.20970165014841768,,,,,,,,,,,,,,,,,,,,,,,,,,,,AU06EL20,1,0xC010,G:\Experimente\CoScience\Tasks\Logfiles\,2022_Mar_01_0938,GoNoGo,2020.1.3,59.94645477052368,
IN DIESEM BLOCK KÖNNEN SIE EINFACH ENTSPANNT AN DIE AUFGABE HERANGEHEN. SIE SOLLEN SICH NICHT VERAUSGABEN.,100,NoGo,nogo,None,2,0,0,0,0,,,,,1,2,5,2,,,,,,,,,,,,1,165.55976419288345,None,165.55976419288345,None,,,,102,120,164.82532199007255,165.3257656817732,165.30906875500295,165.4091566765528,4,0,165.30906875500295,None,165.4091566765528,None,165.30906875500295,None,False,None,None,None,None,None,None,None,None,0.2048548798502452,,,,,,,,,,,,,,,,,,,,,,,,,,,,AU06EL20,1,0xC010,G:\Experimente\CoScience\Tasks\Logfiles\,2022_Mar_01_0938,GoNoGo,2020.1.3,59.94645477052368,
IN DIESEM BLOCK KÖNNEN SIE EINFACH ENTSPANNT AN DIE AUFGABE HERANGEHEN. SIE SOLLEN SICH NICHT VERAUSGABEN.,100,Go,go,4,1,0,0,0,0,,,,,2,0,6,1,,,,,,,,,,,,1,167.2779038615463,None,167.2779038615463,None,,,,101,111,166.5601437082696,167.0605722310247,167.04389105662085,167.14397810304035,4,1,167.04389105662085,None,167.14397810304035,None,167.04389105662085,None,False,None,None,None,None,None,None,None,None,0.19000331383176672,,,,,,,,,,,,,,,,,,,,,,,,,,,,AU06EL20,1,0xC010,G:\Experimente\CoScience\Tasks\Logfiles\,2022_Mar_01_0938,GoNoGo,2020.1.3,59.94645477052368,
IN DIESEM BLOCK KÖNNEN SIE EINFACH ENTSPANNT AN DIE AUFGABE HERANGEHEN. SIE SOLLEN SICH NICHT VERAUSGABEN.,100,Go,go,4,1,0,0,0,0,,,,,2,1,7,1,,,,,,,,,,,,1,169.0627702697966,None,169.0627702697966,None,,,,101,111,168.2782877525915,168.7787191924508,168.76203510094274,168.86212185565273,4,1,168.76203510094274,None,168.86212185565273,None,168.76203510094274,None,False,None,None,None,None,None,None,None,None,0.25283455112730735,,,,,,,,,,,,,,,,,,,,,,,,,,,,AU06EL20,1,0xC010,G:\Experimente\CoScience\Tasks\Logfiles\,2022_Mar_01_0938,GoNoGo,2020.1.3,59.94645477052368,
IN DIESEM BLOCK KÖNNEN SIE EINFACH ENTSPANNT AN DIE AUFGABE HERANGEHEN. SIE SOLLEN SICH NICHT VERAUSGABEN.,100,Go,go,4,1,0,0,0,0,,,,,2,2,8,0,,,,,,,,,,,,1,170.99776753938568,None,170.99776753938568,None,,,,101,111,170.06315182715844,170.56358064162305,170.5469009257722,170.64701189245352,4,1,170.5469009257722,None,170.64701189245352,None,170.5469009257722,None,False,None,None,None,None,None,None,None,None,0.4129392868726427,,,,,,,,,,,,,,,,,,,,,,,,,,,,AU06EL20,1,0xC010,G:\Experimente\CoScience\Tasks\Logfiles\,2022_Mar_01_0938,GoNoGo,2020.1.3,59.94645477052368,
IN DIESEM BLOCK KÖNNEN SIE EINFACH ENTSPANNT AN DIE AUFGABE HERANGEHEN. SIE SOLLEN SICH NICHT VERAUSGABEN.,100,Go,go,4,1,0,0,0,0,,,,,3,0,9,0,,,,,,,,,,,,1,172.84936331261815,None,172.84936331261815,None,,,,101,111,171.99814617964148,172.49858082831815,172.4818944031249,172.58198378322777,4,1,172.4818944031249,None,172.58198378322777,None,172.4818944031249,None,False,None,None,None,None,None,None,None,None,0.33191435612570785,,,,,,,,,,,,,,,,,,,,,,,,,,,,AU06EL20,1,0xC010,G:\Experimente\CoScience\Tasks\Logfiles\,2022_Mar_01_0938,GoNoGo,2020.1.3,59.94645477052368,
IN DIESEM BLOCK KÖNNEN SIE EINFACH ENTSPANNT AN DIE AUFGABE HERANGEHEN. SIE SOLLEN SICH NICHT VERAUSGABEN.,100,Go,go,4,1,0,0,0,0,,,,,3,1,10,1,,,,,,,,,,,,1,174.66758185980507,None,174.66758185980507,None,,,,101,111,173.84972649221527,174.3501856445746,174.33348463385664,174.43357168027615,4,1,174.33348463385664,None,174.43357168027615,None,174.33348463385664,None,False,None,None,None,None,None,None,None,None,0.29131262733062613,,,,,,,,,,,,,,,,,,,,,,,,,,,,AU06EL20,1,0xC010,G:\Experimente\CoScience\Tasks\Logfiles\,2022_Mar_01_0938,GoNoGo,2020.1.3,59.94645477052368,
IN DIESEM BLOCK KÖNNEN SIE EINFACH ENTSPANNT AN DIE AUFGABE HERANGEHEN. SIE SOLLEN SICH NICHT VERAUSGABEN.,100,Go,go,4,1,0,0,0,0,,,,,3,2,11,0,,,,,,,,,,,,0.9,176.8523405101896,None,176.8523405101896,None,,,,101,0,175.6679637088764,176.1683933984732,176.15171222407116,176.25179781193765,None,0,176.15171222407116,None,176.25179781193765,None,176.15171222407116,None,False,None,None,None,None,None,None,None,None,,,,,,,,,,,,,,,,,,,,,,,,,,,,,AU06EL20,1,0xC010,G:\Experimente\CoScience\Tasks\Logfiles\,2022_Mar_01_0938,GoNoGo,2020.1.3,59.94645477052368,
IN DIESEM BLOCK KÖNNEN SIE EINFACH ENTSPANNT AN DIE AUFGABE HERANGEHEN. SIE SOLLEN SICH NICHT VERAUSGABEN.,100,NoGo,nogo,None,2,0,0,0,0,,,,,4,0,12,2,,,,,,,,,,,,0.9,178.9374572644083,None,178.9374572644083,None,,,,102,0,177.75309125638523,178.25352152940286,178.23683685447395,178.33692390089345,None,1,178.23683685447395,None,178.33692390089345,None,178.23683685447395,None,False,None,None,None,None,None,None,None,None,,,,,,,,,,,,,,,,,,,,,,,,,,,,,AU06EL20,1,0xC010,G:\Experimente\CoScience\Tasks\Logfiles\,2022_Mar_01_0938,GoNoGo,2020.1.3,59.94645477052368,
IN DIESEM BLOCK KÖNNEN SIE EINFACH ENTSPANNT AN DIE AUFGABE HERANGEHEN. SIE SOLLEN SICH NICHT VERAUSGABEN.,100,Go,go,4,1,0,0,0,0,,,,,4,1,13,1,,,,,,,,,,,,1,180.60598659998504,None,180.60598659998504,None,,,,101,111,179.83821355310283,180.33864265927878,180.32196060974456,180.42204619761105,4,1,180.32196060974456,None,180.42204619761105,None,180.32196060974456,None,False,None,None,None,None,None,None,None,None,0.23775195037705998,,,,,,,,,,,,,,,,,,,,,,,,,,,,AU06EL20,1,0xC010,G:\Experimente\CoScience\Tasks\Logfiles\,2022_Mar_01_0938,GoNoGo,2020.1.3,59.94645477052368,
IN DIESEM BLOCK KÖNNEN SIE EINFACH ENTSPANNT AN DIE AUFGABE HERANGEHEN. SIE SOLLEN SICH NICHT VERAUSGABEN.,100,Go,go,4,1,0,0,0,0,,,,,4,2,14,0,,,,,,,,,,,,1,182.4075668542173,None,182.4075668542173,None,,,,101,111,181.60639849523977,182.10682818483656,182.09015051095957,182.19023697395824,4,1,182.09015051095957,None,182.19023697395824,None,182.09015051095957,None,False,None,None,None,None,None,None,None,None,0.27554334001615644,,,,,,,,,,,,,,,,,,,,,,,,,,,,AU06EL20,1,0xC010,G:\Experimente\CoScience\Tasks\Logfiles\,2022_Mar_01_0938,GoNoGo,2020.1.3,59.94645477052368,
IN DIESEM BLOCK KÖNNEN SIE EINFACH ENTSPANNT AN DIE AUFGABE HERANGEHEN. SIE SOLLEN SICH NICHT VERAUSGABEN.,100,NoGo,nogo,None,2,0,0,0,0,,,,,5,0,15,2,,,,,,,,,,,,0.9,184.5923266714417,None,184.5923266714417,None,,,,102,0,183.40794753644514,183.90837868459494,183.8917042195335,183.99178134779504,None,1,183.8917042195335,None,183.99178134779504,None,183.8917042195335,None,False,None,None,None,None,None,None,None,None,,,,,,,,,,,,,,,,,,,,,,,,,,,,,AU06EL20,1,0xC010,G:\Experimente\CoScience\Tasks\Logfiles\,2022_Mar_01_0938,GoNoGo,2020.1.3,59.94645477052368,
IN DIESEM BLOCK KÖNNEN SIE EINFACH ENTSPANNT AN DIE AUFGABE HERANGEHEN. SIE SOLLEN SICH NICHT VERAUSGABEN.,100,Go,go,4,1,0,0,0,0,,,,,5,1,16,0,,,,,,,,,,,,1,186.32759762384194,None,186.32759762384194,None,,,,101,111,185.4930704165854,185.99350098131436,185.9768198069105,186.07690685333,4,1,185.9768198069105,None,186.07690685333,None,185.9768198069105,None,False,None,None,None,None,None,None,None,None,0.31382917898736196,,,,,,,,,,,,,,,,,,,,,,,,,,,,AU06EL20,1,0xC010,G:\Experimente\CoScience\Tasks\Logfiles\,2022_Mar_01_0938,GoNoGo,2020.1.3,59.94645477052368,
IN DIESEM BLOCK KÖNNEN SIE EINFACH ENTSPANNT AN DIE AUFGABE HERANGEHEN. SIE SOLLEN SICH NICHT VERAUSGABEN.,100,Go,go,4,1,0,0,0,0,,,,,5,2,17,1,,,,,,,,,,,,1,188.09578489966225,None,188.09578489966225,None,,,,101,111,187.32798239001932,187.82841003764224,187.8117306135009,187.91181240913102,4,1,187.8117306135009,None,187.91181240913102,None,187.8117306135009,None,False,None,None,None,None,None,None,None,None,0.24989410907983256,,,,,,,,,,,,,,,,,,,,,,,,,,,,AU06EL20,1,0xC010,G:\Experimente\CoScience\Tasks\Logfiles\,2022_Mar_01_0938,GoNoGo,2020.1.3,59.94645477052368,
IN DIESEM BLOCK KÖNNEN SIE EINFACH ENTSPANNT AN DIE AUFGABE HERANGEHEN. SIE SOLLEN SICH NICHT VERAUSGABEN.,100,NoGo,nogo,None,2,0,0,0,0,,,,,6,0,18,2,,,,,,,,,,,,1,189.81391494187847,None,189.81391494187847,None,,,,102,120,189.09616879070745,189.5965952714887,189.57991293024315,189.68001222850398,4,0,189.57991293024315,None,189.68001222850398,None,189.57991293024315,None,False,None,None,None,None,None,None,None,None,0.19269113456721243,,,,,,,,,,,,,,,,,,,,,,,,,,,,AU06EL20,1,0xC010,G:\Experimente\CoScience\Tasks\Logfiles\,2022_Mar_01_0938,GoNoGo,2020.1.3,59.94645477052368,
IN DIESEM BLOCK KÖNNEN SIE EINFACH ENTSPANNT AN DIE AUFGABE HERANGEHEN. SIE SOLLEN SICH NICHT VERAUSGABEN.,100,Go,go,4,1,0,0,0,0,,,,,6,1,19,0,,,,,,,,,,,,0.9,191.9986852606835,None,191.9986852606835,None,,,,101,0,190.8142964992403,191.31473523186287,191.29807156009156,191.398140812169,None,0,191.29807156009156,None,191.398140812169,None,191.29807156009156,None,False,None,None,None,None,None,None,None,None,,,,,,,,,,,,,,,,,,,,,,,,,,,,,AU06EL20,1,0xC010,G:\Experimente\CoScience\Tasks\Logfiles\,2022_Mar_01_0938,GoNoGo,2020.1.3,59.94645477052368,
IN DIESEM BLOCK KÖNNEN SIE EINFACH ENTSPANNT AN DIE AUFGABE HERANGEHEN. SIE SOLLEN SICH NICHT VERAUSGABEN.,100,NoGo,nogo,None,2,0,0,0,0,,,,,6,2,20,2,,,,,,,,,,,,0.9,194.08381076621845,None,194.08381076621845,None,,,,102,0,192.89943104780104,193.39986073739783,193.3831798547053,193.48326515086046,None,1,193.3831798547053,None,193.48326515086046,None,193.3831798547053,None,False,None,None,None,None,None,None,None,None,,,,,,,,,,,,,,,,,,,,,,,,,,,,,AU06EL20,1,0xC010,G:\Experimente\CoScience\Tasks\Logfiles\,2022_Mar_01_0938,GoNoGo,2020.1.3,59.94645477052368,
IN DIESEM BLOCK KÖNNEN SIE EINFACH ENTSPANNT AN DIE AUFGABE HERANGEHEN. SIE SOLLEN SICH NICHT VERAUSGABEN.,100,Go,go,4,1,0,0,0,0,,,,,7,0,21,1,,,,,,,,,,,,1,195.8690960707754,None,195.8690960707754,None,,,,101,111,194.984555094783,195.48498449266845,195.46831031931833,195.56838803100072,4,1,195.46831031931833,None,195.56838803100072,None,195.46831031931833,None,False,None,None,None,None,None,None,None,None,0.3672256229183404,,,,,,,,,,,,,,,,,,,,,,,,,,,,AU06EL20,1,0xC010,G:\Experimente\CoScience\Tasks\Logfiles\,2022_Mar_01_0938,GoNoGo,2020.1.3,59.94645477052368,
IN DIESEM BLOCK KÖNNEN SIE EINFACH ENTSPANNT AN DIE AUFGABE HERANGEHEN. SIE SOLLEN SICH NICHT VERAUSGABEN.,100,NoGo,nogo,None,2,0,0,0,0,,,,,7,1,22,2,,,,,,,,,,,,0.9,198.05387047352815,None,198.05387047352815,None,,,,102,0,196.86950563234677,197.36993707220608,197.35325531438139,197.45333565145847,None,1,197.35325531438139,None,197.45333565145847,None,197.35325531438139,None,False,None,None,None,None,None,None,None,None,,,,,,,,,,,,,,,,,,,,,,,,,,,,,AU06EL20,1,0xC010,G:\Experimente\CoScience\Tasks\Logfiles\,2022_Mar_01_0938,GoNoGo,2020.1.3,59.94645477052368,
IN DIESEM BLOCK KÖNNEN SIE EINFACH ENTSPANNT AN DIE AUFGABE HERANGEHEN. SIE SOLLEN SICH NICHT VERAUSGABEN.,100,Go,go,4,1,0,0,0,0,,,,,7,2,23,0,,,,,,,,,,,,1,199.77245295876128,None,199.77245295876128,None,,,,101,111,198.95462997103823,199.45506024405586,199.43837702767996,199.53848274357188,4,1,199.43837702767996,None,199.53848274357188,None,199.43837702767996,None,False,None,None,None,None,None,None,None,None,0.29709841379553836,,,,,,,,,,,,,,,,,,,,,,,,,,,,AU06EL20,1,0xC010,G:\Experimente\CoScience\Tasks\Logfiles\,2022_Mar_01_0938,GoNoGo,2020.1.3,59.94645477052368,
IN DIESEM BLOCK KÖNNEN SIE EINFACH ENTSPANNT AN DIE AUFGABE HERANGEHEN. SIE SOLLEN SICH NICHT VERAUSGABEN.,100,Go,go,4,1,0,0,0,0,,,,,8,0,24,0,,,,,,,,,,,,1,201.5739976243094,None,201.5739976243094,None,,,,101,111,200.77285347730503,201.27328841769122,201.25660665986834,201.35669312286518,4,1,201.25660665986834,None,201.35669312286518,None,201.25660665986834,None,False,None,None,None,None,None,None,None,None,0.27584555211615225,,,,,,,,,,,,,,,,,,,,,,,,,,,,AU06EL20,1,0xC010,G:\Experimente\CoScience\Tasks\Logfiles\,2022_Mar_01_0938,GoNoGo,2020.1.3,59.94645477052368,
IN DIESEM BLOCK KÖNNEN SIE EINFACH ENTSPANNT AN DIE AUFGABE HERANGEHEN. SIE SOLLEN SICH NICHT VERAUSGABEN.,100,Go,go,4,1,0,0,0,0,,,,,8,1,25,0,,,,,,,,,,,,1,203.3755732111731,None,203.3755732111731,None,,,,101,111,202.57440806101113,203.0748351252132,203.05815395080936,203.1582415806497,4,1,203.05815395080936,None,203.1582415806497,None,203.05815395080936,None,False,None,None,None,None,None,None,None,None,0.2682701216072019,,,,,,,,,,,,,,,,,,,,,,,,,,,,AU06EL20,1,0xC010,G:\Experimente\CoScience\Tasks\Logfiles\,2022_Mar_01_0938,GoNoGo,2020.1.3,59.94645477052368,
IN DIESEM BLOCK KÖNNEN SIE EINFACH ENTSPANNT AN DIE AUFGABE HERANGEHEN. SIE SOLLEN SICH NICHT VERAUSGABEN.,100,Go,go,4,1,0,0,0,0,,,,,8,2,26,0,,,,,,,,,,,,1,205.14372956567786,None,205.14372956567786,None,,,,101,111,204.37595389340095,204.87638212444472,204.85970970135713,204.95978712133,4,1,204.85970970135713,None,204.95978712133,None,204.85970970135713,None,False,None,None,None,None,None,None,None,None,0.2496832023753086,,,,,,,,,,,,,,,,,,,,,,,,,,,,AU06EL20,1,0xC010,G:\Experimente\CoScience\Tasks\Logfiles\,2022_Mar_01_0938,GoNoGo,2020.1.3,59.94645477052368,
IN DIESEM BLOCK KÖNNEN SIE EINFACH ENTSPANNT AN DIE AUFGABE HERANGEHEN. SIE SOLLEN SICH NICHT VERAUSGABEN.,100,NoGo,nogo,None,2,0,0,0,0,,,,,9,0,27,2,,,,,,,,,,,,0.9,207.328468671456,None,207.328468671456,None,,,,102,0,206.14414175264392,206.64456794171383,206.62788880928383,206.7279729385973,None,1,206.62788880928383,None,206.7279729385973,None,206.62788880928383,None,False,None,None,None,None,None,None,None,None,,,,,,,,,,,,,,,,,,,,,,,,,,,,,AU06EL20,1,0xC010,G:\Experimente\CoScience\Tasks\Logfiles\,2022_Mar_01_0938,GoNoGo,2020.1.3,59.94645477052368,
IN DIESEM BLOCK KÖNNEN SIE EINFACH ENTSPANNT AN DIE AUFGABE HERANGEHEN. SIE SOLLEN SICH NICHT VERAUSGABEN.,100,Go,go,4,1,0,0,0,0,,,,,9,1,28,0,,,,,,,,,,,,1,208.99706655900627,None,208.99706655900627,None,,,,101,111,208.22926288251983,208.72969315553746,208.71301518994915,208.81309698557925,4,1,208.71301518994915,None,208.81309698557925,None,208.71301518994915,None,False,None,None,None,None,None,None,None,None,0.23834849839113303,,,,,,,,,,,,,,,,,,,,,,,,,,,,AU06EL20,1,0xC010,G:\Experimente\CoScience\Tasks\Logfiles\,2022_Mar_01_0938,GoNoGo,2020.1.3,59.94645477052368,
IN DIESEM BLOCK KÖNNEN SIE EINFACH ENTSPANNT AN DIE AUFGABE HERANGEHEN. SIE SOLLEN SICH NICHT VERAUSGABEN.,100,Go,go,4,1,0,0,0,0,,,,,9,2,29,0,,,,,,,,,,,,1,210.8152626444844,None,210.8152626444844,None,,,,101,111,209.9974495749193,210.4978769308309,210.48119575642886,210.5812819277162,4,1,210.48119575642886,None,210.5812819277162,None,210.48119575642886,None,False,None,None,None,None,None,None,None,None,0.29212708310478774,,,,,,,,,,,,,,,,,,,,,,,,,,,,AU06EL20,1,0xC010,G:\Experimente\CoScience\Tasks\Logfiles\,2022_Mar_01_0938,GoNoGo,2020.1.3,59.94645477052368,
IN DIESEM BLOCK KÖNNEN SIE EINFACH ENTSPANNT AN DIE AUFGABE HERANGEHEN. SIE SOLLEN SICH NICHT VERAUSGABEN.,100,Go,go,4,1,0,0,0,0,,,,,10,0,30,0,,,,,,,,,,,,1,212.6335243648282,None,212.6335243648282,None,,,,101,111,211.81567979052852,212.3161278578882,212.29942451348506,212.39951185161408,4,1,212.29942451348506,None,212.39951185161408,None,212.29942451348506,None,False,None,None,None,None,None,None,None,None,0.2929001159827749,,,,,,,,,,,,,,,,,,,,,,,,,,,,AU06EL20,1,0xC010,G:\Experimente\CoScience\Tasks\Logfiles\,2022_Mar_01_0938,GoNoGo,2020.1.3,59.94645477052368,
IN DIESEM BLOCK KÖNNEN SIE EINFACH ENTSPANNT AN DIE AUFGABE HERANGEHEN. SIE SOLLEN SICH NICHT VERAUSGABEN.,100,NoGo,nogo,None,2,0,0,0,0,,,,,10,1,31,2,,,,,,,,,,,,0.9,214.81827134679224,None,214.81827134679224,None,,,,102,0,213.6339041719275,214.13433386152428,214.11765297882994,214.2177435257763,None,1,214.11765297882994,None,214.2177435257763,None,214.11765297882994,None,False,None,None,None,None,None,None,None,None,,,,,,,,,,,,,,,,,,,,,,,,,,,,,AU06EL20,1,0xC010,G:\Experimente\CoScience\Tasks\Logfiles\,2022_Mar_01_0938,GoNoGo,2020.1.3,59.94645477052368,
IN DIESEM BLOCK KÖNNEN SIE EINFACH ENTSPANNT AN DIE AUFGABE HERANGEHEN. SIE SOLLEN SICH NICHT VERAUSGABEN.,100,Go,go,4,1,0,0,0,0,,,,,10,2,32,1,,,,,,,,,,,,1,216.50350198479828,None,216.50350198479828,None,,,,101,111,215.71902880233029,216.2194579085044,216.20277673410237,216.30286261367837,4,1,216.20277673410237,None,216.30286261367837,None,216.20277673410237,None,False,None,None,None,None,None,None,None,None,0.25248012284464494,,,,,,,,,,,,,,,,,,,,,,,,,,,,AU06EL20,1,0xC010,G:\Experimente\CoScience\Tasks\Logfiles\,2022_Mar_01_0938,GoNoGo,2020.1.3,59.94645477052368,
IN DIESEM BLOCK KÖNNEN SIE EINFACH ENTSPANNT AN DIE AUFGABE HERANGEHEN. SIE SOLLEN SICH NICHT VERAUSGABEN.,100,Go,go,4,1,0,0,0,0,,,,,11,0,33,1,,,,,,,,,,,,1,218.33840520691592,None,218.33840520691592,None,,,,101,111,217.50390892097494,218.00432344162436,217.98764285064135,218.08773135561387,4,1,217.98764285064135,None,218.08773135561387,None,217.98764285064135,None,False,None,None,None,None,None,None,None,None,0.3085874326443445,,,,,,,,,,,,,,,,,,,,,,,,,,,,AU06EL20,1,0xC010,G:\Experimente\CoScience\Tasks\Logfiles\,2022_Mar_01_0938,GoNoGo,2020.1.3,59.94645477052368,
IN DIESEM BLOCK KÖNNEN SIE EINFACH ENTSPANNT AN DIE AUFGABE HERANGEHEN. SIE SOLLEN SICH NICHT VERAUSGABEN.,100,Go,go,4,1,0,0,0,0,,,,,11,1,34,0,,,,,,,,,,,,1,220.12327161516623,None,220.12327161516623,None,,,,101,111,219.33880630888052,219.83923541505646,219.8225618251272,219.9226424539156,4,1,219.8225618251272,None,219.9226424539156,None,219.8225618251272,None,False,None,None,None,None,None,None,None,None,0.2536469649276114,,,,,,,,,,,,,,,,,,,,,,,,,,,,AU06EL20,1,0xC010,G:\Experimente\CoScience\Tasks\Logfiles\,2022_Mar_01_0938,GoNoGo,2020.1.3,59.94645477052368,
IN DIESEM BLOCK KÖNNEN SIE EINFACH ENTSPANNT AN DIE AUFGABE HERANGEHEN. SIE SOLLEN SICH NICHT VERAUSGABEN.,100,Go,go,4,1,0,0,0,0,,,,,11,2,35,1,,,,,,,,,,,,1,221.95819992438737,None,221.95819992438737,None,,,,101,111,221.12367300884216,221.62410444870147,221.60741831521955,221.70750682019207,4,1,221.60741831521955,None,221.70750682019207,None,221.60741831521955,None,False,None,None,None,None,None,None,None,None,0.3008010954326892,,,,,,,,,,,,,,,,,,,,,,,,,,,,AU06EL20,1,0xC010,G:\Experimente\CoScience\Tasks\Logfiles\,2022_Mar_01_0938,GoNoGo,2020.1.3,59.94645477052368,
IN DIESEM BLOCK KÖNNEN SIE EINFACH ENTSPANNT AN DIE AUFGABE HERANGEHEN. SIE SOLLEN SICH NICHT VERAUSGABEN.,100,Go,go,4,1,0,0,0,0,,,,,12,0,36,0,,,,,,,,,,,,1,223.7430456211914,None,223.7430456211914,None,,,,101,111,222.9585773978015,223.45900796253045,223.44232591299442,223.5424164599408,4,1,223.44232591299442,None,223.5424164599408,None,223.44232591299442,None,False,None,None,None,None,None,None,None,None,0.2638375802507653,,,,,,,,,,,,,,,,,,,,,,,,,,,,AU06EL20,1,0xC010,G:\Experimente\CoScience\Tasks\Logfiles\,2022_Mar_01_0938,GoNoGo,2020.1.3,59.94645477052368,
IN DIESEM BLOCK KÖNNEN SIE EINFACH ENTSPANNT AN DIE AUFGABE HERANGEHEN. SIE SOLLEN SICH NICHT VERAUSGABEN.,100,NoGo,nogo,None,2,0,0,0,0,,,,,12,1,37,2,,,,,,,,,,,,0.9,225.92781331460174,None,225.92781331460174,None,,,,102,0,224.74344468118397,225.2438737873581,225.2271917378239,225.32728841069002,None,1,225.2271917378239,None,225.32728841069002,None,225.2271917378239,None,False,None,None,None,None,None,None,None,None,,,,,,,,,,,,,,,,,,,,,,,,,,,,,AU06EL20,1,0xC010,G:\Experimente\CoScience\Tasks\Logfiles\,2022_Mar_01_0938,GoNoGo,2020.1.3,59.94645477052368,
IN DIESEM BLOCK KÖNNEN SIE EINFACH ENTSPANNT AN DIE AUFGABE HERANGEHEN. SIE SOLLEN SICH NICHT VERAUSGABEN.,100,NoGo,nogo,None,2,0,0,0,0,,,,,12,2,38,2,,,,,,,,,,,,0.9,228.01291052421584,None,228.01291052421584,None,,,,102,0,226.82853634829735,227.3289972509192,227.3123178267797,227.41241245767196,None,1,227.3123178267797,None,227.41241245767196,None,227.3123178267797,None,False,None,None,None,None,None,None,None,None,,,,,,,,,,,,,,,,,,,,,,,,,,,,,AU06EL20,1,0xC010,G:\Experimente\CoScience\Tasks\Logfiles\,2022_Mar_01_0938,GoNoGo,2020.1.3,59.94645477052368,
IN DIESEM BLOCK KÖNNEN SIE EINFACH ENTSPANNT AN DIE AUFGABE HERANGEHEN. SIE SOLLEN SICH NICHT VERAUSGABEN.,100,NoGo,nogo,None,2,0,0,0,0,,,,,13,0,39,2,,,,,,,,,,,,0.9,230.09807774435467,None,230.09807774435467,None,,,,102,0,228.91369306685738,229.41412129790115,229.3974412903408,229.49753183728535,None,1,229.3974412903408,None,229.49753183728535,None,229.3974412903408,None,False,None,None,None,None,None,None,None,None,,,,,,,,,,,,,,,,,,,,,,,,,,,,,AU06EL20,1,0xC010,G:\Experimente\CoScience\Tasks\Logfiles\,2022_Mar_01_0938,GoNoGo,2020.1.3,59.94645477052368,
IN DIESEM BLOCK KÖNNEN SIE EINFACH ENTSPANNT AN DIE AUFGABE HERANGEHEN. SIE SOLLEN SICH NICHT VERAUSGABEN.,100,NoGo,nogo,None,2,0,0,0,0,,,,,13,1,40,2,,,,,,,,,,,,0.9,232.18318662238926,None,232.18318662238926,None,,,,102,0,230.99881769726017,231.49924592830394,231.48256387876972,231.58264975834572,None,1,231.48256387876972,None,231.58264975834572,None,231.48256387876972,None,False,None,None,None,None,None,None,None,None,,,,,,,,,,,,,,,,,,,,,,,,,,,,,AU06EL20,1,0xC010,G:\Experimente\CoScience\Tasks\Logfiles\,2022_Mar_01_0938,GoNoGo,2020.1.3,59.94645477052368,
IN DIESEM BLOCK KÖNNEN SIE EINFACH ENTSPANNT AN DIE AUFGABE HERANGEHEN. SIE SOLLEN SICH NICHT VERAUSGABEN.,100,Go,go,4,1,0,0,0,0,,,,,13,2,41,0,,,,,,,,,,,,1,233.90176910762239,None,233.90176910762239,None,,,,101,111,233.08394407792548,233.5843714338389,233.5676911345672,233.66777818098672,4,1,233.5676911345672,None,233.66777818098672,None,233.5676911345672,None,False,None,None,None,None,None,None,None,None,0.2943411659562116,,,,,,,,,,,,,,,,,,,,,,,,,,,,AU06EL20,1,0xC010,G:\Experimente\CoScience\Tasks\Logfiles\,2022_Mar_01_0938,GoNoGo,2020.1.3,59.94645477052368,
IN DIESEM BLOCK KÖNNEN SIE EINFACH ENTSPANNT AN DIE AUFGABE HERANGEHEN. SIE SOLLEN SICH NICHT VERAUSGABEN.,100,NoGo,nogo,None,2,0,0,0,0,,,,,14,0,42,2,,,,,,,,,,,,0.9,236.0865382595839,None,236.0865382595839,None,,,,102,0,234.90216991787747,235.40259931576293,235.38591784964956,235.48600372922738,None,1,235.38591784964956,None,235.48600372922738,None,235.38591784964956,None,False,None,None,None,None,None,None,None,None,,,,,,,,,,,,,,,,,,,,,,,,,,,,,AU06EL20,1,0xC010,G:\Experimente\CoScience\Tasks\Logfiles\,2022_Mar_01_0938,GoNoGo,2020.1.3,59.94645477052368,
IN DIESEM BLOCK KÖNNEN SIE EINFACH ENTSPANNT AN DIE AUFGABE HERANGEHEN. SIE SOLLEN SICH NICHT VERAUSGABEN.,100,Go,go,4,1,0,0,0,0,,,,,14,1,43,0,,,,,,,,,,,,1,237.85518206236884,None,237.85518206236884,None,,,,101,111,236.98729571512195,237.4877221959032,237.4710430634732,237.57112777620932,4,1,237.4710430634732,None,237.57112777620932,None,237.4710430634732,None,False,None,None,None,None,None,None,None,None,0.3429631837971101,,,,,,,,,,,,,,,,,,,,,,,,,,,,AU06EL20,1,0xC010,G:\Experimente\CoScience\Tasks\Logfiles\,2022_Mar_01_0938,GoNoGo,2020.1.3,59.94645477052368,
IN DIESEM BLOCK KÖNNEN SIE EINFACH ENTSPANNT AN DIE AUFGABE HERANGEHEN. SIE SOLLEN SICH NICHT VERAUSGABEN.,100,Go,go,4,1,0,0,0,0,,,,,14,2,44,0,,,,,,,,,,,,1,239.6900657398819,None,239.6900657398819,None,,,,101,111,238.85556478657236,239.35599622643167,239.33931388518613,239.43940005647528,4,1,239.33931388518613,None,239.43940005647528,None,239.33931388518613,None,False,None,None,None,None,None,None,None,None,0.31363956714812957,,,,,,,,,,,,,,,,,,,,,,,,,,,,AU06EL20,1,0xC010,G:\Experimente\CoScience\Tasks\Logfiles\,2022_Mar_01_0938,GoNoGo,2020.1.3,59.94645477052368,
IN DIESEM BLOCK KÖNNEN SIE EINFACH ENTSPANNT AN DIE AUFGABE HERANGEHEN. SIE SOLLEN SICH NICHT VERAUSGABEN.,100,Go,go,4,1,0,0,0,0,,,,,15,0,45,0,,,,,,,,,,,,1,241.52500338384198,None,241.52500338384198,None,,,,101,111,240.6904732594794,241.1909070330239,241.17422702546173,241.27430882109184,4,1,241.17422702546173,None,241.27430882109184,None,241.17422702546173,None,False,None,None,None,None,None,None,None,None,0.31473260646816925,,,,,,,,,,,,,,,,,,,,,,,,,,,,AU06EL20,1,0xC010,G:\Experimente\CoScience\Tasks\Logfiles\,2022_Mar_01_0938,GoNoGo,2020.1.3,59.94645477052368,
IN DIESEM BLOCK KÖNNEN SIE EINFACH ENTSPANNT AN DIE AUFGABE HERANGEHEN. SIE SOLLEN SICH NICHT VERAUSGABEN.,100,NoGo,nogo,None,2,0,0,0,0,,,,,15,1,46,2,,,,,,,,,,,,0.9,243.70976903527844,None,243.70976903527844,None,,,,102,0,242.5253837743603,243.02581433908927,243.00913024757938,243.10922837899852,None,1,243.00913024757938,None,243.10922837899852,None,243.00913024757938,None,False,None,None,None,None,None,None,None,None,,,,,,,,,,,,,,,,,,,,,,,,,,,,,AU06EL20,1,0xC010,G:\Experimente\CoScience\Tasks\Logfiles\,2022_Mar_01_0938,GoNoGo,2020.1.3,59.94645477052368,
IN DIESEM BLOCK KÖNNEN SIE EINFACH ENTSPANNT AN DIE AUFGABE HERANGEHEN. SIE SOLLEN SICH NICHT VERAUSGABEN.,100,Go,go,4,1,0,0,0,0,,,,,15,2,47,1,,,,,,,,,,,,1,245.4283547293271,None,245.4283547293271,None,,,,101,111,244.61050665450057,245.11093663580687,245.09425721166735,245.19434104927132,4,1,245.09425721166735,None,245.19434104927132,None,245.09425721166735,None,False,None,None,None,None,None,None,None,None,0.290634983792188,,,,,,,,,,,,,,,,,,,,,,,,,,,,AU06EL20,1,0xC010,G:\Experimente\CoScience\Tasks\Logfiles\,2022_Mar_01_0938,GoNoGo,2020.1.3,59.94645477052368,
IN DIESEM BLOCK KÖNNEN SIE EINFACH ENTSPANNT AN DIE AUFGABE HERANGEHEN. SIE SOLLEN SICH NICHT VERAUSGABEN.,100,Go,go,4,1,0,0,0,0,,,,,16,0,48,0,,,,,,,,,,,,1,247.38002967279317,None,247.38002967279317,None,,,,101,111,246.42873803695147,246.92916364260054,246.91248246819669,247.01257009803703,4,1,246.91248246819669,None,247.01257009803703,None,246.91248246819669,None,False,None,None,None,None,None,None,None,None,0.41838668913078436,,,,,,,,,,,,,,,,,,,,,,,,,,,,AU06EL20,1,0xC010,G:\Experimente\CoScience\Tasks\Logfiles\,2022_Mar_01_0938,GoNoGo,2020.1.3,59.94645477052368,
IN DIESEM BLOCK KÖNNEN SIE EINFACH ENTSPANNT AN DIE AUFGABE HERANGEHEN. SIE SOLLEN SICH NICHT VERAUSGABEN.,100,Go,go,4,1,0,0,0,0,,,,,16,1,49,0,,,,,,,,,,,,1,249.1315208969736,None,249.1315208969736,None,,,,101,111,248.38041327212886,248.88084004461962,248.86415974534793,248.9642450415049,4,1,248.86415974534793,None,248.9642450415049,None,248.86415974534793,None,False,None,None,None,None,None,None,None,None,0.22567542653996497,,,,,,,,,,,,,,,,,,,,,,,,,,,,AU06EL20,1,0xC010,G:\Experimente\CoScience\Tasks\Logfiles\,2022_Mar_01_0938,GoNoGo,2020.1.3,59.94645477052368,
IN DIESEM BLOCK KÖNNEN SIE EINFACH ENTSPANNT AN DIE AUFGABE HERANGEHEN. SIE SOLLEN SICH NICHT VERAUSGABEN.,100,NoGo,nogo,None,2,0,0,0,0,,,,,16,2,50,2,,,,,,,,,,,,0.9,251.31628100591115,None,251.31628100591115,None,,,,102,0,250.1319152895976,250.6323449791944,250.6156632213697,250.71575260147438,None,1,250.6156632213697,None,250.71575260147438,None,250.6156632213697,None,False,None,None,None,None,None,None,None,None,,,,,,,,,,,,,,,,,,,,,,,,,,,,,AU06EL20,1,0xC010,G:\Experimente\CoScience\Tasks\Logfiles\,2022_Mar_01_0938,GoNoGo,2020.1.3,59.94645477052368,
IN DIESEM BLOCK KÖNNEN SIE EINFACH ENTSPANNT AN DIE AUFGABE HERANGEHEN. SIE SOLLEN SICH NICHT VERAUSGABEN.,100,NoGo,nogo,None,2,0,0,0,0,,,,,17,0,51,2,,,,,,,,,,,,0.9,253.40142284723515,None,253.40142284723515,None,,,,102,0,252.21704108684207,252.71746873446682,252.70078522637777,252.80087489819198,None,1,252.70078522637777,None,252.80087489819198,None,252.70078522637777,None,False,None,None,None,None,None,None,None,None,,,,,,,,,,,,,,,,,,,,,,,,,,,,,AU06EL20,1,0xC010,G:\Experimente\CoScience\Tasks\Logfiles\,2022_Mar_01_0938,GoNoGo,2020.1.3,59.94645477052368,
IN DIESEM BLOCK KÖNNEN SIE EINFACH ENTSPANNT AN DIE AUFGABE HERANGEHEN. SIE SOLLEN SICH NICHT VERAUSGABEN.,100,NoGo,nogo,None,2,0,0,0,0,,,,,17,1,52,2,,,,,,,,,,,,0.9,255.48653172526974,None,255.48653172526974,None,,,,102,0,254.30216309185016,254.80259248973744,254.78591189875442,254.8859971949114,None,1,254.78591189875442,None,254.8859971949114,None,254.78591189875442,None,False,None,None,None,None,None,None,None,None,,,,,,,,,,,,,,,,,,,,,,,,,,,,,AU06EL20,1,0xC010,G:\Experimente\CoScience\Tasks\Logfiles\,2022_Mar_01_0938,GoNoGo,2020.1.3,59.94645477052368,
IN DIESEM BLOCK KÖNNEN SIE EINFACH ENTSPANNT AN DIE AUFGABE HERANGEHEN. SIE SOLLEN SICH NICHT VERAUSGABEN.,100,Go,go,4,1,0,0,0,0,,,,,17,2,53,0,,,,,,,,,,,,1,257.255158608843,None,257.255158608843,None,,,,101,111,256.3872871388321,256.8877156615872,256.8710365291572,256.97112678439225,4,1,256.8710365291572,None,256.97112678439225,None,256.8710365291572,None,False,None,None,None,None,None,None,None,None,0.3457020538753568,,,,,,,,,,,,,,,,,,,,,,,,,,,,AU06EL20,1,0xC010,G:\Experimente\CoScience\Tasks\Logfiles\,2022_Mar_01_0938,GoNoGo,2020.1.3,59.94645477052368,
IN DIESEM BLOCK KÖNNEN SIE EINFACH ENTSPANNT AN DIE AUFGABE HERANGEHEN. SIE SOLLEN SICH NICHT VERAUSGABEN.,100,Go,go,4,1,0,0,0,0,,,,,18,0,54,1,,,,,,,,,,,,1,259.10675058983907,None,259.10675058983907,None,,,,101,111,258.25556058594157,258.75599173408955,258.7393117265292,258.83939148018544,4,1,258.7393117265292,None,258.83939148018544,None,258.7393117265292,None,False,None,None,None,None,None,None,None,None,0.32939456064923434,,,,,,,,,,,,,,,,,,,,,,,,,,,,AU06EL20,1,0xC010,G:\Experimente\CoScience\Tasks\Logfiles\,2022_Mar_01_0938,GoNoGo,2020.1.3,59.94645477052368,
IN DIESEM BLOCK KÖNNEN SIE EINFACH ENTSPANNT AN DIE AUFGABE HERANGEHEN. SIE SOLLEN SICH NICHT VERAUSGABEN.,100,Go,go,4,1,0,0,0,0,,,,,18,1,55,1,,,,,,,,,,,,1,260.9083136331483,None,260.9083136331483,None,,,,101,111,260.1071481912768,260.6075883824524,260.59089583133937,260.6909872534161,4,1,260.59089583133937,None,260.6909872534161,None,260.59089583133937,None,False,None,None,None,None,None,None,None,None,0.2797993965086789,,,,,,,,,,,,,,,,,,,,,,,,,,,,AU06EL20,1,0xC010,G:\Experimente\CoScience\Tasks\Logfiles\,2022_Mar_01_0938,GoNoGo,2020.1.3,59.94645477052368,
IN DIESEM BLOCK KÖNNEN SIE EINFACH ENTSPANNT AN DIE AUFGABE HERANGEHEN. SIE SOLLEN SICH NICHT VERAUSGABEN.,100,Go,go,4,1,0,0,0,0,,,,,18,2,56,1,,,,,,,,,,,,1,262.8433082773445,None,262.8433082773445,None,,,,101,111,261.9087013164317,262.4091260469486,262.39244370570304,262.4925336692286,4,1,262.39244370570304,None,262.4925336692286,None,262.39244370570304,None,False,None,None,None,None,None,None,None,None,0.40821707696886733,,,,,,,,,,,,,,,,,,,,,,,,,,,,AU06EL20,1,0xC010,G:\Experimente\CoScience\Tasks\Logfiles\,2022_Mar_01_0938,GoNoGo,2020.1.3,59.94645477052368,
IN DIESEM BLOCK KÖNNEN SIE EINFACH ENTSPANNT AN DIE AUFGABE HERANGEHEN. SIE SOLLEN SICH NICHT VERAUSGABEN.,100,NoGo,nogo,None,2,0,0,0,0,,,,,19,0,57,2,,,,,,,,,,,,0.9,265.0280538007537,None,265.0280538007537,None,,,,102,0,263.84371287983595,264.344122149696,264.3274421421356,264.42752977197597,None,1,264.3274421421356,None,264.42752977197597,None,264.3274421421356,None,False,None,None,None,None,None,None,None,None,,,,,,,,,,,,,,,,,,,,,,,,,,,,,AU06EL20,1,0xC010,G:\Experimente\CoScience\Tasks\Logfiles\,2022_Mar_01_0938,GoNoGo,2020.1.3,59.94645477052368,
IN DIESEM BLOCK KÖNNEN SIE EINFACH ENTSPANNT AN DIE AUFGABE HERANGEHEN. SIE SOLLEN SICH NICHT VERAUSGABEN.,100,Go,go,4,1,0,0,0,0,,,,,19,1,58,1,,,,,,,,,,,,1,266.72996794684695,None,266.72996794684695,None,,,,101,111,265.92881534023945,266.42924386299455,266.41256327201154,266.512648859878,4,1,266.41256327201154,None,266.512648859878,None,266.41256327201154,None,False,None,None,None,None,None,None,None,None,0.27205769100510224,,,,,,,,,,,,,,,,,,,,,,,,,,,,AU06EL20,1,0xC010,G:\Experimente\CoScience\Tasks\Logfiles\,2022_Mar_01_0938,GoNoGo,2020.1.3,59.94645477052368,
IN DIESEM BLOCK KÖNNEN SIE EINFACH ENTSPANNT AN DIE AUFGABE HERANGEHEN. SIE SOLLEN SICH NICHT VERAUSGABEN.,100,NoGo,nogo,None,2,0,0,0,0,,,,,19,2,59,2,,,,,,,,,,,,0.9,268.9147277640732,None,268.9147277640732,None,,,,102,0,267.73036204776145,268.2307902788052,268.2141096878222,268.31419615082086,None,1,268.2141096878222,None,268.31419615082086,None,268.2141096878222,None,False,None,None,None,None,None,None,None,None,,,,,,,,,,,,,,,,,,,,,,,,,,,,,AU06EL20,1,0xC010,G:\Experimente\CoScience\Tasks\Logfiles\,2022_Mar_01_0938,GoNoGo,2020.1.3,59.94645477052368,
IN DIESEM BLOCK KÖNNEN SIE EINFACH ENTSPANNT AN DIE AUFGABE HERANGEHEN. SIE SOLLEN SICH NICHT VERAUSGABEN.,100,Go,go,4,1,0,0,0,0,,,,,20,0,60,1,,,,,,,,,,,,1,270.5999724041849,None,270.5999724041849,None,,,,101,111,269.81548930355893,270.31591578433836,270.29923490164583,270.3993199060915,4,1,270.29923490164583,None,270.3993199060915,None,270.29923490164583,None,False,None,None,None,None,None,None,None,None,0.2633337961815414,,,,,,,,,,,,,,,,,,,,,,,,,,,,AU06EL20,1,0xC010,G:\Experimente\CoScience\Tasks\Logfiles\,2022_Mar_01_0938,GoNoGo,2020.1.3,59.94645477052368,
IN DIESEM BLOCK KÖNNEN SIE EINFACH ENTSPANNT AN DIE AUFGABE HERANGEHEN. SIE SOLLEN SICH NICHT VERAUSGABEN.,100,Go,go,4,1,0,0,0,0,,,,,20,1,61,0,,,,,,,,,,,,1,272.4849223583278,None,272.4849223583278,None,,,,101,111,271.6003565869396,272.10078073403747,272.08410335187,272.18420848434107,4,1,272.08410335187,None,272.18420848434107,None,272.08410335187,None,False,None,None,None,None,None,None,None,None,0.35742852508883516,,,,,,,,,,,,,,,,,,,,,,,,,,,,AU06EL20,1,0xC010,G:\Experimente\CoScience\Tasks\Logfiles\,2022_Mar_01_0938,GoNoGo,2020.1.3,59.94645477052368,
IN DIESEM BLOCK KÖNNEN SIE EINFACH ENTSPANNT AN DIE AUFGABE HERANGEHEN. SIE SOLLEN SICH NICHT VERAUSGABEN.,100,NoGo,nogo,None,2,0,0,0,0,,,,,20,2,62,2,,,,,,,,,,,,0.9,274.66968392581657,None,274.66968392581657,None,,,,102,0,273.48531470897797,273.9857344804168,273.9690553479868,274.0691388938794,None,1,273.9690553479868,None,274.0691388938794,None,273.9690553479868,None,False,None,None,None,None,None,None,None,None,,,,,,,,,,,,,,,,,,,,,,,,,,,,,AU06EL20,1,0xC010,G:\Experimente\CoScience\Tasks\Logfiles\,2022_Mar_01_0938,GoNoGo,2020.1.3,59.94645477052368,
IN DIESEM BLOCK KÖNNEN SIE EINFACH ENTSPANNT AN DIE AUFGABE HERANGEHEN. SIE SOLLEN SICH NICHT VERAUSGABEN.,100,Go,go,4,1,0,0,0,0,,,,,21,0,63,0,,,,,,,,,,,,1,276.35489151869115,None,276.35489151869115,None,,,,101,111,275.57042767096027,276.0708553185832,276.0541761861532,276.1542608988875,4,1,276.0541761861532,None,276.1542608988875,None,276.0541761861532,None,False,None,None,None,None,None,None,None,None,0.2533182071692863,,,,,,,,,,,,,,,,,,,,,,,,,,,,AU06EL20,1,0xC010,G:\Experimente\CoScience\Tasks\Logfiles\,2022_Mar_01_0938,GoNoGo,2020.1.3,59.94645477052368,
IN DIESEM BLOCK KÖNNEN SIE EINFACH ENTSPANNT AN DIE AUFGABE HERANGEHEN. SIE SOLLEN SICH NICHT VERAUSGABEN.,100,NoGo,nogo,None,2,0,0,0,0,,,,,21,1,64,2,,,,,,,,,,,,0.9,278.5396548364424,None,278.5396548364424,None,,,,102,0,277.3552943709201,277.85572376880555,277.839042886113,277.93913139108554,None,1,277.839042886113,None,277.93913139108554,None,277.839042886113,None,False,None,None,None,None,None,None,None,None,,,,,,,,,,,,,,,,,,,,,,,,,,,,,AU06EL20,1,0xC010,G:\Experimente\CoScience\Tasks\Logfiles\,2022_Mar_01_0938,GoNoGo,2020.1.3,59.94645477052368,
IN DIESEM BLOCK KÖNNEN SIE EINFACH ENTSPANNT AN DIE AUFGABE HERANGEHEN. SIE SOLLEN SICH NICHT VERAUSGABEN.,100,Go,go,4,1,0,0,0,0,,,,,21,2,65,1,,,,,,,,,,,,1,280.224902977081,None,280.224902977081,None,,,,101,111,279.440415500796,279.9408489826292,279.92416926678015,280.0242528126728,4,1,279.92416926678015,None,280.0242528126728,None,279.92416926678015,None,False,None,None,None,None,None,None,None,None,0.263272245259941,,,,,,,,,,,,,,,,,,,,,,,,,,,,AU06EL20,1,0xC010,G:\Experimente\CoScience\Tasks\Logfiles\,2022_Mar_01_0938,GoNoGo,2020.1.3,59.94645477052368,
IN DIESEM BLOCK KÖNNEN SIE EINFACH ENTSPANNT AN DIE AUFGABE HERANGEHEN. SIE SOLLEN SICH NICHT VERAUSGABEN.,100,NoGo,nogo,None,2,0,0,0,0,,,,,22,0,66,2,,,,,,,,,,,,0.9,282.4096508341754,None,282.4096508341754,None,,,,102,0,281.2252854095732,281.7257177245647,281.70903450818696,281.8091203877648,None,1,281.70903450818696,None,281.8091203877648,None,281.70903450818696,None,False,None,None,None,None,None,None,None,None,,,,,,,,,,,,,,,,,,,,,,,,,,,,,AU06EL20,1,0xC010,G:\Experimente\CoScience\Tasks\Logfiles\,2022_Mar_01_0938,GoNoGo,2020.1.3,59.94645477052368,
IN DIESEM BLOCK KÖNNEN SIE EINFACH ENTSPANNT AN DIE AUFGABE HERANGEHEN. SIE SOLLEN SICH NICHT VERAUSGABEN.,100,NoGo,nogo,None,2,0,0,0,0,,,,,22,1,67,2,,,,,,,,,,,,0.9,284.4947404593149,None,284.4947404593149,None,,,,102,0,283.3104129570802,283.81084498036216,283.79416030543143,283.8942441430354,None,1,283.79416030543143,None,283.8942441430354,None,283.79416030543143,None,False,None,None,None,None,None,None,None,None,,,,,,,,,,,,,,,,,,,,,,,,,,,,,AU06EL20,1,0xC010,G:\Experimente\CoScience\Tasks\Logfiles\,2022_Mar_01_0938,GoNoGo,2020.1.3,59.94645477052368,
IN DIESEM BLOCK KÖNNEN SIE EINFACH ENTSPANNT AN DIE AUFGABE HERANGEHEN. SIE SOLLEN SICH NICHT VERAUSGABEN.,100,Go,go,4,1,0,0,0,0,,,,,22,2,68,0,,,,,,,,,,,,1,286.21334919849505,None,286.21334919849505,None,,,,101,111,285.3955314615632,285.8959652351059,285.879279101624,285.9793652729131,4,1,285.879279101624,None,285.9793652729131,None,285.879279101624,None,False,None,None,None,None,None,None,None,None,0.2950876531758695,,,,,,,,,,,,,,,,,,,,,,,,,,,,AU06EL20,1,0xC010,G:\Experimente\CoScience\Tasks\Logfiles\,2022_Mar_01_0938,GoNoGo,2020.1.3,59.94645477052368,
IN DIESEM BLOCK KÖNNEN SIE EINFACH ENTSPANNT AN DIE AUFGABE HERANGEHEN. SIE SOLLEN SICH NICHT VERAUSGABEN.,100,Go,go,4,1,0,0,0,0,,,,,23,0,69,1,,,,,,,,,,,,1,288.1817318620233,None,288.1817318620233,None,,,,101,111,287.2137651776975,287.7141910750579,287.69750727525934,287.7975925714163,4,1,287.69750727525934,None,287.7975925714163,None,287.69750727525934,None,False,None,None,None,None,None,None,None,None,0.45085436177214433,,,,,,,,,,,,,,,,,,,,,,,,,,,,AU06EL20,1,0xC010,G:\Experimente\CoScience\Tasks\Logfiles\,2022_Mar_01_0938,GoNoGo,2020.1.3,59.94645477052368,
IN DIESEM BLOCK KÖNNEN SIE EINFACH ENTSPANNT AN DIE AUFGABE HERANGEHEN. SIE SOLLEN SICH NICHT VERAUSGABEN.,100,NoGo,nogo,None,2,0,0,0,0,,,,,23,1,70,2,,,,,,,,,,,,0.9,290.36648321964276,None,290.36648321964276,None,,,,102,0,289.1821221706996,289.6825471929278,289.66586718536564,289.7659518981018,None,1,289.66586718536564,None,289.7659518981018,None,289.66586718536564,None,False,None,None,None,None,None,None,None,None,,,,,,,,,,,,,,,,,,,,,,,,,,,,,AU06EL20,1,0xC010,G:\Experimente\CoScience\Tasks\Logfiles\,2022_Mar_01_0938,GoNoGo,2020.1.3,59.94645477052368,
IN DIESEM BLOCK KÖNNEN SIE EINFACH ENTSPANNT AN DIE AUFGABE HERANGEHEN. SIE SOLLEN SICH NICHT VERAUSGABEN.,100,Go,go,4,1,0,0,0,0,,,,,23,2,71,1,,,,,,,,,,,,1,292.0517083151499,None,292.0517083151499,None,,,,101,111,291.26724096689213,291.7676732818836,291.7509923991911,291.8510823627148,4,1,291.7509923991911,None,291.8510823627148,None,291.7509923991911,None,False,None,None,None,None,None,None,None,None,0.26733198057445406,,,,,,,,,,,,,,,,,,,,,,,,,,,,AU06EL20,1,0xC010,G:\Experimente\CoScience\Tasks\Logfiles\,2022_Mar_01_0938,GoNoGo,2020.1.3,59.94645477052368,
IN DIESEM BLOCK KÖNNEN SIE EINFACH ENTSPANNT AN DIE AUFGABE HERANGEHEN. SIE SOLLEN SICH NICHT VERAUSGABEN.,100,Go,go,4,1,0,0,0,0,,,,,24,0,72,1,,,,,,,,,,,,1,293.8532582314874,None,293.8532582314874,None,,,,101,111,293.05210883369364,293.55253764816007,293.53585676546754,293.63594001964884,4,1,293.53585676546754,None,293.63594001964884,None,293.53585676546754,None,False,None,None,None,None,None,None,None,None,0.27740445313611417,,,,,,,,,,,,,,,,,,,,,,,,,,,,AU06EL20,1,0xC010,G:\Experimente\CoScience\Tasks\Logfiles\,2022_Mar_01_0938,GoNoGo,2020.1.3,59.94645477052368,
IN DIESEM BLOCK KÖNNEN SIE EINFACH ENTSPANNT AN DIE AUFGABE HERANGEHEN. SIE SOLLEN SICH NICHT VERAUSGABEN.,100,Go,go,4,1,0,0,0,0,,,,,24,1,73,0,,,,,,,,,,,,1,295.58808345021134,None,295.58808345021134,None,,,,101,111,294.8536456230577,295.35408581423326,295.3374306020669,295.437487602303,4,1,295.3374306020669,None,295.437487602303,None,295.3374306020669,None,False,None,None,None,None,None,None,None,None,0.21280603350714955,,,,,,,,,,,,,,,,,,,,,,,,,,,,AU06EL20,1,0xC010,G:\Experimente\CoScience\Tasks\Logfiles\,2022_Mar_01_0938,GoNoGo,2020.1.3,59.94645477052368,
IN DIESEM BLOCK KÖNNEN SIE EINFACH ENTSPANNT AN DIE AUFGABE HERANGEHEN. SIE SOLLEN SICH NICHT VERAUSGABEN.,100,Go,go,4,1,0,0,0,0,,,,,24,2,74,0,,,,,,,,,,,,1,297.389642701286,None,297.389642701286,None,,,,101,111,296.5884927200714,297.0889060738791,297.07222460776575,297.17231019563224,4,1,297.07222460776575,None,297.17231019563224,None,297.07222460776575,None,False,None,None,None,None,None,None,None,None,0.274986464632093,,,,,,,,,,,,,,,,,,,,,,,,,,,,AU06EL20,1,0xC010,G:\Experimente\CoScience\Tasks\Logfiles\,2022_Mar_01_0938,GoNoGo,2020.1.3,59.94645477052368,
IN DIESEM BLOCK KÖNNEN SIE EINFACH ENTSPANNT AN DIE AUFGABE HERANGEHEN. SIE SOLLEN SICH NICHT VERAUSGABEN.,100,Go,go,4,1,0,0,0,0,,,,,25,0,75,0,,,,,,,,,,,,1,299.17448985664123,None,299.17448985664123,None,,,,101,111,298.3900277591729,298.89045599021665,298.8737751075241,298.9738621539436,4,1,298.8737751075241,None,298.9738621539436,None,298.8737751075241,None,False,None,None,None,None,None,None,None,None,0.25642929987225216,,,,,,,,,,,,,,,,,,,,,,,,,,,,AU06EL20,1,0xC010,G:\Experimente\CoScience\Tasks\Logfiles\,2022_Mar_01_0938,GoNoGo,2020.1.3,59.94645477052368,
IN DIESEM BLOCK KÖNNEN SIE EINFACH ENTSPANNT AN DIE AUFGABE HERANGEHEN. SIE SOLLEN SICH NICHT VERAUSGABEN.,100,Go,go,4,1,0,0,0,0,,,,,25,1,76,1,,,,,,,,,,,,1,300.9760531916636,None,300.9760531916636,None,,,,101,111,300.1748900834755,300.6753215233348,300.65864297432745,300.75872593679924,4,1,300.65864297432745,None,300.75872593679924,None,300.65864297432745,None,False,None,None,None,None,None,None,None,None,0.2695373121096054,,,,,,,,,,,,,,,,,,,,,,,,,,,,AU06EL20,1,0xC010,G:\Experimente\CoScience\Tasks\Logfiles\,2022_Mar_01_0938,GoNoGo,2020.1.3,59.94645477052368,
IN DIESEM BLOCK KÖNNEN SIE EINFACH ENTSPANNT AN DIE AUFGABE HERANGEHEN. SIE SOLLEN SICH NICHT VERAUSGABEN.,100,Go,go,4,1,0,0,0,0,,,,,25,2,77,1,,,,,,,,,,,,1,302.7275587096592,None,302.7275587096592,None,,,,101,111,301.97644204178687,302.4768658971734,302.46018472276955,302.5602898552406,4,1,302.46018472276955,None,302.5602898552406,None,302.46018472276955,None,False,None,None,None,None,None,None,None,None,0.21995673349556455,,,,,,,,,,,,,,,,,,,,,,,,,,,,AU06EL20,1,0xC010,G:\Experimente\CoScience\Tasks\Logfiles\,2022_Mar_01_0938,GoNoGo,2020.1.3,59.94645477052368,
IN DIESEM BLOCK KÖNNEN SIE EINFACH ENTSPANNT AN DIE AUFGABE HERANGEHEN. SIE SOLLEN SICH NICHT VERAUSGABEN.,100,Go,go,4,1,0,0,0,0,,,,,26,0,78,0,,,,,,,,,,,,1,304.46236438377855,None,304.46236438377855,None,,,,101,111,303.7279396835984,304.22837199858986,304.2116896573443,304.3117749535013,4,1,304.2116896573443,None,304.3117749535013,None,304.2116896573443,None,False,None,None,None,None,None,None,None,None,0.21243235232941515,,,,,,,,,,,,,,,,,,,,,,,,,,,,AU06EL20,1,0xC010,G:\Experimente\CoScience\Tasks\Logfiles\,2022_Mar_01_0938,GoNoGo,2020.1.3,59.94645477052368,
IN DIESEM BLOCK KÖNNEN SIE EINFACH ENTSPANNT AN DIE AUFGABE HERANGEHEN. SIE SOLLEN SICH NICHT VERAUSGABEN.,100,NoGo,nogo,None,2,0,0,0,0,,,,,26,1,79,2,,,,,,,,,,,,1,306.21388536243285,None,306.21388536243285,None,,,,102,120,305.46276431890146,305.9631957587626,305.9465151677796,306.04659929709305,4,0,305.9465151677796,None,306.04659929709305,None,305.9465151677796,None,False,None,None,None,None,None,None,None,None,0.22657477007305715,,,,,,,,,,,,,,,,,,,,,,,,,,,,AU06EL20,1,0xC010,G:\Experimente\CoScience\Tasks\Logfiles\,2022_Mar_01_0938,GoNoGo,2020.1.3,59.94645477052368,
IN DIESEM BLOCK KÖNNEN SIE EINFACH ENTSPANNT AN DIE AUFGABE HERANGEHEN. SIE SOLLEN SICH NICHT VERAUSGABEN.,100,NoGo,nogo,None,2,0,0,0,0,,,,,26,2,80,2,,,,,,,,,,,,0.9,308.3986329278159,None,308.3986329278159,None,,,,102,0,307.21427217058226,307.71470040162603,307.6980335210392,307.7980698098272,None,1,307.6980335210392,None,307.7980698098272,None,307.6980335210392,None,False,None,None,None,None,None,None,None,None,,,,,,,,,,,,,,,,,,,,,,,,,,,,,AU06EL20,1,0xC010,G:\Experimente\CoScience\Tasks\Logfiles\,2022_Mar_01_0938,GoNoGo,2020.1.3,59.94645477052368,
IN DIESEM BLOCK KÖNNEN SIE EINFACH ENTSPANNT AN DIE AUFGABE HERANGEHEN. SIE SOLLEN SICH NICHT VERAUSGABEN.,100,Go,go,4,1,0,0,0,0,,,,,27,0,81,1,,,,,,,,,,,,1,310.1339210911374,None,310.1339210911374,None,,,,101,111,309.2993935921695,309.79978740137267,309.78312752183774,309.8832250698342,4,1,309.78312752183774,None,309.8832250698342,None,309.78312752183774,None,False,None,None,None,None,None,None,None,None,0.31193247718329076,,,,,,,,,,,,,,,,,,,,,,,,,,,,AU06EL20,1,0xC010,G:\Experimente\CoScience\Tasks\Logfiles\,2022_Mar_01_0938,GoNoGo,2020.1.3,59.94645477052368,
IN DIESEM BLOCK KÖNNEN SIE EINFACH ENTSPANNT AN DIE AUFGABE HERANGEHEN. SIE SOLLEN SICH NICHT VERAUSGABEN.,100,Go,go,4,1,0,0,0,0,,,,,27,1,82,1,,,,,,,,,,,,1,311.91875395267743,None,311.91875395267743,None,,,,101,111,311.13429914797234,311.6347300044108,311.61804707974443,311.71813325103176,4,1,311.61804707974443,None,311.71813325103176,None,311.61804707974443,None,False,None,None,None,None,None,None,None,None,0.2629764507928485,,,,,,,,,,,,,,,,,,,,,,,,,,,,AU06EL20,1,0xC010,G:\Experimente\CoScience\Tasks\Logfiles\,2022_Mar_01_0938,GoNoGo,2020.1.3,59.94645477052368,
IN DIESEM BLOCK KÖNNEN SIE EINFACH ENTSPANNT AN DIE AUFGABE HERANGEHEN. SIE SOLLEN SICH NICHT VERAUSGABEN.,100,Go,go,4,1,0,0,0,0,,,,,27,2,83,0,,,,,,,,,,,,1,313.7203032855941,None,313.7203032855941,None,,,,101,111,312.9191673064852,313.41959553752895,313.40291348799474,313.5029999509916,4,1,313.40291348799474,None,313.5029999509916,None,313.40291348799474,None,False,None,None,None,None,None,None,None,None,0.2720848200860928,,,,,,,,,,,,,,,,,,,,,,,,,,,,AU06EL20,1,0xC010,G:\Experimente\CoScience\Tasks\Logfiles\,2022_Mar_01_0938,GoNoGo,2020.1.3,59.94645477052368,
IN DIESEM BLOCK KÖNNEN SIE EINFACH ENTSPANNT AN DIE AUFGABE HERANGEHEN. SIE SOLLEN SICH NICHT VERAUSGABEN.,100,NoGo,nogo,None,2,0,0,0,0,,,,,28,0,84,2,,,,,,,,,,,,0.9,315.9050444333461,None,315.9050444333461,None,,,,102,0,314.7207157642697,315.22114487044564,315.2044654463043,315.3045484087779,None,1,315.2044654463043,None,315.3045484087779,None,315.2044654463043,None,False,None,None,None,None,None,None,None,None,,,,,,,,,,,,,,,,,,,,,,,,,,,,,AU06EL20,1,0xC010,G:\Experimente\CoScience\Tasks\Logfiles\,2022_Mar_01_0938,GoNoGo,2020.1.3,59.94645477052368,
IN DIESEM BLOCK KÖNNEN SIE EINFACH ENTSPANNT AN DIE AUFGABE HERANGEHEN. SIE SOLLEN SICH NICHT VERAUSGABEN.,100,Go,go,4,1,0,0,0,0,,,,,28,1,85,1,,,,,,,,,,,,1,317.6236817601566,None,317.6236817601566,None,,,,101,111,316.80583981125164,317.3062665837424,317.2895883264446,317.38967128891636,4,1,317.2895883264446,None,317.38967128891636,None,317.2895883264446,None,False,None,None,None,None,None,None,None,None,0.2903698189293209,,,,,,,,,,,,,,,,,,,,,,,,,,,,AU06EL20,1,0xC010,G:\Experimente\CoScience\Tasks\Logfiles\,2022_Mar_01_0938,GoNoGo,2020.1.3,59.94645477052368,
IN DIESEM BLOCK KÖNNEN SIE EINFACH ENTSPANNT AN DIE AUFGABE HERANGEHEN. SIE SOLLEN SICH NICHT VERAUSGABEN.,100,Go,go,4,1,0,0,0,0,,,,,28,2,86,0,,,,,,,,,,,,1,319.4252205914945,None,319.4252205914945,None,,,,101,111,318.62407411080676,319.1244953407986,319.10781270784355,319.20790121281607,4,1,319.10781270784355,None,319.20790121281607,None,319.10781270784355,None,False,None,None,None,None,None,None,None,None,0.26815197884752706,,,,,,,,,,,,,,,,,,,,,,,,,,,,AU06EL20,1,0xC010,G:\Experimente\CoScience\Tasks\Logfiles\,2022_Mar_01_0938,GoNoGo,2020.1.3,59.94645477052368,
IN DIESEM BLOCK KÖNNEN SIE EINFACH ENTSPANNT AN DIE AUFGABE HERANGEHEN. SIE SOLLEN SICH NICHT VERAUSGABEN.,100,NoGo,nogo,None,2,0,0,0,0,,,,,29,0,87,2,,,,,,,,,,,,0.9,321.60998040872073,None,321.60998040872073,None,,,,102,0,320.42561527582984,320.92604146489975,320.9093602904959,321.0094473369154,None,1,320.9093602904959,None,321.0094473369154,None,320.9093602904959,None,False,None,None,None,None,None,None,None,None,,,,,,,,,,,,,,,,,,,,,,,,,,,,,AU06EL20,1,0xC010,G:\Experimente\CoScience\Tasks\Logfiles\,2022_Mar_01_0938,GoNoGo,2020.1.3,59.94645477052368,
IN DIESEM BLOCK KÖNNEN SIE EINFACH ENTSPANNT AN DIE AUFGABE HERANGEHEN. SIE SOLLEN SICH NICHT VERAUSGABEN.,100,Go,go,4,1,0,0,0,0,,,,,29,1,88,1,,,,,,,,,,,,1,323.27852374640315,None,323.27852374640315,None,,,,101,111,322.51074544873154,323.0111655118817,322.9944846291892,323.09457138389735,4,1,322.9944846291892,None,323.09457138389735,None,322.9944846291892,None,False,None,None,None,None,None,None,None,None,0.2414018324088829,,,,,,,,,,,,,,,,,,,,,,,,,,,,AU06EL20,1,0xC010,G:\Experimente\CoScience\Tasks\Logfiles\,2022_Mar_01_0938,GoNoGo,2020.1.3,59.94645477052368,
IN DIESEM BLOCK KÖNNEN SIE EINFACH ENTSPANNT AN DIE AUFGABE HERANGEHEN. SIE SOLLEN SICH NICHT VERAUSGABEN.,100,Go,go,4,1,0,0,0,0,,,,,29,2,89,0,,,,,,,,,,,,1,325.04672560775,None,325.04672560775,None,,,,101,111,324.27892222297305,324.77935337112285,324.76267161329815,324.86275603432296,4,1,324.76267161329815,None,324.86275603432296,None,324.76267161329815,None,False,None,None,None,None,None,None,None,None,0.24318155829314492,,,,,,,,,,,,,,,,,,,,,,,,,,,,AU06EL20,1,0xC010,G:\Experimente\CoScience\Tasks\Logfiles\,2022_Mar_01_0938,GoNoGo,2020.1.3,59.94645477052368,
IN DIESEM BLOCK KÖNNEN SIE EINFACH ENTSPANNT AN DIE AUFGABE HERANGEHEN. SIE SOLLEN SICH NICHT VERAUSGABEN.,100,Go,go,4,1,0,0,0,0,,,,,30,0,90,1,,,,,,,,,,,,1,326.81489129699185,None,326.81489129699185,None,,,,101,111,326.04710658168915,326.54753627128594,326.53085334661955,326.6309491443535,4,1,326.53085334661955,None,326.6309491443535,None,326.53085334661955,None,False,None,None,None,None,None,None,None,None,0.24797786267117772,,,,,,,,,,,,,,,,,,,,,,,,,,,,AU06EL20,1,0xC010,G:\Experimente\CoScience\Tasks\Logfiles\,2022_Mar_01_0938,GoNoGo,2020.1.3,59.94645477052368,
IN DIESEM BLOCK KÖNNEN SIE EINFACH ENTSPANNT AN DIE AUFGABE HERANGEHEN. SIE SOLLEN SICH NICHT VERAUSGABEN.,100,NoGo,nogo,None,2,0,0,0,0,,,,,30,1,91,2,,,,,,,,,,,,0.9,328.9996242768484,None,328.9996242768484,None,,,,102,0,327.8152906486939,328.3157238388176,328.2990412058607,328.39913642017564,None,1,328.2990412058607,None,328.39913642017564,None,328.2990412058607,None,False,None,None,None,None,None,None,None,None,,,,,,,,,,,,,,,,,,,,,,,,,,,,,AU06EL20,1,0xC010,G:\Experimente\CoScience\Tasks\Logfiles\,2022_Mar_01_0938,GoNoGo,2020.1.3,59.94645477052368,
IN DIESEM BLOCK KÖNNEN SIE EINFACH ENTSPANNT AN DIE AUFGABE HERANGEHEN. SIE SOLLEN SICH NICHT VERAUSGABEN.,100,NoGo,nogo,None,2,0,0,0,0,,,,,30,2,92,2,,,,,,,,,,,,0.9,331.0847774948834,None,331.0847774948834,None,,,,102,0,329.9004187796236,330.4008449686935,330.3841815886317,330.4842336297879,None,1,330.3841815886317,None,330.4842336297879,None,330.3841815886317,None,False,None,None,None,None,None,None,None,None,,,,,,,,,,,,,,,,,,,,,,,,,,,,,AU06EL20,1,0xC010,G:\Experimente\CoScience\Tasks\Logfiles\,2022_Mar_01_0938,GoNoGo,2020.1.3,59.94645477052368,
IN DIESEM BLOCK KÖNNEN SIE EINFACH ENTSPANNT AN DIE AUFGABE HERANGEHEN. SIE SOLLEN SICH NICHT VERAUSGABEN.,100,Go,go,4,1,0,0,0,0,,,,,31,0,93,0,,,,,,,,,,,,1,332.8367404149758,None,332.8367404149758,None,,,,101,111,331.9855384509465,332.4859701825171,332.4692957174557,332.5693740125589,4,1,332.4692957174557,None,332.5693740125589,None,332.4692957174557,None,False,None,None,None,None,None,None,None,None,0.31946881847943587,,,,,,,,,,,,,,,,,,,,,,,,,,,,AU06EL20,1,0xC010,G:\Experimente\CoScience\Tasks\Logfiles\,2022_Mar_01_0938,GoNoGo,2020.1.3,59.94645477052368,
IN DIESEM BLOCK KÖNNEN SIE EINFACH ENTSPANNT AN DIE AUFGABE HERANGEHEN. SIE SOLLEN SICH NICHT VERAUSGABEN.,100,Go,go,4,1,0,0,0,0,,,,,31,1,94,1,,,,,,,,,,,,1,334.6049344001385,None,334.6049344001385,None,,,,101,111,333.8371283899669,334.33756303864357,334.32088740674044,334.42096424329065,4,1,334.32088740674044,None,334.42096424329065,None,334.32088740674044,None,False,None,None,None,None,None,None,None,None,0.2358491226514161,,,,,,,,,,,,,,,,,,,,,,,,,,,,AU06EL20,1,0xC010,G:\Experimente\CoScience\Tasks\Logfiles\,2022_Mar_01_0938,GoNoGo,2020.1.3,59.94645477052368,
IN DIESEM BLOCK KÖNNEN SIE EINFACH ENTSPANNT AN DIE AUFGABE HERANGEHEN. SIE SOLLEN SICH NICHT VERAUSGABEN.,100,Go,go,4,1,0,0,0,0,,,,,31,2,95,0,,,,,,,,,,,,1,336.38979847470364,None,336.38979847470364,None,,,,101,111,335.6053194580254,336.1057441885423,336.0890665146653,336.18914889371626,4,1,336.0890665146653,None,336.18914889371626,None,336.0890665146653,None,False,None,None,None,None,None,None,None,None,0.2616398331883829,,,,,,,,,,,,,,,,,,,,,,,,,,,,AU06EL20,1,0xC010,G:\Experimente\CoScience\Tasks\Logfiles\,2022_Mar_01_0938,GoNoGo,2020.1.3,59.94645477052368,
IN DIESEM BLOCK KÖNNEN SIE EINFACH ENTSPANNT AN DIE AUFGABE HERANGEHEN. SIE SOLLEN SICH NICHT VERAUSGABEN.,100,Go,go,4,1,0,0,0,0,,,,,32,0,96,0,,,,,,,,,,,,1,338.1746485471649,None,338.1746485471649,None,,,,101,111,337.3901829491697,337.8906219735036,337.8739285472584,337.9740196776238,4,1,337.8739285472584,None,337.9740196776238,None,337.8739285472584,None,False,None,None,None,None,None,None,None,None,0.258752190746236,,,,,,,,,,,,,,,,,,,,,,,,,,,,AU06EL20,1,0xC010,G:\Experimente\CoScience\Tasks\Logfiles\,2022_Mar_01_0938,GoNoGo,2020.1.3,59.94645477052368,
IN DIESEM BLOCK KÖNNEN SIE EINFACH ENTSPANNT AN DIE AUFGABE HERANGEHEN. SIE SOLLEN SICH NICHT VERAUSGABEN.,100,Go,go,4,1,0,0,0,0,,,,,32,1,97,1,,,,,,,,,,,,1,339.9261575656874,None,339.9261575656874,None,,,,101,111,339.17504644031396,339.67547583820124,339.6587934969557,339.7588805433752,4,1,339.6587934969557,None,339.7588805433752,None,339.6587934969557,None,False,None,None,None,None,None,None,None,None,0.21987447112769587,,,,,,,,,,,,,,,,,,,,,,,,,,,,AU06EL20,1,0xC010,G:\Experimente\CoScience\Tasks\Logfiles\,2022_Mar_01_0938,GoNoGo,2020.1.3,59.94645477052368,
IN DIESEM BLOCK KÖNNEN SIE EINFACH ENTSPANNT AN DIE AUFGABE HERANGEHEN. SIE SOLLEN SICH NICHT VERAUSGABEN.,100,Go,go,4,1,0,0,0,0,,,,,32,2,98,1,,,,,,,,,,,,1,341.7277162333394,None,341.7277162333394,None,,,,101,111,340.92655166660006,341.4269816479082,341.4102987232418,341.5103886867655,4,1,341.4102987232418,None,341.5103886867655,None,341.4102987232418,None,False,None,None,None,None,None,None,None,None,0.2763420434202999,,,,,,,,,,,,,,,,,,,,,,,,,,,,AU06EL20,1,0xC010,G:\Experimente\CoScience\Tasks\Logfiles\,2022_Mar_01_0938,GoNoGo,2020.1.3,59.94645477052368,
IN DIESEM BLOCK KÖNNEN SIE EINFACH ENTSPANNT AN DIE AUFGABE HERANGEHEN. SIE SOLLEN SICH NICHT VERAUSGABEN.,100,Go,go,4,1,0,0,0,0,,,,,33,0,99,1,,,,,,,,,,,,1,343.47920512383644,None,343.47920512383644,None,,,,101,111,342.7280989575429,343.228526021745,343.21186380852487,343.31193072691894,4,1,343.21186380852487,None,343.31193072691894,None,343.21186380852487,None,False,None,None,None,None,None,None,None,None,0.22575010443142673,,,,,,,,,,,,,,,,,,,,,,,,,,,,AU06EL20,1,0xC010,G:\Experimente\CoScience\Tasks\Logfiles\,2022_Mar_01_0938,GoNoGo,2020.1.3,59.94645477052368,
IN DIESEM BLOCK KÖNNEN SIE EINFACH ENTSPANNT AN DIE AUFGABE HERANGEHEN. SIE SOLLEN SICH NICHT VERAUSGABEN.,100,Go,go,4,1,0,0,0,0,,,,,33,1,100,0,,,,,,,,,,,,1,345.2140437612452,None,345.2140437612452,None,,,,101,111,344.47960243356465,344.9800315397406,344.9633538658636,345.0634009479418,4,1,344.9633538658636,None,345.0634009479418,None,344.9633538658636,None,False,None,None,None,None,None,None,None,None,0.2062405048236542,,,,,,,,,,,,,,,,,,,,,,,,,,,,AU06EL20,1,0xC010,G:\Experimente\CoScience\Tasks\Logfiles\,2022_Mar_01_0938,GoNoGo,2020.1.3,59.94645477052368,
IN DIESEM BLOCK KÖNNEN SIE EINFACH ENTSPANNT AN DIE AUFGABE HERANGEHEN. SIE SOLLEN SICH NICHT VERAUSGABEN.,100,Go,go,4,1,0,0,0,0,,,,,33,2,101,0,,,,,,,,,,,,0.9,347.3987927851813,None,347.3987927851813,None,,,,101,0,346.21442590202605,346.7148588004384,346.69817500064164,346.79825854653427,None,0,346.69817500064164,None,346.79825854653427,None,346.69817500064164,None,False,None,None,None,None,None,None,None,None,,,,,,,,,,,,,,,,,,,,,,,,,,,,,AU06EL20,1,0xC010,G:\Experimente\CoScience\Tasks\Logfiles\,2022_Mar_01_0938,GoNoGo,2020.1.3,59.94645477052368,
IN DIESEM BLOCK KÖNNEN SIE EINFACH ENTSPANNT AN DIE AUFGABE HERANGEHEN. SIE SOLLEN SICH NICHT VERAUSGABEN.,100,Go,go,4,1,0,0,0,0,,,,,34,0,102,1,,,,,,,,,,,,1,349.03399127668854,None,349.03399127668854,None,,,,101,111,348.2995502407193,348.7999784717631,348.7833007978861,348.88338288522755,4,1,348.7833007978861,None,348.88338288522755,None,348.7833007978861,None,False,None,None,None,None,None,None,None,None,0.21726657907674962,,,,,,,,,,,,,,,,,,,,,,,,,,,,AU06EL20,1,0xC010,G:\Experimente\CoScience\Tasks\Logfiles\,2022_Mar_01_0938,GoNoGo,2020.1.3,59.94645477052368,
IN DIESEM BLOCK KÖNNEN SIE EINFACH ENTSPANNT AN DIE AUFGABE HERANGEHEN. SIE SOLLEN SICH NICHT VERAUSGABEN.,100,Go,go,4,1,0,0,0,0,,,,,34,1,103,1,,,,,,,,,,,,1,350.7521326956157,None,350.7521326956157,None,,,,101,111,350.0343707920747,350.5348007733828,350.51812193266414,350.6182086873723,4,1,350.51812193266414,None,350.6182086873723,None,350.51812193266414,None,False,None,None,None,None,None,None,None,None,0.20042963125524693,,,,,,,,,,,,,,,,,,,,,,,,,,,,AU06EL20,1,0xC010,G:\Experimente\CoScience\Tasks\Logfiles\,2022_Mar_01_0938,GoNoGo,2020.1.3,59.94645477052368,
IN DIESEM BLOCK KÖNNEN SIE EINFACH ENTSPANNT AN DIE AUFGABE HERANGEHEN. SIE SOLLEN SICH NICHT VERAUSGABEN.,100,NoGo,nogo,None,2,0,0,0,0,,,,,34,2,104,2,,,,,,,,,,,,1,352.4869261178919,None,352.4869261178919,None,,,,102,120,351.7525139612644,352.2529424840195,352.23626247645916,352.336348939456,4,0,352.23626247645916,None,352.336348939456,None,352.23626247645916,None,False,None,None,None,None,None,None,None,None,0.20324230409278243,,,,,,,,,,,,,,,,,,,,,,,,,,,,AU06EL20,1,0xC010,G:\Experimente\CoScience\Tasks\Logfiles\,2022_Mar_01_0938,GoNoGo,2020.1.3,59.94645477052368,
IN DIESEM BLOCK KÖNNEN SIE EINFACH ENTSPANNT AN DIE AUFGABE HERANGEHEN. SIE SOLLEN SICH NICHT VERAUSGABEN.,100,Go,go,4,1,0,0,0,0,,,,,35,0,105,0,,,,,,,,,,,,1,354.30516683507994,None,354.30516683507994,None,,,,101,111,353.487338304858,353.9877668276131,353.97108477807706,354.0711709493662,4,1,353.97108477807706,None,354.0711709493662,None,353.97108477807706,None,False,None,None,None,None,None,None,None,None,0.29739420826263085,,,,,,,,,,,,,,,,,,,,,,,,,,,,AU06EL20,1,0xC010,G:\Experimente\CoScience\Tasks\Logfiles\,2022_Mar_01_0938,GoNoGo,2020.1.3,59.94645477052368,
IN DIESEM BLOCK KÖNNEN SIE EINFACH ENTSPANNT AN DIE AUFGABE HERANGEHEN. SIE SOLLEN SICH NICHT VERAUSGABEN.,100,Go,go,4,1,0,0,0,0,,,,,35,1,106,0,,,,,,,,,,,,1,356.1067316286553,None,356.1067316286553,None,,,,101,111,355.3055685204672,355.80596203795903,355.7892811552665,355.88940145668494,4,1,355.7892811552665,None,355.88940145668494,None,355.7892811552665,None,False,None,None,None,None,None,None,None,None,0.27217641718743835,,,,,,,,,,,,,,,,,,,,,,,,,,,,AU06EL20,1,0xC010,G:\Experimente\CoScience\Tasks\Logfiles\,2022_Mar_01_0938,GoNoGo,2020.1.3,59.94645477052368,
IN DIESEM BLOCK KÖNNEN SIE EINFACH ENTSPANNT AN DIE AUFGABE HERANGEHEN. SIE SOLLEN SICH NICHT VERAUSGABEN.,100,Go,go,4,1,0,0,0,0,,,,,35,2,107,0,,,,,,,,,,,,1,357.8577625336329,None,357.8577625336329,None,,,,101,111,357.10711581141004,357.60752595640224,357.59086024265525,357.69093503723343,4,1,357.59086024265525,None,357.69093503723343,None,357.59086024265525,None,False,None,None,None,None,None,None,None,None,0.24654031322825176,,,,,,,,,,,,,,,,,,,,,,,,,,,,AU06EL20,1,0xC010,G:\Experimente\CoScience\Tasks\Logfiles\,2022_Mar_01_0938,GoNoGo,2020.1.3,59.94645477052368,
IN DIESEM BLOCK KÖNNEN SIE EINFACH ENTSPANNT AN DIE AUFGABE HERANGEHEN. SIE SOLLEN SICH NICHT VERAUSGABEN.,100,Go,go,4,1,0,0,0,0,,,,,36,0,108,0,,,,,,,,,,,,1,359.59303961195474,None,359.59303961195474,None,,,,101,111,358.8586195791431,359.3590481018982,359.342364593811,359.4424501816775,4,1,359.342364593811,None,359.4424501816775,None,359.342364593811,None,False,None,None,None,None,None,None,None,None,0.21105314499072847,,,,,,,,,,,,,,,,,,,,,,,,,,,,AU06EL20,1,0xC010,G:\Experimente\CoScience\Tasks\Logfiles\,2022_Mar_01_0938,GoNoGo,2020.1.3,59.94645477052368,
IN DIESEM BLOCK KÖNNEN SIE EINFACH ENTSPANNT AN DIE AUFGABE HERANGEHEN. SIE SOLLEN SICH NICHT VERAUSGABEN.,100,Go,go,4,1,0,0,0,0,,,,,36,1,109,0,,,,,,,,,,,,1,361.36125051632735,None,361.36125051632735,None,,,,101,111,360.5934427558932,361.09387069522745,361.0771906876671,361.1772946532965,4,1,361.0771906876671,None,361.1772946532965,None,361.0771906876671,None,False,None,None,None,None,None,None,None,None,0.2481771009588556,,,,,,,,,,,,,,,,,,,,,,,,,,,,AU06EL20,1,0xC010,G:\Experimente\CoScience\Tasks\Logfiles\,2022_Mar_01_0938,GoNoGo,2020.1.3,59.94645477052368,
IN DIESEM BLOCK KÖNNEN SIE EINFACH ENTSPANNT AN DIE AUFGABE HERANGEHEN. SIE SOLLEN SICH NICHT VERAUSGABEN.,100,Go,go,4,1,0,0,0,0,,,,,36,2,110,0,,,,,,,,,,,,1,363.09606727544633,None,363.09606727544633,None,,,,101,111,362.36162507263543,362.86205272025836,362.8453779634874,362.9454574254323,4,1,362.8453779634874,None,362.9454574254323,None,362.8453779634874,None,False,None,None,None,None,None,None,None,None,0.20698028270271607,,,,,,,,,,,,,,,,,,,,,,,,,,,,AU06EL20,1,0xC010,G:\Experimente\CoScience\Tasks\Logfiles\,2022_Mar_01_0938,GoNoGo,2020.1.3,59.94645477052368,
IN DIESEM BLOCK KÖNNEN SIE EINFACH ENTSPANNT AN DIE AUFGABE HERANGEHEN. SIE SOLLEN SICH NICHT VERAUSGABEN.,100,Go,go,4,1,0,0,0,0,,,,,37,0,111,1,,,,,,,,,,,,1,364.8475512068635,None,364.8475512068635,None,,,,101,111,364.09644766596466,364.5968753135876,364.5801999733958,364.6802791436312,4,1,364.5801999733958,None,364.6802791436312,None,364.5801999733958,None,False,None,None,None,None,None,None,None,None,0.23114149827233632,,,,,,,,,,,,,,,,,,,,,,,,,,,,AU06EL20,1,0xC010,G:\Experimente\CoScience\Tasks\Logfiles\,2022_Mar_01_0938,GoNoGo,2020.1.3,59.94645477052368,
IN DIESEM BLOCK KÖNNEN SIE EINFACH ENTSPANNT AN DIE AUFGABE HERANGEHEN. SIE SOLLEN SICH NICHT VERAUSGABEN.,100,Go,go,4,1,0,0,0,0,,,,,37,1,112,1,,,,,,,,,,,,1,366.5990561414401,None,366.5990561414401,None,,,,101,111,365.84795143369774,366.348379373032,366.3316973234978,366.43178495333814,4,1,366.3316973234978,None,366.43178495333814,None,366.3316973234978,None,False,None,None,None,None,None,None,None,None,0.2286217027958628,,,,,,,,,,,,,,,,,,,,,,,,,,,,AU06EL20,1,0xC010,G:\Experimente\CoScience\Tasks\Logfiles\,2022_Mar_01_0938,GoNoGo,2020.1.3,59.94645477052368,
IN DIESEM BLOCK KÖNNEN SIE EINFACH ENTSPANNT AN DIE AUFGABE HERANGEHEN. SIE SOLLEN SICH NICHT VERAUSGABEN.,100,Go,go,4,1,0,0,0,0,,,,,37,2,113,1,,,,,,,,,,,,1,368.3505526164099,None,368.3505526164099,None,,,,101,111,367.59945549314216,368.0998834324764,368.08320342491425,368.18329192988676,4,1,368.08320342491425,None,368.18329192988676,None,368.08320342491425,None,False,None,None,None,None,None,None,None,None,0.23409419216113747,,,,,,,,,,,,,,,,,,,,,,,,,,,,AU06EL20,1,0xC010,G:\Experimente\CoScience\Tasks\Logfiles\,2022_Mar_01_0938,GoNoGo,2020.1.3,59.94645477052368,
IN DIESEM BLOCK KÖNNEN SIE EINFACH ENTSPANNT AN DIE AUFGABE HERANGEHEN. SIE SOLLEN SICH NICHT VERAUSGABEN.,100,NoGo,nogo,None,2,0,0,0,0,,,,,38,0,114,2,,,,,,,,,,,,0.9,370.5353241020566,None,370.5353241020566,None,,,,102,0,369.35096363653247,369.8513793240254,369.83470719264733,369.9347927805138,None,1,369.83470719264733,None,369.9347927805138,None,369.83470719264733,None,False,None,None,None,None,None,None,None,None,,,,,,,,,,,,,,,,,,,,,,,,,,,,,AU06EL20,1,0xC010,G:\Experimente\CoScience\Tasks\Logfiles\,2022_Mar_01_0938,GoNoGo,2020.1.3,59.94645477052368,
IN DIESEM BLOCK KÖNNEN SIE EINFACH ENTSPANNT AN DIE AUFGABE HERANGEHEN. SIE SOLLEN SICH NICHT VERAUSGABEN.,100,NoGo,nogo,None,2,0,0,0,0,,,,,38,1,115,2,,,,,,,,,,,,0.9,372.6204458153534,None,372.6204458153534,None,,,,102,0,371.43608418298754,371.9365118306123,371.9198396992342,372.01991653578625,None,1,371.9198396992342,None,372.01991653578625,None,371.9198396992342,None,False,None,None,None,None,None,None,None,None,,,,,,,,,,,,,,,,,,,,,,,,,,,,,AU06EL20,1,0xC010,G:\Experimente\CoScience\Tasks\Logfiles\,2022_Mar_01_0938,GoNoGo,2020.1.3,59.94645477052368,
IN DIESEM BLOCK KÖNNEN SIE EINFACH ENTSPANNT AN DIE AUFGABE HERANGEHEN. SIE SOLLEN SICH NICHT VERAUSGABEN.,100,Go,go,4,1,0,0,0,0,,,,,38,2,116,0,,,,,,,,,,,,1,374.3056642015181,None,374.3056642015181,None,,,,101,111,373.52120647970696,374.0216355858829,374.00495411976954,374.10504029105687,4,1,374.00495411976954,None,374.10504029105687,None,374.00495411976954,None,False,None,None,None,None,None,None,None,None,0.26627044598899374,,,,,,,,,,,,,,,,,,,,,,,,,,,,AU06EL20,1,0xC010,G:\Experimente\CoScience\Tasks\Logfiles\,2022_Mar_01_0938,GoNoGo,2020.1.3,59.94645477052368,
IN DIESEM BLOCK KÖNNEN SIE EINFACH ENTSPANNT AN DIE AUFGABE HERANGEHEN. SIE SOLLEN SICH NICHT VERAUSGABEN.,100,Go,go,4,1,0,0,0,0,,,,,39,0,117,1,,,,,,,,,,,,1,376.05717817911864,None,376.05717817911864,None,,,,101,111,375.3060758050615,375.8065232890003,375.7898202363085,375.8899066993072,4,1,375.7898202363085,None,375.8899066993072,None,375.7898202363085,None,False,None,None,None,None,None,None,None,None,0.22637611520985956,,,,,,,,,,,,,,,,,,,,,,,,,,,,AU06EL20,1,0xC010,G:\Experimente\CoScience\Tasks\Logfiles\,2022_Mar_01_0938,GoNoGo,2020.1.3,59.94645477052368,
IN DIESEM BLOCK KÖNNEN SIE EINFACH ENTSPANNT AN DIE AUFGABE HERANGEHEN. SIE SOLLEN SICH NICHT VERAUSGABEN.,100,NoGo,nogo,None,2,0,0,0,0,,,,,39,1,118,2,,,,,,,,,,,,0.9,378.2419592912138,None,378.2419592912138,None,,,,102,0,377.05759357490024,377.55800926239135,377.54132604601546,377.6414136758558,None,1,377.54132604601546,None,377.6414136758558,None,377.54132604601546,None,False,None,None,None,None,None,None,None,None,,,,,,,,,,,,,,,,,,,,,,,,,,,,,AU06EL20,1,0xC010,G:\Experimente\CoScience\Tasks\Logfiles\,2022_Mar_01_0938,GoNoGo,2020.1.3,59.94645477052368,
IN DIESEM BLOCK KÖNNEN SIE EINFACH ENTSPANNT AN DIE AUFGABE HERANGEHEN. SIE SOLLEN SICH NICHT VERAUSGABEN.,100,Go,go,4,1,0,0,0,0,,,,,39,2,119,1,,,,,,,,,,,,1,379.9271584244834,None,379.9271584244834,None,,,,101,111,379.14271733017085,379.6431309756899,379.62644921786523,379.7265348057317,4,1,379.62644921786523,None,379.7265348057317,None,379.62644921786523,None,False,None,None,None,None,None,None,None,None,0.2547044155635376,,,,,,,,,,,,,,,,,,,,,,,,,,,,AU06EL20,1,0xC010,G:\Experimente\CoScience\Tasks\Logfiles\,2022_Mar_01_0938,GoNoGo,2020.1.3,59.94645477052368,
IN DIESEM BLOCK KÖNNEN SIE EINFACH ENTSPANNT AN DIE AUFGABE HERANGEHEN. SIE SOLLEN SICH NICHT VERAUSGABEN.,100,NoGo,nogo,None,2,0,0,0,0,,,,,40,0,120,2,,,,,,,,,,,,0.9,382.11193457749687,None,382.11193457749687,None,,,,102,0,380.92756623579044,381.42799505025505,381.41131329243035,381.51140179740287,None,1,381.41131329243035,None,381.51140179740287,None,381.41131329243035,None,False,None,None,None,None,None,None,None,None,,,,,,,,,,,,,,,,,,,,,,,,,,,,,AU06EL20,1,0xC010,G:\Experimente\CoScience\Tasks\Logfiles\,2022_Mar_01_0938,GoNoGo,2020.1.3,59.94645477052368,
IN DIESEM BLOCK KÖNNEN SIE EINFACH ENTSPANNT AN DIE AUFGABE HERANGEHEN. SIE SOLLEN SICH NICHT VERAUSGABEN.,100,Go,go,4,1,0,0,0,0,,,,,40,1,121,0,,,,,,,,,,,,1,383.8138586417481,None,383.8138586417481,None,,,,101,111,383.0126908661932,383.51312376460555,383.49644317362254,383.596525260964,4,1,383.49644317362254,None,383.596525260964,None,383.49644317362254,None,False,None,None,None,None,None,None,None,None,0.2806660684655071,,,,,,,,,,,,,,,,,,,,,,,,,,,,AU06EL20,1,0xC010,G:\Experimente\CoScience\Tasks\Logfiles\,2022_Mar_01_0938,GoNoGo,2020.1.3,59.94645477052368,
IN DIESEM BLOCK KÖNNEN SIE EINFACH ENTSPANNT AN DIE AUFGABE HERANGEHEN. SIE SOLLEN SICH NICHT VERAUSGABEN.,100,Go,go,4,1,0,0,0,0,,,,,40,2,122,1,,,,,,,,,,,,1,385.59869558723585,None,385.59869558723585,None,,,,101,111,384.8142034435841,385.31466551304766,385.29798579719863,385.39807196848597,4,1,385.29798579719863,None,385.39807196848597,None,385.29798579719863,None,False,None,None,None,None,None,None,None,None,0.25508947345042543,,,,,,,,,,,,,,,,,,,,,,,,,,,,AU06EL20,1,0xC010,G:\Experimente\CoScience\Tasks\Logfiles\,2022_Mar_01_0938,GoNoGo,2020.1.3,59.94645477052368,
IN DIESEM BLOCK KÖNNEN SIE EINFACH ENTSPANNT AN DIE AUFGABE HERANGEHEN. SIE SOLLEN SICH NICHT VERAUSGABEN.,100,Go,go,4,1,0,0,0,0,,,,,41,0,123,1,,,,,,,,,,,,1,387.43360726895844,None,387.43360726895844,None,,,,101,111,386.5991118581496,387.0995325047188,387.0828504551846,387.1829456694977,4,1,387.0828504551846,None,387.1829456694977,None,387.0828504551846,None,False,None,None,None,None,None,None,None,None,0.31621770472884236,,,,,,,,,,,,,,,,,,,,,,,,,,,,AU06EL20,1,0xC010,G:\Experimente\CoScience\Tasks\Logfiles\,2022_Mar_01_0938,GoNoGo,2020.1.3,59.94645477052368,
IN DIESEM BLOCK KÖNNEN SIE EINFACH ENTSPANNT AN DIE AUFGABE HERANGEHEN. SIE SOLLEN SICH NICHT VERAUSGABEN.,100,Go,go,4,1,0,0,0,0,,,,,41,1,124,1,,,,,,,,,,,,1,389.218482428525,None,389.218482428525,None,,,,101,111,388.4340130382934,388.93443981078417,388.917759219803,389.017846557932,4,1,388.917759219803,None,389.017846557932,None,388.917759219803,None,False,None,None,None,None,None,None,None,None,0.2642649361623626,,,,,,,,,,,,,,,,,,,,,,,,,,,,AU06EL20,1,0xC010,G:\Experimente\CoScience\Tasks\Logfiles\,2022_Mar_01_0938,GoNoGo,2020.1.3,59.94645477052368,
IN DIESEM BLOCK KÖNNEN SIE EINFACH ENTSPANNT AN DIE AUFGABE HERANGEHEN. SIE SOLLEN SICH NICHT VERAUSGABEN.,100,Go,go,4,1,0,0,0,0,,,,,41,2,125,0,,,,,,,,,,,,1,390.9866562856605,None,390.9866562856605,None,,,,101,111,390.21887711285854,390.7193053439023,390.70262562805146,390.8027103407876,4,1,390.70262562805146,None,390.8027103407876,None,390.70262562805146,None,False,None,None,None,None,None,392.02042702919607,None,space,0.24637724704552966,45.4890290590356,,,,,,,,,,,,,,,,,,,,,,,,,,,AU06EL20,1,0xC010,G:\Experimente\CoScience\Tasks\Logfiles\,2022_Mar_01_0938,GoNoGo,2020.1.3,59.94645477052368,
IN DIESEM BLOCK KÖNNEN SIE EINFACH ENTSPANNT AN DIE AUFGABE HERANGEHEN. SIE SOLLEN SICH NICHT VERAUSGABEN.,100,NoGo,nogo,None,2,0,0,0,0,,,,,42,0,126,2,,,,,,,,,,,,0.9,440.6788990611585,None,440.6788990611585,None,,,,102,0,439.4945243018192,439.9949583670732,439.97827310872344,440.0783584048804,None,1,439.97827310872344,None,440.0783584048804,None,439.97827310872344,None,False,None,None,None,None,None,None,None,None,,,,,,,,,,,,,,,,,,,,,,,,,,,,,AU06EL20,1,0xC010,G:\Experimente\CoScience\Tasks\Logfiles\,2022_Mar_01_0938,GoNoGo,2020.1.3,59.94645477052368,
IN DIESEM BLOCK KÖNNEN SIE EINFACH ENTSPANNT AN DIE AUFGABE HERANGEHEN. SIE SOLLEN SICH NICHT VERAUSGABEN.,100,Go,go,4,1,0,0,0,0,,,,,42,1,127,1,,,,,,,,,,,,1,442.3641051954801,None,442.3641051954801,None,,,,101,111,441.5796410560379,442.0800780383979,442.0633971557054,442.1634815767302,4,1,442.0633971557054,None,442.1634815767302,None,442.0633971557054,None,False,None,None,None,None,None,None,None,None,0.2649487056223734,,,,,,,,,,,,,,,,,,,,,,,,,,,,AU06EL20,1,0xC010,G:\Experimente\CoScience\Tasks\Logfiles\,2022_Mar_01_0938,GoNoGo,2020.1.3,59.94645477052368,
IN DIESEM BLOCK KÖNNEN SIE EINFACH ENTSPANNT AN DIE AUFGABE HERANGEHEN. SIE SOLLEN SICH NICHT VERAUSGABEN.,100,Go,go,4,1,0,0,0,0,,,,,42,2,128,1,,,,,,,,,,,,1,444.11560983834534,None,444.11560983834534,None,,,,101,111,443.36451475705144,443.8649429880952,443.8482626888235,443.9483479849805,4,1,443.8482626888235,None,443.9483479849805,None,443.8482626888235,None,False,None,None,None,None,None,None,None,None,0.22005533165065572,,,,,,,,,,,,,,,,,,,,,,,,,,,,AU06EL20,1,0xC010,G:\Experimente\CoScience\Tasks\Logfiles\,2022_Mar_01_0938,GoNoGo,2020.1.3,59.94645477052368,
IN DIESEM BLOCK KÖNNEN SIE EINFACH ENTSPANNT AN DIE AUFGABE HERANGEHEN. SIE SOLLEN SICH NICHT VERAUSGABEN.,100,Go,go,4,1,0,0,0,0,,,,,43,0,129,1,,,,,,,,,,,,1,445.83377926148205,None,445.83377926148205,None,,,,101,111,445.11603748596826,445.616449381223,445.5997699570835,445.6998543781083,4,1,445.5997699570835,None,445.6998543781083,None,445.5997699570835,None,False,None,None,None,None,None,None,None,None,0.18950098831555806,,,,,,,,,,,,,,,,,,,,,,,,,,,,AU06EL20,1,0xC010,G:\Experimente\CoScience\Tasks\Logfiles\,2022_Mar_01_0938,GoNoGo,2020.1.3,59.94645477052368,
IN DIESEM BLOCK KÖNNEN SIE EINFACH ENTSPANNT AN DIE AUFGABE HERANGEHEN. SIE SOLLEN SICH NICHT VERAUSGABEN.,100,NoGo,nogo,None,2,0,0,0,0,,,,,43,1,130,2,,,,,,,,,,,,1,447.5352435899531,None,447.5352435899531,None,,,,102,120,446.8341797800258,447.3345910918597,447.317912251141,447.41799842242835,4,0,447.317912251141,None,447.41799842242835,None,447.317912251141,None,False,None,None,None,None,None,None,None,None,0.18335814817510254,,,,,,,,,,,,,,,,,,,,,,,,,,,,AU06EL20,1,0xC010,G:\Experimente\CoScience\Tasks\Logfiles\,2022_Mar_01_0938,GoNoGo,2020.1.3,59.94645477052368,
IN DIESEM BLOCK KÖNNEN SIE EINFACH ENTSPANNT AN DIE AUFGABE HERANGEHEN. SIE SOLLEN SICH NICHT VERAUSGABEN.,100,NoGo,nogo,None,2,0,0,0,0,,,,,43,2,131,2,,,,,,,,,,,,0.9,449.7199730692846,None,449.7199730692846,None,,,,102,0,448.535618729682,449.03605425348906,449.0193704536905,449.11945429129446,None,1,449.0193704536905,None,449.11945429129446,None,449.0193704536905,None,False,None,None,None,None,None,None,None,None,,,,,,,,,,,,,,,,,,,,,,,,,,,,,AU06EL20,1,0xC010,G:\Experimente\CoScience\Tasks\Logfiles\,2022_Mar_01_0938,GoNoGo,2020.1.3,59.94645477052368,
IN DIESEM BLOCK KÖNNEN SIE EINFACH ENTSPANNT AN DIE AUFGABE HERANGEHEN. SIE SOLLEN SICH NICHT VERAUSGABEN.,100,Go,go,4,1,0,0,0,0,,,,,44,0,132,0,,,,,,,,,,,,1,451.3885309924917,None,451.3885309924917,None,,,,101,111,450.6207483191629,451.1211739248138,451.1044953758046,451.20457892169725,4,1,451.1044953758046,None,451.20457892169725,None,451.1044953758046,None,False,None,None,None,None,None,None,None,None,0.2347622092529491,,,,,,,,,,,,,,,,,,,,,,,,,,,,AU06EL20,1,0xC010,G:\Experimente\CoScience\Tasks\Logfiles\,2022_Mar_01_0938,GoNoGo,2020.1.3,59.94645477052368,
IN DIESEM BLOCK KÖNNEN SIE EINFACH ENTSPANNT AN DIE AUFGABE HERANGEHEN. SIE SOLLEN SICH NICHT VERAUSGABEN.,100,Go,go,4,1,0,0,0,0,,,,,44,1,133,0,,,,,,,,,,,,1,453.1733985675837,None,453.1733985675837,None,,,,101,111,452.388932677879,452.88936324260794,452.87268060965107,452.97276473896454,4,1,452.87268060965107,None,452.97276473896454,None,452.87268060965107,None,False,None,None,None,None,None,None,None,None,0.2585196974596329,,,,,,,,,,,,,,,,,,,,,,,,,,,,AU06EL20,1,0xC010,G:\Experimente\CoScience\Tasks\Logfiles\,2022_Mar_01_0938,GoNoGo,2020.1.3,59.94645477052368,
IN DIESEM BLOCK KÖNNEN SIE EINFACH ENTSPANNT AN DIE AUFGABE HERANGEHEN. SIE SOLLEN SICH NICHT VERAUSGABEN.,100,Go,go,4,1,0,0,0,0,,,,,44,2,134,1,,,,,,,,,,,,1,454.9249035021603,None,454.9249035021603,None,,,,101,111,454.1737990861293,454.67422556691054,454.6575458510597,454.7576331891887,4,1,454.6575458510597,None,454.7576331891887,None,454.6575458510597,None,False,None,None,None,None,None,None,None,None,0.2306473406497389,,,,,,,,,,,,,,,,,,,,,,,,,,,,AU06EL20,1,0xC010,G:\Experimente\CoScience\Tasks\Logfiles\,2022_Mar_01_0938,GoNoGo,2020.1.3,59.94645477052368,
IN DIESEM BLOCK KÖNNEN SIE EINFACH ENTSPANNT AN DIE AUFGABE HERANGEHEN. SIE SOLLEN SICH NICHT VERAUSGABEN.,100,Go,go,4,1,0,0,0,0,,,,,45,0,135,0,,,,,,,,,,,,1,456.6930744421916,None,456.6930744421916,None,,,,101,111,455.92529993675635,456.42572845951145,456.4090472851076,456.5091328729741,4,1,456.4090472851076,None,456.5091328729741,None,456.4090472851076,None,False,None,None,None,None,None,None,None,None,0.23611632948814076,,,,,,,,,,,,,,,,,,,,,,,,,,,,AU06EL20,1,0xC010,G:\Experimente\CoScience\Tasks\Logfiles\,2022_Mar_01_0938,GoNoGo,2020.1.3,59.94645477052368,
IN DIESEM BLOCK KÖNNEN SIE EINFACH ENTSPANNT AN DIE AUFGABE HERANGEHEN. SIE SOLLEN SICH NICHT VERAUSGABEN.,100,Go,go,4,1,0,0,0,0,,,,,45,1,136,0,,,,,,,,,,,,1,458.4278961603886,None,458.4278961603886,None,,,,101,111,457.6934840037611,458.19391398506923,458.17724185369116,458.27731810682235,4,1,458.17724185369116,None,458.27731810682235,None,458.17724185369116,None,False,None,None,None,None,None,None,None,None,0.20589628640846058,,,,,,,,,,,,,,,,,,,,,,,,,,,,AU06EL20,1,0xC010,G:\Experimente\CoScience\Tasks\Logfiles\,2022_Mar_01_0938,GoNoGo,2020.1.3,59.94645477052368,
IN DIESEM BLOCK KÖNNEN SIE EINFACH ENTSPANNT AN DIE AUFGABE HERANGEHEN. SIE SOLLEN SICH NICHT VERAUSGABEN.,100,Go,go,4,1,0,0,0,0,,,,,45,2,137,0,,,,,,,,,,,,1,460.14604166326353,None,460.14604166326353,None,,,,101,111,459.428307180513,459.9287380369515,459.9120577376798,460.01214303383495,4,1,459.9120577376798,None,460.01214303383495,None,459.9120577376798,None,False,None,None,None,None,None,None,None,None,0.19904633996702614,,,,,,,,,,,,,,,,,,,,,,,,,,,,AU06EL20,1,0xC010,G:\Experimente\CoScience\Tasks\Logfiles\,2022_Mar_01_0938,GoNoGo,2020.1.3,59.94645477052368,
IN DIESEM BLOCK KÖNNEN SIE EINFACH ENTSPANNT AN DIE AUFGABE HERANGEHEN. SIE SOLLEN SICH NICHT VERAUSGABEN.,100,Go,go,4,1,0,0,0,0,,,,,46,0,138,1,,,,,,,,,,,,1,461.8975454309966,None,461.8975454309966,None,,,,101,111,461.1464538502278,461.64688208127336,461.6302038239737,461.73028445276213,4,1,461.6302038239737,None,461.73028445276213,None,461.6302038239737,None,False,None,None,None,None,None,None,None,None,0.23186960773091414,,,,,,,,,,,,,,,,,,,,,,,,,,,,AU06EL20,1,0xC010,G:\Experimente\CoScience\Tasks\Logfiles\,2022_Mar_01_0938,GoNoGo,2020.1.3,59.94645477052368,
IN DIESEM BLOCK KÖNNEN SIE EINFACH ENTSPANNT AN DIE AUFGABE HERANGEHEN. SIE SOLLEN SICH NICHT VERAUSGABEN.,100,NoGo,nogo,None,2,0,0,0,0,,,,,46,1,139,2,,,,,,,,,,,,1,463.68241125582426,None,463.68241125582426,None,,,,102,120,462.89796286875026,463.3983823484796,463.3817023409174,463.48178734536305,4,0,463.3817023409174,None,463.48178734536305,None,463.3817023409174,None,False,None,None,None,None,None,None,None,None,0.2603633079506835,,,,,,,,,,,,,,,,,,,,,,,,,,,,AU06EL20,1,0xC010,G:\Experimente\CoScience\Tasks\Logfiles\,2022_Mar_01_0938,GoNoGo,2020.1.3,59.94645477052368,
IN DIESEM BLOCK KÖNNEN SIE EINFACH ENTSPANNT AN DIE AUFGABE HERANGEHEN. SIE SOLLEN SICH NICHT VERAUSGABEN.,100,NoGo,nogo,None,2,0,0,0,0,,,,,46,2,140,2,,,,,,,,,,,,0.9,465.86719032594556,None,465.86719032594556,None,,,,102,0,464.6828202339748,465.18324992357157,465.16656816574687,465.26665783756107,None,1,465.16656816574687,None,465.26665783756107,None,465.16656816574687,None,False,None,None,None,None,None,None,None,None,,,,,,,,,,,,,,,,,,,,,,,,,,,,,AU06EL20,1,0xC010,G:\Experimente\CoScience\Tasks\Logfiles\,2022_Mar_01_0938,GoNoGo,2020.1.3,59.94645477052368,
IN DIESEM BLOCK KÖNNEN SIE EINFACH ENTSPANNT AN DIE AUFGABE HERANGEHEN. SIE SOLLEN SICH NICHT VERAUSGABEN.,100,NoGo,nogo,None,2,0,0,0,0,,,,,47,0,141,2,,,,,,,,,,,,0.9,467.9522787842434,None,467.9522787842434,None,,,,102,0,466.76792765345635,467.2683765959482,467.25169250444014,467.351778967437,None,1,467.25169250444014,None,467.351778967437,None,467.25169250444014,None,False,None,None,None,None,None,None,None,None,,,,,,,,,,,,,,,,,,,,,,,,,,,,,AU06EL20,1,0xC010,G:\Experimente\CoScience\Tasks\Logfiles\,2022_Mar_01_0938,GoNoGo,2020.1.3,59.94645477052368,
IN DIESEM BLOCK KÖNNEN SIE EINFACH ENTSPANNT AN DIE AUFGABE HERANGEHEN. SIE SOLLEN SICH NICHT VERAUSGABEN.,100,Go,go,4,1,0,0,0,0,,,,,47,1,142,1,,,,,,,,,,,,1,469.62086325310884,None,469.62086325310884,None,,,,101,111,468.8530607434641,469.35349918437714,469.3368317203676,469.43690068073556,4,1,469.3368317203676,None,469.43690068073556,None,469.3368317203676,None,False,None,None,None,None,None,None,None,None,0.23517760503273166,,,,,,,,,,,,,,,,,,,,,,,,,,,,AU06EL20,1,0xC010,G:\Experimente\CoScience\Tasks\Logfiles\,2022_Mar_01_0938,GoNoGo,2020.1.3,59.94645477052368,
IN DIESEM BLOCK KÖNNEN SIE EINFACH ENTSPANNT AN DIE AUFGABE HERANGEHEN. SIE SOLLEN SICH NICHT VERAUSGABEN.,100,NoGo,nogo,None,2,0,0,0,0,,,,,47,2,143,2,,,,,,,,,,,,0.9,471.80561665270216,None,471.80561665270216,None,,,,102,0,470.621257062312,471.1216841265141,471.1050023686894,471.20508737313503,None,1,471.1050023686894,None,471.20508737313503,None,471.1050023686894,None,False,None,None,None,None,None,None,None,None,,,,,,,,,,,,,,,,,,,,,,,,,,,,,AU06EL20,1,0xC010,G:\Experimente\CoScience\Tasks\Logfiles\,2022_Mar_01_0938,GoNoGo,2020.1.3,59.94645477052368,
IN DIESEM BLOCK KÖNNEN SIE EINFACH ENTSPANNT AN DIE AUFGABE HERANGEHEN. SIE SOLLEN SICH NICHT VERAUSGABEN.,100,NoGo,nogo,None,2,0,0,0,0,,,,,48,0,144,2,,,,,,,,,,,,0.9,473.89074624218483,None,473.89074624218483,None,,,,102,0,472.70637615021406,473.20680613152217,473.1901278742225,473.2902093781431,None,1,473.1901278742225,None,473.2902093781431,None,473.1901278742225,None,False,None,None,None,None,None,None,None,None,,,,,,,,,,,,,,,,,,,,,,,,,,,,,AU06EL20,1,0xC010,G:\Experimente\CoScience\Tasks\Logfiles\,2022_Mar_01_0938,GoNoGo,2020.1.3,59.94645477052368,
IN DIESEM BLOCK KÖNNEN SIE EINFACH ENTSPANNT AN DIE AUFGABE HERANGEHEN. SIE SOLLEN SICH NICHT VERAUSGABEN.,100,NoGo,nogo,None,2,0,0,0,0,,,,,48,1,145,2,,,,,,,,,,,,0.9,475.97586999745545,None,475.97586999745545,None,,,,102,0,474.7915004889055,475.29193455416134,475.27525425488966,475.3753407178883,None,1,475.27525425488966,None,475.3753407178883,None,475.27525425488966,None,False,None,None,None,None,None,None,None,None,,,,,,,,,,,,,,,,,,,,,,,,,,,,,AU06EL20,1,0xC010,G:\Experimente\CoScience\Tasks\Logfiles\,2022_Mar_01_0938,GoNoGo,2020.1.3,59.94645477052368,
IN DIESEM BLOCK KÖNNEN SIE EINFACH ENTSPANNT AN DIE AUFGABE HERANGEHEN. SIE SOLLEN SICH NICHT VERAUSGABEN.,100,NoGo,nogo,None,2,0,0,0,0,,,,,48,2,146,2,,,,,,,,,,,,0.9,478.060991710754,None,478.060991710754,None,,,,102,0,476.8766303700977,477.3770577260111,477.3603733427917,477.46045805552785,None,1,477.3603733427917,None,477.46045805552785,None,477.3603733427917,None,False,None,None,None,None,None,None,None,None,,,,,,,,,,,,,,,,,,,,,,,,,,,,,AU06EL20,1,0xC010,G:\Experimente\CoScience\Tasks\Logfiles\,2022_Mar_01_0938,GoNoGo,2020.1.3,59.94645477052368,
IN DIESEM BLOCK KÖNNEN SIE EINFACH ENTSPANNT AN DIE AUFGABE HERANGEHEN. SIE SOLLEN SICH NICHT VERAUSGABEN.,100,Go,go,4,1,0,0,0,0,,,,,49,0,147,1,,,,,,,,,,,,1,479.7795829473034,None,479.7795829473034,None,,,,101,111,478.9617523751058,479.4621768139132,479.4454979731945,479.5455838527723,4,1,479.4454979731945,None,479.5455838527723,None,479.4454979731945,None,False,None,None,None,None,None,None,None,None,0.29637584683405294,,,,,,,,,,,,,,,,,,,,,,,,,,,,AU06EL20,1,0xC010,G:\Experimente\CoScience\Tasks\Logfiles\,2022_Mar_01_0938,GoNoGo,2020.1.3,59.94645477052368,
IN DIESEM BLOCK KÖNNEN SIE EINFACH ENTSPANNT AN DIE AUFGABE HERANGEHEN. SIE SOLLEN SICH NICHT VERAUSGABEN.,100,Go,go,4,1,0,0,0,0,,,,,49,1,148,0,,,,,,,,,,,,0.9,481.96434568163386,None,481.96434568163386,None,,,,101,0,480.7799758813744,481.2804058626807,481.26372352143517,481.3638096927225,None,0,481.26372352143517,None,481.3638096927225,None,481.26372352143517,None,False,None,None,None,None,None,None,None,None,,,,,,,,,,,,,,,,,,,,,,,,,,,,,AU06EL20,1,0xC010,G:\Experimente\CoScience\Tasks\Logfiles\,2022_Mar_01_0938,GoNoGo,2020.1.3,59.94645477052368,
IN DIESEM BLOCK KÖNNEN SIE EINFACH ENTSPANNT AN DIE AUFGABE HERANGEHEN. SIE SOLLEN SICH NICHT VERAUSGABEN.,100,Go,go,4,1,0,0,0,0,,,,,49,2,149,1,,,,,,,,,,,,1,483.69960175679626,None,483.69960175679626,None,,,,101,111,482.86510022006587,483.3655380775581,483.34884961039097,483.4489331562836,4,1,483.34884961039097,None,483.4489331562836,None,483.34884961039097,None,False,None,None,None,None,None,None,None,None,0.31096195628015266,,,,,,,,,,,,,,,,,,,,,,,,,,,,AU06EL20,1,0xC010,G:\Experimente\CoScience\Tasks\Logfiles\,2022_Mar_01_0938,GoNoGo,2020.1.3,59.94645477052368,
IN DIESEM BLOCK KÖNNEN SIE EINFACH ENTSPANNT AN DIE AUFGABE HERANGEHEN. SIE SOLLEN SICH NICHT VERAUSGABEN.,100,NoGo,nogo,None,2,0,0,0,0,,,,,50,0,150,2,,,,,,,,,,,,0.9,485.88437820152285,None,485.88437820152285,None,,,,102,0,484.70001015152593,485.2004369240167,485.18375720816584,485.2838436711645,None,1,485.18375720816584,None,485.2838436711645,None,485.18375720816584,None,False,None,None,None,None,None,None,None,None,,,,,,,,,,,,,,,,,,,,,,,,,,,,,AU06EL20,1,0xC010,G:\Experimente\CoScience\Tasks\Logfiles\,2022_Mar_01_0938,GoNoGo,2020.1.3,59.94645477052368,
IN DIESEM BLOCK KÖNNEN SIE EINFACH ENTSPANNT AN DIE AUFGABE HERANGEHEN. SIE SOLLEN SICH NICHT VERAUSGABEN.,100,Go,go,4,1,0,0,0,0,,,,,50,1,151,0,,,,,,,,,,,,1,487.53625524203744,None,487.53625524203744,None,,,,101,111,486.78512457205943,487.2855673886297,487.2688850473842,487.3689685932786,4,1,487.2688850473842,None,487.3689685932786,None,487.2688850473842,None,False,None,None,None,None,None,None,None,None,0.21893166272639064,,,,,,,,,,,,,,,,,,,,,,,,,,,,AU06EL20,1,0xC010,G:\Experimente\CoScience\Tasks\Logfiles\,2022_Mar_01_0938,GoNoGo,2020.1.3,59.94645477052368,
IN DIESEM BLOCK KÖNNEN SIE EINFACH ENTSPANNT AN DIE AUFGABE HERANGEHEN. SIE SOLLEN SICH NICHT VERAUSGABEN.,100,Go,go,4,1,0,0,0,0,,,,,50,2,152,1,,,,,,,,,,,,1,489.30442909917474,None,489.30442909917474,None,,,,101,111,488.5366382579505,489.0370656138639,489.02038618972256,489.12047031903785,4,1,489.02038618972256,None,489.12047031903785,None,489.02038618972256,None,False,None,None,None,None,None,None,None,None,0.24634895112467348,,,,,,,,,,,,,,,,,,,,,,,,,,,,AU06EL20,1,0xC010,G:\Experimente\CoScience\Tasks\Logfiles\,2022_Mar_01_0938,GoNoGo,2020.1.3,59.94645477052368,
IN DIESEM BLOCK KÖNNEN SIE EINFACH ENTSPANNT AN DIE AUFGABE HERANGEHEN. SIE SOLLEN SICH NICHT VERAUSGABEN.,100,Go,go,4,1,0,0,0,0,,,,,51,0,153,0,,,,,,,,,,,,1,491.0726108324943,None,491.0726108324943,None,,,,101,111,490.3048243669291,490.80525230626336,490.78857317383336,490.88866051196237,4,1,490.78857317383336,None,490.88866051196237,None,490.78857317383336,None,False,None,None,None,None,None,None,None,None,0.24713802808400942,,,,,,,,,,,,,,,,,,,,,,,,,,,,AU06EL20,1,0xC010,G:\Experimente\CoScience\Tasks\Logfiles\,2022_Mar_01_0938,GoNoGo,2020.1.3,59.94645477052368,
IN DIESEM BLOCK KÖNNEN SIE EINFACH ENTSPANNT AN DIE AUFGABE HERANGEHEN. SIE SOLLEN SICH NICHT VERAUSGABEN.,100,Go,go,4,1,0,0,0,0,,,,,51,1,154,0,,,,,,,,,,,,1,492.79073824931584,None,492.79073824931584,None,,,,101,111,492.07301601840845,492.57343783182114,492.5567554905756,492.6568402033099,4,1,492.5567554905756,None,492.6568402033099,None,492.5567554905756,None,False,None,None,None,None,None,None,None,None,0.19693056356118177,,,,,,,,,,,,,,,,,,,,,,,,,,,,AU06EL20,1,0xC010,G:\Experimente\CoScience\Tasks\Logfiles\,2022_Mar_01_0938,GoNoGo,2020.1.3,59.94645477052368,
IN DIESEM BLOCK KÖNNEN SIE EINFACH ENTSPANNT AN DIE AUFGABE HERANGEHEN. SIE SOLLEN SICH NICHT VERAUSGABEN.,100,NoGo,nogo,None,2,0,0,0,0,,,,,51,2,155,2,,,,,,,,,,,,0.9,494.97551644430496,None,494.97551644430496,None,,,,102,0,493.7911586041755,494.2915713745624,494.27489807634447,494.3749859978943,None,1,494.27489807634447,None,494.3749859978943,None,494.27489807634447,None,False,None,None,None,None,None,None,None,None,,,,,,,,,,,,,,,,,,,,,,,,,,,,,AU06EL20,1,0xC010,G:\Experimente\CoScience\Tasks\Logfiles\,2022_Mar_01_0938,GoNoGo,2020.1.3,59.94645477052368,
IN DIESEM BLOCK KÖNNEN SIE EINFACH ENTSPANNT AN DIE AUFGABE HERANGEHEN. SIE SOLLEN SICH NICHT VERAUSGABEN.,100,NoGo,nogo,None,2,0,0,0,0,,,,,52,0,156,2,,,,,,,,,,,,1,496.61070268396907,None,496.61070268396907,None,,,,102,120,495.8762730247108,496.376719341808,496.36002037306207,496.46010712777024,4,0,496.36002037306207,None,496.46010712777024,None,496.36002037306207,None,False,None,None,None,None,None,None,None,None,0.21360823743816582,,,,,,,,,,,,,,,,,,,,,,,,,,,,AU06EL20,1,0xC010,G:\Experimente\CoScience\Tasks\Logfiles\,2022_Mar_01_0938,GoNoGo,2020.1.3,59.94645477052368,
IN DIESEM BLOCK KÖNNEN SIE EINFACH ENTSPANNT AN DIE AUFGABE HERANGEHEN. SIE SOLLEN SICH NICHT VERAUSGABEN.,100,NoGo,nogo,None,2,0,0,0,0,,,,,52,1,157,2,,,,,,,,,,,,0.9,498.7954823375112,None,498.7954823375112,None,,,,102,0,497.6110973683044,498.111526182769,498.0948453000765,498.194930887943,None,1,498.0948453000765,None,498.194930887943,None,498.0948453000765,None,False,None,None,None,None,None,None,None,None,,,,,,,,,,,,,,,,,,,,,,,,,,,,,AU06EL20,1,0xC010,G:\Experimente\CoScience\Tasks\Logfiles\,2022_Mar_01_0938,GoNoGo,2020.1.3,59.94645477052368,
IN DIESEM BLOCK KÖNNEN SIE EINFACH ENTSPANNT AN DIE AUFGABE HERANGEHEN. SIE SOLLEN SICH NICHT VERAUSGABEN.,100,Go,go,4,1,0,0,0,0,,,,,52,2,158,1,,,,,,,,,,,,0.9,500.8805845062034,None,500.8805845062034,None,,,,101,0,499.69622141528635,500.1966493546188,500.1799687636376,500.2800543515041,None,0,500.1799687636376,None,500.2800543515041,None,500.1799687636376,None,False,None,None,None,None,None,None,None,None,,,,,,,,,,,,,,,,,,,,,,,,,,,,,AU06EL20,1,0xC010,G:\Experimente\CoScience\Tasks\Logfiles\,2022_Mar_01_0938,GoNoGo,2020.1.3,59.94645477052368,
IN DIESEM BLOCK KÖNNEN SIE EINFACH ENTSPANNT AN DIE AUFGABE HERANGEHEN. SIE SOLLEN SICH NICHT VERAUSGABEN.,100,Go,go,4,1,0,0,0,0,,,,,53,0,159,0,,,,,,,,,,,,1,502.6158434984718,None,502.6158434984718,None,,,,101,111,501.7813428368736,502.28177515186326,502.2651012702245,502.3651804404599,4,1,502.2651012702245,None,502.3651804404599,None,502.2651012702245,None,False,None,None,None,None,None,None,None,None,0.3015137442325795,,,,,,,,,,,,,,,,,,,,,,,,,,,,AU06EL20,1,0xC010,G:\Experimente\CoScience\Tasks\Logfiles\,2022_Mar_01_0938,GoNoGo,2020.1.3,59.94645477052368,
IN DIESEM BLOCK KÖNNEN SIE EINFACH ENTSPANNT AN DIE AUFGABE HERANGEHEN. SIE SOLLEN SICH NICHT VERAUSGABEN.,100,Go,go,4,1,0,0,0,0,,,,,53,1,160,0,,,,,,,,,,,,1,504.35069526285406,None,504.35069526285406,None,,,,101,111,503.616255102017,504.1167399249025,504.10000099181525,504.20008687139307,4,1,504.10000099181525,None,504.20008687139307,None,504.10000099181525,None,False,None,None,None,None,None,None,None,None,0.21056365473668848,,,,,,,,,,,,,,,,,,,,,,,,,,,,AU06EL20,1,0xC010,G:\Experimente\CoScience\Tasks\Logfiles\,2022_Mar_01_0938,GoNoGo,2020.1.3,59.94645477052368,
