"Onset","Duration","Participant","date_time","Target_Mapping","Order_Instruction","Running","Trial","Event","Type","InstructionCondition","Accuracy","RT","Post_Trial","TaskPerf"
56.1741376999998,0.5,"AG4EN28","2022_May_27_1010","square","speed_accuracy_first","Practice",0,"Fixation","NoGo","speed_accuracy",0,0.345822399999633,NA,98.6111111111111
56.6614035000002,0.1,"AG4EN28","2022_May_27_1010","square","speed_accuracy_first","Practice",0,"Target","NoGo","speed_accuracy",0,0.345822399999633,NA,98.6111111111111
56.7613966999998,1.24582239999963,"AG4EN28","2022_May_27_1010","square","speed_accuracy_first","Practice",0,"ITI","NoGo","speed_accuracy",0,0.345822399999633,NA,98.6111111111111
57.0072258999999,0,"AG4EN28","2022_May_27_1010","square","speed_accuracy_first","Practice",0,"Response","NoGo","speed_accuracy",0,0.345822399999633,NA,98.6111111111111
58.0593054000001,0.5,"AG4EN28","2022_May_27_1010","square","speed_accuracy_first","Practice",1,"Fixation","Go","speed_accuracy",1,0.329591400000027,"post_error_resp",98.6111111111111
58.5447518999999,0.1,"AG4EN28","2022_May_27_1010","square","speed_accuracy_first","Practice",1,"Target","Go","speed_accuracy",1,0.329591400000027,"post_error_resp",98.6111111111111
58.6447344999997,1.22959140000003,"AG4EN28","2022_May_27_1010","square","speed_accuracy_first","Practice",1,"ITI","Go","speed_accuracy",1,0.329591400000027,"post_error_resp",98.6111111111111
58.8743433,0,"AG4EN28","2022_May_27_1010","square","speed_accuracy_first","Practice",1,"Response","Go","speed_accuracy",1,0.329591400000027,"post_error_resp",98.6111111111111
59.8947226,0.5,"AG4EN28","2022_May_27_1010","square","speed_accuracy_first","Practice",2,"Fixation","Go","speed_accuracy",1,0.365416399999958,"post_correct_resp",98.6111111111111
60.3779753999997,0.1,"AG4EN28","2022_May_27_1010","square","speed_accuracy_first","Practice",2,"Target","Go","speed_accuracy",1,0.365416399999958,"post_correct_resp",98.6111111111111
60.4780388999998,1.26541639999996,"AG4EN28","2022_May_27_1010","square","speed_accuracy_first","Practice",2,"ITI","Go","speed_accuracy",1,0.365416399999958,"post_correct_resp",98.6111111111111
60.7433917999997,0,"AG4EN28","2022_May_27_1010","square","speed_accuracy_first","Practice",2,"Response","Go","speed_accuracy",1,0.365416399999958,"post_correct_resp",98.6111111111111
61.7611437000005,0.5,"AG4EN28","2022_May_27_1010","square","speed_accuracy_first","Practice",3,"Fixation","Go","speed_accuracy",1,0.337519899999279,"post_correct_resp",98.6111111111111
62.2447457999997,0.1,"AG4EN28","2022_May_27_1010","square","speed_accuracy_first","Practice",3,"Target","Go","speed_accuracy",1,0.337519899999279,"post_correct_resp",98.6111111111111
62.3447007000004,1.23751989999928,"AG4EN28","2022_May_27_1010","square","speed_accuracy_first","Practice",3,"ITI","Go","speed_accuracy",1,0.337519899999279,"post_correct_resp",98.6111111111111
62.582265699999,0,"AG4EN28","2022_May_27_1010","square","speed_accuracy_first","Practice",3,"Response","Go","speed_accuracy",1,0.337519899999279,"post_correct_resp",98.6111111111111
63.6112601000004,0.5,"AG4EN28","2022_May_27_1010","square","speed_accuracy_first","Practice",4,"Fixation","Go","speed_accuracy",1,0.397923100000298,"post_correct_resp",98.6111111111111
64.0937443000003,0.1,"AG4EN28","2022_May_27_1010","square","speed_accuracy_first","Practice",4,"Target","Go","speed_accuracy",1,0.397923100000298,"post_correct_resp",98.6111111111111
64.1946255000003,1.2979231000003,"AG4EN28","2022_May_27_1010","square","speed_accuracy_first","Practice",4,"ITI","Go","speed_accuracy",1,0.397923100000298,"post_correct_resp",98.6111111111111
64.4916674000006,0,"AG4EN28","2022_May_27_1010","square","speed_accuracy_first","Practice",4,"Response","Go","speed_accuracy",1,0.397923100000298,"post_correct_resp",98.6111111111111
65.5112113000005,0.5,"AG4EN28","2022_May_27_1010","square","speed_accuracy_first","Practice",5,"Fixation","Go","speed_accuracy",1,0.336617099999785,"post_correct_resp",98.6111111111111
65.9947456999998,0.1,"AG4EN28","2022_May_27_1010","square","speed_accuracy_first","Practice",5,"Target","Go","speed_accuracy",1,0.336617099999785,"post_correct_resp",98.6111111111111
66.0947582999997,1.23661709999978,"AG4EN28","2022_May_27_1010","square","speed_accuracy_first","Practice",5,"ITI","Go","speed_accuracy",1,0.336617099999785,"post_correct_resp",98.6111111111111
66.3313627999996,0,"AG4EN28","2022_May_27_1010","square","speed_accuracy_first","Practice",5,"Response","Go","speed_accuracy",1,0.336617099999785,"post_correct_resp",98.6111111111111
67.3610456000006,0.5,"AG4EN28","2022_May_27_1010","square","speed_accuracy_first","Practice",6,"Fixation","NoGo","speed_accuracy",1,NA,"post_correct_resp",98.6111111111111
67.8447243000001,0.1,"AG4EN28","2022_May_27_1010","square","speed_accuracy_first","Practice",6,"Target","NoGo","speed_accuracy",1,NA,"post_correct_resp",98.6111111111111
67.9447339999997,1.5,"AG4EN28","2022_May_27_1010","square","speed_accuracy_first","Practice",6,"ITI","NoGo","speed_accuracy",1,NA,"post_correct_resp",98.6111111111111
69.4444086000003,0.5,"AG4EN28","2022_May_27_1010","square","speed_accuracy_first","Practice",7,"Fixation","Go","speed_accuracy",1,0.307347899999513,"post_correct_inh",98.6111111111111
69.9280225000002,0.1,"AG4EN28","2022_May_27_1010","square","speed_accuracy_first","Practice",7,"Target","Go","speed_accuracy",1,0.307347899999513,"post_correct_inh",98.6111111111111
70.0280591000001,1.20734789999951,"AG4EN28","2022_May_27_1010","square","speed_accuracy_first","Practice",7,"ITI","Go","speed_accuracy",1,0.307347899999513,"post_correct_inh",98.6111111111111
70.2353703999997,0,"AG4EN28","2022_May_27_1010","square","speed_accuracy_first","Practice",7,"Response","Go","speed_accuracy",1,0.307347899999513,"post_correct_inh",98.6111111111111
71.2612440000003,0.5,"AG4EN28","2022_May_27_1010","square","speed_accuracy_first","Practice",8,"Fixation","Go","speed_accuracy",1,0.32545989999926,"post_correct_resp",98.6111111111111
71.7448193999999,0.1,"AG4EN28","2022_May_27_1010","square","speed_accuracy_first","Practice",8,"Target","Go","speed_accuracy",1,0.32545989999926,"post_correct_resp",98.6111111111111
71.8447293999998,1.22545989999926,"AG4EN28","2022_May_27_1010","square","speed_accuracy_first","Practice",8,"ITI","Go","speed_accuracy",1,0.32545989999926,"post_correct_resp",98.6111111111111
72.0702792999991,0,"AG4EN28","2022_May_27_1010","square","speed_accuracy_first","Practice",8,"Response","Go","speed_accuracy",1,0.32545989999926,"post_correct_resp",98.6111111111111
73.0946226000005,0.5,"AG4EN28","2022_May_27_1010","square","speed_accuracy_first","Practice",9,"Fixation","Go","speed_accuracy",1,0.358186299999943,"post_correct_resp",98.6111111111111
73.5780036000006,0.1,"AG4EN28","2022_May_27_1010","square","speed_accuracy_first","Practice",9,"Target","Go","speed_accuracy",1,0.358186299999943,"post_correct_resp",98.6111111111111
73.6780263999999,1.25818629999994,"AG4EN28","2022_May_27_1010","square","speed_accuracy_first","Practice",9,"ITI","Go","speed_accuracy",1,0.358186299999943,"post_correct_resp",98.6111111111111
73.9361899000005,0,"AG4EN28","2022_May_27_1010","square","speed_accuracy_first","Practice",9,"Response","Go","speed_accuracy",1,0.358186299999943,"post_correct_resp",98.6111111111111
74.960658,0.5,"AG4EN28","2022_May_27_1010","square","speed_accuracy_first","Practice",10,"Fixation","NoGo","speed_accuracy",1,NA,"post_correct_resp",98.6111111111111
75.4443447000003,0.1,"AG4EN28","2022_May_27_1010","square","speed_accuracy_first","Practice",10,"Target","NoGo","speed_accuracy",1,NA,"post_correct_resp",98.6111111111111
75.5447045999999,1.5,"AG4EN28","2022_May_27_1010","square","speed_accuracy_first","Practice",10,"ITI","NoGo","speed_accuracy",1,NA,"post_correct_resp",98.6111111111111
77.0442518999998,0.5,"AG4EN28","2022_May_27_1010","square","speed_accuracy_first","Practice",11,"Fixation","Go","speed_accuracy",1,0.307109200000014,"post_correct_inh",98.6111111111111
77.5280967999997,0.1,"AG4EN28","2022_May_27_1010","square","speed_accuracy_first","Practice",11,"Target","Go","speed_accuracy",1,0.307109200000014,"post_correct_inh",98.6111111111111
77.6280311999999,1.20710920000001,"AG4EN28","2022_May_27_1010","square","speed_accuracy_first","Practice",11,"ITI","Go","speed_accuracy",1,0.307109200000014,"post_correct_inh",98.6111111111111
77.8352059999997,0,"AG4EN28","2022_May_27_1010","square","speed_accuracy_first","Practice",11,"Response","Go","speed_accuracy",1,0.307109200000014,"post_correct_inh",98.6111111111111
78.8612468000001,0.5,"AG4EN28","2022_May_27_1010","square","speed_accuracy_first","Practice",12,"Fixation","Go","speed_accuracy",1,0.348525100000188,"post_correct_resp",98.6111111111111
79.3447107000002,0.1,"AG4EN28","2022_May_27_1010","square","speed_accuracy_first","Practice",12,"Target","Go","speed_accuracy",1,0.348525100000188,"post_correct_resp",98.6111111111111
79.4446829999997,1.24852510000019,"AG4EN28","2022_May_27_1010","square","speed_accuracy_first","Practice",12,"ITI","Go","speed_accuracy",1,0.348525100000188,"post_correct_resp",98.6111111111111
79.6932358000004,0,"AG4EN28","2022_May_27_1010","square","speed_accuracy_first","Practice",12,"Response","Go","speed_accuracy",1,0.348525100000188,"post_correct_resp",98.6111111111111
80.7108423,0.5,"AG4EN28","2022_May_27_1010","square","speed_accuracy_first","Practice",13,"Fixation","NoGo","speed_accuracy",1,NA,"post_correct_resp",98.6111111111111
81.1946034000002,0.1,"AG4EN28","2022_May_27_1010","square","speed_accuracy_first","Practice",13,"Target","NoGo","speed_accuracy",1,NA,"post_correct_resp",98.6111111111111
81.2946205999997,1.5,"AG4EN28","2022_May_27_1010","square","speed_accuracy_first","Practice",13,"ITI","NoGo","speed_accuracy",1,NA,"post_correct_resp",98.6111111111111
82.7944496999999,0.5,"AG4EN28","2022_May_27_1010","square","speed_accuracy_first","Practice",14,"Fixation","NoGo","speed_accuracy",1,NA,"post_correct_inh",98.6111111111111
83.2780713000002,0.1,"AG4EN28","2022_May_27_1010","square","speed_accuracy_first","Practice",14,"Target","NoGo","speed_accuracy",1,NA,"post_correct_inh",98.6111111111111
83.3779359,1.5,"AG4EN28","2022_May_27_1010","square","speed_accuracy_first","Practice",14,"ITI","NoGo","speed_accuracy",1,NA,"post_correct_inh",98.6111111111111
93.1389104,0.5,"AG4EN28","2022_May_27_1010","square","speed_accuracy_first","MainTask",0,"Fixation","Go","speed_accuracy",1,0.469119999999748,"post_correct_inh",98.6111111111111
93.6280531000002,0.1,"AG4EN28","2022_May_27_1010","square","speed_accuracy_first","MainTask",0,"Target","Go","speed_accuracy",1,0.469119999999748,"post_correct_inh",98.6111111111111
93.7280467999999,1.36911999999975,"AG4EN28","2022_May_27_1010","square","speed_accuracy_first","MainTask",0,"ITI","Go","speed_accuracy",1,0.469119999999748,"post_correct_inh",98.6111111111111
94.0971731,0,"AG4EN28","2022_May_27_1010","square","speed_accuracy_first","MainTask",0,"Response","Go","speed_accuracy",1,0.469119999999748,"post_correct_inh",98.6111111111111
95.1549961000001,0.5,"AG4EN28","2022_May_27_1010","square","speed_accuracy_first","MainTask",1,"Fixation","Go","speed_accuracy",1,0.38860990000012,"post_correct_resp",98.6111111111111
95.6445634000002,0.1,"AG4EN28","2022_May_27_1010","square","speed_accuracy_first","MainTask",1,"Target","Go","speed_accuracy",1,0.38860990000012,"post_correct_resp",98.6111111111111
95.7438155999998,1.28860990000012,"AG4EN28","2022_May_27_1010","square","speed_accuracy_first","MainTask",1,"ITI","Go","speed_accuracy",1,0.38860990000012,"post_correct_resp",98.6111111111111
96.0331733000003,0,"AG4EN28","2022_May_27_1010","square","speed_accuracy_first","MainTask",1,"Response","Go","speed_accuracy",1,0.38860990000012,"post_correct_resp",98.6111111111111
97.0924630999998,0.5,"AG4EN28","2022_May_27_1010","square","speed_accuracy_first","MainTask",2,"Fixation","Go","speed_accuracy",1,0.350186599999688,"post_correct_resp",98.6111111111111
97.5780004999997,0.1,"AG4EN28","2022_May_27_1010","square","speed_accuracy_first","MainTask",2,"Target","Go","speed_accuracy",1,0.350186599999688,"post_correct_resp",98.6111111111111
97.6780244000001,1.25018659999969,"AG4EN28","2022_May_27_1010","square","speed_accuracy_first","MainTask",2,"ITI","Go","speed_accuracy",1,0.350186599999688,"post_correct_resp",98.6111111111111
97.9281870999994,0,"AG4EN28","2022_May_27_1010","square","speed_accuracy_first","MainTask",2,"Response","Go","speed_accuracy",1,0.350186599999688,"post_correct_resp",98.6111111111111
98.9623068000001,0.5,"AG4EN28","2022_May_27_1010","square","speed_accuracy_first","MainTask",3,"Fixation","NoGo","speed_accuracy",1,NA,"post_correct_resp",98.6111111111111
99.4612465999999,0.1,"AG4EN28","2022_May_27_1010","square","speed_accuracy_first","MainTask",3,"Target","NoGo","speed_accuracy",1,NA,"post_correct_resp",98.6111111111111
99.5613424000003,1.5,"AG4EN28","2022_May_27_1010","square","speed_accuracy_first","MainTask",3,"ITI","NoGo","speed_accuracy",1,NA,"post_correct_resp",98.6111111111111
101.0796056,0.5,"AG4EN28","2022_May_27_1010","square","speed_accuracy_first","MainTask",4,"Fixation","Go","speed_accuracy",1,0.375360700000783,"post_correct_inh",98.6111111111111
101.5779842,0.1,"AG4EN28","2022_May_27_1010","square","speed_accuracy_first","MainTask",4,"Target","Go","speed_accuracy",1,0.375360700000783,"post_correct_inh",98.6111111111111
101.6779143,1.27536070000078,"AG4EN28","2022_May_27_1010","square","speed_accuracy_first","MainTask",4,"ITI","Go","speed_accuracy",1,0.375360700000783,"post_correct_inh",98.6111111111111
101.953344900001,0,"AG4EN28","2022_May_27_1010","square","speed_accuracy_first","MainTask",4,"Response","Go","speed_accuracy",1,0.375360700000783,"post_correct_inh",98.6111111111111
103.0091238,0.5,"AG4EN28","2022_May_27_1010","square","speed_accuracy_first","MainTask",5,"Fixation","Go","speed_accuracy",1,0.360538600000837,"post_correct_resp",98.6111111111111
103.4946722,0.1,"AG4EN28","2022_May_27_1010","square","speed_accuracy_first","MainTask",5,"Target","Go","speed_accuracy",1,0.360538600000837,"post_correct_resp",98.6111111111111
103.5946639,1.26053860000084,"AG4EN28","2022_May_27_1010","square","speed_accuracy_first","MainTask",5,"ITI","Go","speed_accuracy",1,0.360538600000837,"post_correct_resp",98.6111111111111
103.855210800001,0,"AG4EN28","2022_May_27_1010","square","speed_accuracy_first","MainTask",5,"Response","Go","speed_accuracy",1,0.360538600000837,"post_correct_resp",98.6111111111111
104.8954026,0.5,"AG4EN28","2022_May_27_1010","square","speed_accuracy_first","MainTask",6,"Fixation","Go","speed_accuracy",1,0.395445000000109,"post_correct_resp",98.6111111111111
105.394677400001,0.1,"AG4EN28","2022_May_27_1010","square","speed_accuracy_first","MainTask",6,"Target","Go","speed_accuracy",1,0.395445000000109,"post_correct_resp",98.6111111111111
105.494643,1.29544500000011,"AG4EN28","2022_May_27_1010","square","speed_accuracy_first","MainTask",6,"ITI","Go","speed_accuracy",1,0.395445000000109,"post_correct_resp",98.6111111111111
105.790122400001,0,"AG4EN28","2022_May_27_1010","square","speed_accuracy_first","MainTask",6,"Response","Go","speed_accuracy",1,0.395445000000109,"post_correct_resp",98.6111111111111
106.842424,0.5,"AG4EN28","2022_May_27_1010","square","speed_accuracy_first","MainTask",7,"Fixation","Go","speed_accuracy",1,0.375517800000125,"post_correct_resp",98.6111111111111
107.3276219,0.1,"AG4EN28","2022_May_27_1010","square","speed_accuracy_first","MainTask",7,"Target","Go","speed_accuracy",1,0.375517800000125,"post_correct_resp",98.6111111111111
107.4280894,1.27551780000013,"AG4EN28","2022_May_27_1010","square","speed_accuracy_first","MainTask",7,"ITI","Go","speed_accuracy",1,0.375517800000125,"post_correct_resp",98.6111111111111
107.7031397,0,"AG4EN28","2022_May_27_1010","square","speed_accuracy_first","MainTask",7,"Response","Go","speed_accuracy",1,0.375517800000125,"post_correct_resp",98.6111111111111
108.759180900001,0.5,"AG4EN28","2022_May_27_1010","square","speed_accuracy_first","MainTask",8,"Fixation","Go","speed_accuracy",1,0.360787300000084,"post_correct_resp",98.6111111111111
109.2445685,0.1,"AG4EN28","2022_May_27_1010","square","speed_accuracy_first","MainTask",8,"Target","Go","speed_accuracy",1,0.360787300000084,"post_correct_resp",98.6111111111111
109.3445561,1.26078730000008,"AG4EN28","2022_May_27_1010","square","speed_accuracy_first","MainTask",8,"ITI","Go","speed_accuracy",1,0.360787300000084,"post_correct_resp",98.6111111111111
109.6053558,0,"AG4EN28","2022_May_27_1010","square","speed_accuracy_first","MainTask",8,"Response","Go","speed_accuracy",1,0.360787300000084,"post_correct_resp",98.6111111111111
110.6454229,0.5,"AG4EN28","2022_May_27_1010","square","speed_accuracy_first","MainTask",9,"Fixation","Go","speed_accuracy",1,0.281481900000472,"post_correct_resp",98.6111111111111
111.144661,0.1,"AG4EN28","2022_May_27_1010","square","speed_accuracy_first","MainTask",9,"Target","Go","speed_accuracy",1,0.281481900000472,"post_correct_resp",98.6111111111111
111.2446436,1.18148190000047,"AG4EN28","2022_May_27_1010","square","speed_accuracy_first","MainTask",9,"ITI","Go","speed_accuracy",1,0.281481900000472,"post_correct_resp",98.6111111111111
111.426142900001,0,"AG4EN28","2022_May_27_1010","square","speed_accuracy_first","MainTask",9,"Response","Go","speed_accuracy",1,0.281481900000472,"post_correct_resp",98.6111111111111
112.462020800001,0.5,"AG4EN28","2022_May_27_1010","square","speed_accuracy_first","MainTask",10,"Fixation","Go","speed_accuracy",1,0.330750299999636,"post_correct_resp",98.6111111111111
112.9613287,0.1,"AG4EN28","2022_May_27_1010","square","speed_accuracy_first","MainTask",10,"Target","Go","speed_accuracy",1,0.330750299999636,"post_correct_resp",98.6111111111111
113.0612362,1.23075029999964,"AG4EN28","2022_May_27_1010","square","speed_accuracy_first","MainTask",10,"ITI","Go","speed_accuracy",1,0.330750299999636,"post_correct_resp",98.6111111111111
113.292079,0,"AG4EN28","2022_May_27_1010","square","speed_accuracy_first","MainTask",10,"Response","Go","speed_accuracy",1,0.330750299999636,"post_correct_resp",98.6111111111111
114.3287994,0.5,"AG4EN28","2022_May_27_1010","square","speed_accuracy_first","MainTask",11,"Fixation","Go","speed_accuracy",1,0.269133200000397,"post_correct_resp",98.6111111111111
114.8279875,0.1,"AG4EN28","2022_May_27_1010","square","speed_accuracy_first","MainTask",11,"Target","Go","speed_accuracy",1,0.269133200000397,"post_correct_resp",98.6111111111111
114.9280009,1.1691332000004,"AG4EN28","2022_May_27_1010","square","speed_accuracy_first","MainTask",11,"ITI","Go","speed_accuracy",1,0.269133200000397,"post_correct_resp",98.6111111111111
115.0971207,0,"AG4EN28","2022_May_27_1010","square","speed_accuracy_first","MainTask",11,"Response","Go","speed_accuracy",1,0.269133200000397,"post_correct_resp",98.6111111111111
116.1453401,0.5,"AG4EN28","2022_May_27_1010","square","speed_accuracy_first","MainTask",12,"Fixation","Go","speed_accuracy",1,0.263913199999479,"post_correct_resp",98.6111111111111
116.644697,0.1,"AG4EN28","2022_May_27_1010","square","speed_accuracy_first","MainTask",12,"Target","Go","speed_accuracy",1,0.263913199999479,"post_correct_resp",98.6111111111111
116.744721,1.16391319999948,"AG4EN28","2022_May_27_1010","square","speed_accuracy_first","MainTask",12,"ITI","Go","speed_accuracy",1,0.263913199999479,"post_correct_resp",98.6111111111111
116.908610199999,0,"AG4EN28","2022_May_27_1010","square","speed_accuracy_first","MainTask",12,"Response","Go","speed_accuracy",1,0.263913199999479,"post_correct_resp",98.6111111111111
117.9462032,0.5,"AG4EN28","2022_May_27_1010","square","speed_accuracy_first","MainTask",13,"Fixation","NoGo","speed_accuracy",1,NA,"post_correct_resp",98.6111111111111
118.4446533,0.1,"AG4EN28","2022_May_27_1010","square","speed_accuracy_first","MainTask",13,"Target","NoGo","speed_accuracy",1,NA,"post_correct_resp",98.6111111111111
118.544691,1.5,"AG4EN28","2022_May_27_1010","square","speed_accuracy_first","MainTask",13,"ITI","NoGo","speed_accuracy",1,NA,"post_correct_resp",98.6111111111111
120.0628392,0.5,"AG4EN28","2022_May_27_1010","square","speed_accuracy_first","MainTask",14,"Fixation","Go","speed_accuracy",1,0.32890259999931,"post_correct_inh",98.6111111111111
120.5612149,0.1,"AG4EN28","2022_May_27_1010","square","speed_accuracy_first","MainTask",14,"Target","Go","speed_accuracy",1,0.32890259999931,"post_correct_inh",98.6111111111111
120.6612102,1.22890259999931,"AG4EN28","2022_May_27_1010","square","speed_accuracy_first","MainTask",14,"ITI","Go","speed_accuracy",1,0.32890259999931,"post_correct_inh",98.6111111111111
120.890117499999,0,"AG4EN28","2022_May_27_1010","square","speed_accuracy_first","MainTask",14,"Response","Go","speed_accuracy",1,0.32890259999931,"post_correct_inh",98.6111111111111
121.9294232,0.5,"AG4EN28","2022_May_27_1010","square","speed_accuracy_first","MainTask",15,"Fixation","NoGo","speed_accuracy",1,NA,"post_correct_resp",98.6111111111111
122.427868700001,0.1,"AG4EN28","2022_May_27_1010","square","speed_accuracy_first","MainTask",15,"Target","NoGo","speed_accuracy",1,NA,"post_correct_resp",98.6111111111111
122.5279716,1.5,"AG4EN28","2022_May_27_1010","square","speed_accuracy_first","MainTask",15,"ITI","NoGo","speed_accuracy",1,NA,"post_correct_resp",98.6111111111111
124.0451843,0.5,"AG4EN28","2022_May_27_1010","square","speed_accuracy_first","MainTask",16,"Fixation","Go","speed_accuracy",1,0.265400899999804,"post_break",98.6111111111111
124.5446917,0.1,"AG4EN28","2022_May_27_1010","square","speed_accuracy_first","MainTask",16,"Target","Go","speed_accuracy",1,0.265400899999804,"post_break",98.6111111111111
124.6446256,1.1654008999998,"AG4EN28","2022_May_27_1010","square","speed_accuracy_first","MainTask",16,"ITI","Go","speed_accuracy",1,0.265400899999804,"post_break",98.6111111111111
124.8100926,0,"AG4EN28","2022_May_27_1010","square","speed_accuracy_first","MainTask",16,"Response","Go","speed_accuracy",1,0.265400899999804,"post_break",98.6111111111111
125.8462606,0.5,"AG4EN28","2022_May_27_1010","square","speed_accuracy_first","MainTask",17,"Fixation","NoGo","speed_accuracy",1,NA,"post_correct_resp",98.6111111111111
126.3446462,0.1,"AG4EN28","2022_May_27_1010","square","speed_accuracy_first","MainTask",17,"Target","NoGo","speed_accuracy",1,NA,"post_correct_resp",98.6111111111111
126.4446572,1.5,"AG4EN28","2022_May_27_1010","square","speed_accuracy_first","MainTask",17,"ITI","NoGo","speed_accuracy",1,NA,"post_correct_resp",98.6111111111111
127.9461521,0.5,"AG4EN28","2022_May_27_1010","square","speed_accuracy_first","MainTask",18,"Fixation","Go","speed_accuracy",1,0.3514497999995,"post_correct_inh",98.6111111111111
128.444695,0.1,"AG4EN28","2022_May_27_1010","square","speed_accuracy_first","MainTask",18,"Target","Go","speed_accuracy",1,0.3514497999995,"post_correct_inh",98.6111111111111
128.544721400001,1.2514497999995,"AG4EN28","2022_May_27_1010","square","speed_accuracy_first","MainTask",18,"ITI","Go","speed_accuracy",1,0.3514497999995,"post_correct_inh",98.6111111111111
128.7961448,0,"AG4EN28","2022_May_27_1010","square","speed_accuracy_first","MainTask",18,"Response","Go","speed_accuracy",1,0.3514497999995,"post_correct_inh",98.6111111111111
129.8295268,0.5,"AG4EN28","2022_May_27_1010","square","speed_accuracy_first","MainTask",19,"Fixation","NoGo","speed_accuracy",1,NA,"post_correct_resp",98.6111111111111
130.3278487,0.1,"AG4EN28","2022_May_27_1010","square","speed_accuracy_first","MainTask",19,"Target","NoGo","speed_accuracy",1,NA,"post_correct_resp",98.6111111111111
130.427945500001,1.5,"AG4EN28","2022_May_27_1010","square","speed_accuracy_first","MainTask",19,"ITI","NoGo","speed_accuracy",1,NA,"post_correct_resp",98.6111111111111
131.9454378,0.5,"AG4EN28","2022_May_27_1010","square","speed_accuracy_first","MainTask",20,"Fixation","NoGo","speed_accuracy",1,NA,"post_correct_inh",98.6111111111111
132.4446267,0.1,"AG4EN28","2022_May_27_1010","square","speed_accuracy_first","MainTask",20,"Target","NoGo","speed_accuracy",1,NA,"post_correct_inh",98.6111111111111
132.5446709,1.5,"AG4EN28","2022_May_27_1010","square","speed_accuracy_first","MainTask",20,"ITI","NoGo","speed_accuracy",1,NA,"post_correct_inh",98.6111111111111
134.0628811,0.5,"AG4EN28","2022_May_27_1010","square","speed_accuracy_first","MainTask",21,"Fixation","Go","speed_accuracy",1,0.409334799999669,"post_correct_inh",98.6111111111111
134.5609955,0.1,"AG4EN28","2022_May_27_1010","square","speed_accuracy_first","MainTask",21,"Target","Go","speed_accuracy",1,0.409334799999669,"post_correct_inh",98.6111111111111
134.6613134,1.30933479999967,"AG4EN28","2022_May_27_1010","square","speed_accuracy_first","MainTask",21,"ITI","Go","speed_accuracy",1,0.409334799999669,"post_correct_inh",98.6111111111111
134.9703303,0,"AG4EN28","2022_May_27_1010","square","speed_accuracy_first","MainTask",21,"Response","Go","speed_accuracy",1,0.409334799999669,"post_correct_inh",98.6111111111111
136.0120512,0.5,"AG4EN28","2022_May_27_1010","square","speed_accuracy_first","MainTask",22,"Fixation","Go","speed_accuracy",1,0.338761900000463,"post_correct_resp",98.6111111111111
136.511338400001,0.1,"AG4EN28","2022_May_27_1010","square","speed_accuracy_first","MainTask",22,"Target","Go","speed_accuracy",1,0.338761900000463,"post_correct_resp",98.6111111111111
136.6113087,1.23876190000046,"AG4EN28","2022_May_27_1010","square","speed_accuracy_first","MainTask",22,"ITI","Go","speed_accuracy",1,0.338761900000463,"post_correct_resp",98.6111111111111
136.850100300001,0,"AG4EN28","2022_May_27_1010","square","speed_accuracy_first","MainTask",22,"Response","Go","speed_accuracy",1,0.338761900000463,"post_correct_resp",98.6111111111111
137.9091288,0.5,"AG4EN28","2022_May_27_1010","square","speed_accuracy_first","MainTask",23,"Fixation","Go","speed_accuracy",1,0.366494100000637,"post_correct_resp",98.6111111111111
138.3946189,0.1,"AG4EN28","2022_May_27_1010","square","speed_accuracy_first","MainTask",23,"Target","Go","speed_accuracy",1,0.366494100000637,"post_correct_resp",98.6111111111111
138.494700400001,1.26649410000064,"AG4EN28","2022_May_27_1010","square","speed_accuracy_first","MainTask",23,"ITI","Go","speed_accuracy",1,0.366494100000637,"post_correct_resp",98.6111111111111
138.761113,0,"AG4EN28","2022_May_27_1010","square","speed_accuracy_first","MainTask",23,"Response","Go","speed_accuracy",1,0.366494100000637,"post_correct_resp",98.6111111111111
139.8091684,0.5,"AG4EN28","2022_May_27_1010","square","speed_accuracy_first","MainTask",24,"Fixation","Go","speed_accuracy",1,0.299456099999588,"post_correct_resp",98.6111111111111
140.294648300001,0.1,"AG4EN28","2022_May_27_1010","square","speed_accuracy_first","MainTask",24,"Target","Go","speed_accuracy",1,0.299456099999588,"post_correct_resp",98.6111111111111
140.3946133,1.19945609999959,"AG4EN28","2022_May_27_1010","square","speed_accuracy_first","MainTask",24,"ITI","Go","speed_accuracy",1,0.299456099999588,"post_correct_resp",98.6111111111111
140.5941044,0,"AG4EN28","2022_May_27_1010","square","speed_accuracy_first","MainTask",24,"Response","Go","speed_accuracy",1,0.299456099999588,"post_correct_resp",98.6111111111111
141.6285602,0.5,"AG4EN28","2022_May_27_1010","square","speed_accuracy_first","MainTask",25,"Fixation","NoGo","speed_accuracy",1,NA,"post_correct_resp",98.6111111111111
142.1279113,0.1,"AG4EN28","2022_May_27_1010","square","speed_accuracy_first","MainTask",25,"Target","NoGo","speed_accuracy",1,NA,"post_correct_resp",98.6111111111111
142.2279386,1.5,"AG4EN28","2022_May_27_1010","square","speed_accuracy_first","MainTask",25,"ITI","NoGo","speed_accuracy",1,NA,"post_correct_resp",98.6111111111111
143.745381700001,0.5,"AG4EN28","2022_May_27_1010","square","speed_accuracy_first","MainTask",26,"Fixation","Go","speed_accuracy",1,0.367457999999715,"post_correct_inh",98.6111111111111
144.2445989,0.1,"AG4EN28","2022_May_27_1010","square","speed_accuracy_first","MainTask",26,"Target","Go","speed_accuracy",1,0.367457999999715,"post_correct_inh",98.6111111111111
144.344673000001,1.26745799999971,"AG4EN28","2022_May_27_1010","square","speed_accuracy_first","MainTask",26,"ITI","Go","speed_accuracy",1,0.367457999999715,"post_correct_inh",98.6111111111111
144.6120569,0,"AG4EN28","2022_May_27_1010","square","speed_accuracy_first","MainTask",26,"Response","Go","speed_accuracy",1,0.367457999999715,"post_correct_inh",98.6111111111111
145.6455808,0.5,"AG4EN28","2022_May_27_1010","square","speed_accuracy_first","MainTask",27,"Fixation","Go","speed_accuracy",1,0.327531300000373,"post_correct_resp",98.6111111111111
146.1446367,0.1,"AG4EN28","2022_May_27_1010","square","speed_accuracy_first","MainTask",27,"Target","Go","speed_accuracy",1,0.327531300000373,"post_correct_resp",98.6111111111111
146.2446158,1.22753130000037,"AG4EN28","2022_May_27_1010","square","speed_accuracy_first","MainTask",27,"ITI","Go","speed_accuracy",1,0.327531300000373,"post_correct_resp",98.6111111111111
146.472168,0,"AG4EN28","2022_May_27_1010","square","speed_accuracy_first","MainTask",27,"Response","Go","speed_accuracy",1,0.327531300000373,"post_correct_resp",98.6111111111111
147.5129379,0.5,"AG4EN28","2022_May_27_1010","square","speed_accuracy_first","MainTask",28,"Fixation","NoGo","speed_accuracy",1,NA,"post_correct_resp",98.6111111111111
148.011261600001,0.1,"AG4EN28","2022_May_27_1010","square","speed_accuracy_first","MainTask",28,"Target","NoGo","speed_accuracy",1,NA,"post_correct_resp",98.6111111111111
148.1112764,1.5,"AG4EN28","2022_May_27_1010","square","speed_accuracy_first","MainTask",28,"ITI","NoGo","speed_accuracy",1,NA,"post_correct_resp",98.6111111111111
149.6286748,0.5,"AG4EN28","2022_May_27_1010","square","speed_accuracy_first","MainTask",29,"Fixation","NoGo","speed_accuracy",1,NA,"post_correct_inh",98.6111111111111
150.1279516,0.1,"AG4EN28","2022_May_27_1010","square","speed_accuracy_first","MainTask",29,"Target","NoGo","speed_accuracy",1,NA,"post_correct_inh",98.6111111111111
150.2279298,1.5,"AG4EN28","2022_May_27_1010","square","speed_accuracy_first","MainTask",29,"ITI","NoGo","speed_accuracy",1,NA,"post_correct_inh",98.6111111111111
151.7287312,0.5,"AG4EN28","2022_May_27_1010","square","speed_accuracy_first","MainTask",30,"Fixation","NoGo","speed_accuracy",1,NA,"post_correct_inh",98.6111111111111
152.2279394,0.1,"AG4EN28","2022_May_27_1010","square","speed_accuracy_first","MainTask",30,"Target","NoGo","speed_accuracy",1,NA,"post_correct_inh",98.6111111111111
152.3279335,1.5,"AG4EN28","2022_May_27_1010","square","speed_accuracy_first","MainTask",30,"ITI","NoGo","speed_accuracy",1,NA,"post_correct_inh",98.6111111111111
153.8590353,0.5,"AG4EN28","2022_May_27_1010","square","speed_accuracy_first","MainTask",31,"Fixation","NoGo","speed_accuracy",1,NA,"post_correct_inh",98.6111111111111
154.3446098,0.1,"AG4EN28","2022_May_27_1010","square","speed_accuracy_first","MainTask",31,"Target","NoGo","speed_accuracy",1,NA,"post_correct_inh",98.6111111111111
154.4446397,1.5,"AG4EN28","2022_May_27_1010","square","speed_accuracy_first","MainTask",31,"ITI","NoGo","speed_accuracy",1,NA,"post_correct_inh",98.6111111111111
155.9620034,0.5,"AG4EN28","2022_May_27_1010","square","speed_accuracy_first","MainTask",32,"Fixation","NoGo","speed_accuracy",1,NA,"post_correct_inh",98.6111111111111
156.4612258,0.1,"AG4EN28","2022_May_27_1010","square","speed_accuracy_first","MainTask",32,"Target","NoGo","speed_accuracy",1,NA,"post_correct_inh",98.6111111111111
156.5612633,1.5,"AG4EN28","2022_May_27_1010","square","speed_accuracy_first","MainTask",32,"ITI","NoGo","speed_accuracy",1,NA,"post_correct_inh",98.6111111111111
158.062756,0.5,"AG4EN28","2022_May_27_1010","square","speed_accuracy_first","MainTask",33,"Fixation","Go","speed_accuracy",1,0.482818399999815,"post_correct_inh",98.6111111111111
158.5612486,0.1,"AG4EN28","2022_May_27_1010","square","speed_accuracy_first","MainTask",33,"Target","Go","speed_accuracy",1,0.482818399999815,"post_correct_inh",98.6111111111111
158.6612596,1.38281839999981,"AG4EN28","2022_May_27_1010","square","speed_accuracy_first","MainTask",33,"ITI","Go","speed_accuracy",1,0.482818399999815,"post_correct_inh",98.6111111111111
159.044067,0,"AG4EN28","2022_May_27_1010","square","speed_accuracy_first","MainTask",33,"Response","Go","speed_accuracy",1,0.482818399999815,"post_correct_inh",98.6111111111111
160.0787346,0.5,"AG4EN28","2022_May_27_1010","square","speed_accuracy_first","MainTask",34,"Fixation","Go","speed_accuracy",1,0.306612600000335,"post_correct_resp",98.6111111111111
160.5774498,0.1,"AG4EN28","2022_May_27_1010","square","speed_accuracy_first","MainTask",34,"Target","Go","speed_accuracy",1,0.306612600000335,"post_correct_resp",98.6111111111111
160.6778223,1.20661260000033,"AG4EN28","2022_May_27_1010","square","speed_accuracy_first","MainTask",34,"ITI","Go","speed_accuracy",1,0.306612600000335,"post_correct_resp",98.6111111111111
160.8840624,0,"AG4EN28","2022_May_27_1010","square","speed_accuracy_first","MainTask",34,"Response","Go","speed_accuracy",1,0.306612600000335,"post_correct_resp",98.6111111111111
161.9286099,0.5,"AG4EN28","2022_May_27_1010","square","speed_accuracy_first","MainTask",35,"Fixation","Go","speed_accuracy",1,0.350360600000386,"post_correct_resp",98.6111111111111
162.4279435,0.1,"AG4EN28","2022_May_27_1010","square","speed_accuracy_first","MainTask",35,"Target","Go","speed_accuracy",1,0.350360600000386,"post_correct_resp",98.6111111111111
162.5279246,1.25036060000039,"AG4EN28","2022_May_27_1010","square","speed_accuracy_first","MainTask",35,"ITI","Go","speed_accuracy",1,0.350360600000386,"post_correct_resp",98.6111111111111
162.7783041,0,"AG4EN28","2022_May_27_1010","square","speed_accuracy_first","MainTask",35,"Response","Go","speed_accuracy",1,0.350360600000386,"post_correct_resp",98.6111111111111
163.812047500001,0.5,"AG4EN28","2022_May_27_1010","square","speed_accuracy_first","MainTask",36,"Fixation","Go","speed_accuracy",1,0.384832300000198,"post_correct_resp",98.6111111111111
164.3112553,0.1,"AG4EN28","2022_May_27_1010","square","speed_accuracy_first","MainTask",36,"Target","Go","speed_accuracy",1,0.384832300000198,"post_correct_resp",98.6111111111111
164.4112511,1.2848323000002,"AG4EN28","2022_May_27_1010","square","speed_accuracy_first","MainTask",36,"ITI","Go","speed_accuracy",1,0.384832300000198,"post_correct_resp",98.6111111111111
164.6960876,0,"AG4EN28","2022_May_27_1010","square","speed_accuracy_first","MainTask",36,"Response","Go","speed_accuracy",1,0.384832300000198,"post_correct_resp",98.6111111111111
165.7422867,0.5,"AG4EN28","2022_May_27_1010","square","speed_accuracy_first","MainTask",37,"Fixation","Go","speed_accuracy",1,0.264104400000178,"post_correct_resp",98.6111111111111
166.227957,0.1,"AG4EN28","2022_May_27_1010","square","speed_accuracy_first","MainTask",37,"Target","Go","speed_accuracy",1,0.264104400000178,"post_correct_resp",98.6111111111111
166.3279321,1.16410440000018,"AG4EN28","2022_May_27_1010","square","speed_accuracy_first","MainTask",37,"ITI","Go","speed_accuracy",1,0.264104400000178,"post_correct_resp",98.6111111111111
166.4920614,0,"AG4EN28","2022_May_27_1010","square","speed_accuracy_first","MainTask",37,"Response","Go","speed_accuracy",1,0.264104400000178,"post_correct_resp",98.6111111111111
167.5289026,0.5,"AG4EN28","2022_May_27_1010","square","speed_accuracy_first","MainTask",38,"Fixation","Go","speed_accuracy",1,0.231313000000227,"post_correct_resp",98.6111111111111
168.027925,0.1,"AG4EN28","2022_May_27_1010","square","speed_accuracy_first","MainTask",38,"Target","Go","speed_accuracy",1,0.231313000000227,"post_correct_resp",98.6111111111111
168.1278528,1.13131300000023,"AG4EN28","2022_May_27_1010","square","speed_accuracy_first","MainTask",38,"ITI","Go","speed_accuracy",1,0.231313000000227,"post_correct_resp",98.6111111111111
168.259238000001,0,"AG4EN28","2022_May_27_1010","square","speed_accuracy_first","MainTask",38,"Response","Go","speed_accuracy",1,0.231313000000227,"post_correct_resp",98.6111111111111
169.2953971,0.5,"AG4EN28","2022_May_27_1010","square","speed_accuracy_first","MainTask",39,"Fixation","Go","speed_accuracy",1,0.239561099999264,"post_correct_resp",98.6111111111111
169.7944906,0.1,"AG4EN28","2022_May_27_1010","square","speed_accuracy_first","MainTask",39,"Target","Go","speed_accuracy",1,0.239561099999264,"post_correct_resp",98.6111111111111
169.894481400001,1.13956109999926,"AG4EN28","2022_May_27_1010","square","speed_accuracy_first","MainTask",39,"ITI","Go","speed_accuracy",1,0.239561099999264,"post_correct_resp",98.6111111111111
170.0340517,0,"AG4EN28","2022_May_27_1010","square","speed_accuracy_first","MainTask",39,"Response","Go","speed_accuracy",1,0.239561099999264,"post_correct_resp",98.6111111111111
171.079366200001,0.5,"AG4EN28","2022_May_27_1010","square","speed_accuracy_first","MainTask",40,"Fixation","NoGo","speed_accuracy",1,NA,"post_correct_resp",98.6111111111111
171.5779198,0.1,"AG4EN28","2022_May_27_1010","square","speed_accuracy_first","MainTask",40,"Target","NoGo","speed_accuracy",1,NA,"post_correct_resp",98.6111111111111
171.6778866,1.5,"AG4EN28","2022_May_27_1010","square","speed_accuracy_first","MainTask",40,"ITI","NoGo","speed_accuracy",1,NA,"post_correct_resp",98.6111111111111
173.195282000001,0.5,"AG4EN28","2022_May_27_1010","square","speed_accuracy_first","MainTask",41,"Fixation","NoGo","speed_accuracy",1,NA,"post_correct_inh",98.6111111111111
173.694563900001,0.1,"AG4EN28","2022_May_27_1010","square","speed_accuracy_first","MainTask",41,"Target","NoGo","speed_accuracy",1,NA,"post_correct_inh",98.6111111111111
173.7945681,1.5,"AG4EN28","2022_May_27_1010","square","speed_accuracy_first","MainTask",41,"ITI","NoGo","speed_accuracy",1,NA,"post_correct_inh",98.6111111111111
175.3127747,0.5,"AG4EN28","2022_May_27_1010","square","speed_accuracy_first","MainTask",42,"Fixation","Go","speed_accuracy",1,0.319921100000101,"post_correct_inh",98.6111111111111
175.8111717,0.1,"AG4EN28","2022_May_27_1010","square","speed_accuracy_first","MainTask",42,"Target","Go","speed_accuracy",1,0.319921100000101,"post_correct_inh",98.6111111111111
175.9112376,1.2199211000001,"AG4EN28","2022_May_27_1010","square","speed_accuracy_first","MainTask",42,"ITI","Go","speed_accuracy",1,0.319921100000101,"post_correct_inh",98.6111111111111
176.1310928,0,"AG4EN28","2022_May_27_1010","square","speed_accuracy_first","MainTask",42,"Response","Go","speed_accuracy",1,0.319921100000101,"post_correct_inh",98.6111111111111
177.1795025,0.5,"AG4EN28","2022_May_27_1010","square","speed_accuracy_first","MainTask",43,"Fixation","NoGo","speed_accuracy",1,NA,"post_correct_resp",98.6111111111111
177.6779047,0.1,"AG4EN28","2022_May_27_1010","square","speed_accuracy_first","MainTask",43,"Target","NoGo","speed_accuracy",1,NA,"post_correct_resp",98.6111111111111
177.777919300001,1.5,"AG4EN28","2022_May_27_1010","square","speed_accuracy_first","MainTask",43,"ITI","NoGo","speed_accuracy",1,NA,"post_correct_resp",98.6111111111111
179.296059,0.5,"AG4EN28","2022_May_27_1010","square","speed_accuracy_first","MainTask",44,"Fixation","Go","speed_accuracy",1,0.248665199999778,"post_correct_inh",98.6111111111111
179.7945533,0.1,"AG4EN28","2022_May_27_1010","square","speed_accuracy_first","MainTask",44,"Target","Go","speed_accuracy",1,0.248665199999778,"post_correct_inh",98.6111111111111
179.8945364,1.14866519999978,"AG4EN28","2022_May_27_1010","square","speed_accuracy_first","MainTask",44,"ITI","Go","speed_accuracy",1,0.248665199999778,"post_correct_inh",98.6111111111111
180.0432185,0,"AG4EN28","2022_May_27_1010","square","speed_accuracy_first","MainTask",44,"Response","Go","speed_accuracy",1,0.248665199999778,"post_correct_inh",98.6111111111111
181.0924625,0.5,"AG4EN28","2022_May_27_1010","square","speed_accuracy_first","MainTask",45,"Fixation","Go","speed_accuracy",1,0.316201499999806,"post_correct_resp",98.6111111111111
181.5778335,0.1,"AG4EN28","2022_May_27_1010","square","speed_accuracy_first","MainTask",45,"Target","Go","speed_accuracy",1,0.316201499999806,"post_correct_resp",98.6111111111111
181.6778081,1.21620149999981,"AG4EN28","2022_May_27_1010","square","speed_accuracy_first","MainTask",45,"ITI","Go","speed_accuracy",1,0.316201499999806,"post_correct_resp",98.6111111111111
181.894035,0,"AG4EN28","2022_May_27_1010","square","speed_accuracy_first","MainTask",45,"Response","Go","speed_accuracy",1,0.316201499999806,"post_correct_resp",98.6111111111111
182.9295058,0.5,"AG4EN28","2022_May_27_1010","square","speed_accuracy_first","MainTask",46,"Fixation","NoGo","speed_accuracy",1,NA,"post_correct_resp",98.6111111111111
183.4279704,0.1,"AG4EN28","2022_May_27_1010","square","speed_accuracy_first","MainTask",46,"Target","NoGo","speed_accuracy",1,NA,"post_correct_resp",98.6111111111111
183.5279195,1.5,"AG4EN28","2022_May_27_1010","square","speed_accuracy_first","MainTask",46,"ITI","NoGo","speed_accuracy",1,NA,"post_correct_resp",98.6111111111111
185.029428,0.5,"AG4EN28","2022_May_27_1010","square","speed_accuracy_first","MainTask",47,"Fixation","Go","speed_accuracy",1,0.329154100000778,"post_correct_inh",98.6111111111111
185.5279214,0.1,"AG4EN28","2022_May_27_1010","square","speed_accuracy_first","MainTask",47,"Target","Go","speed_accuracy",1,0.329154100000778,"post_correct_inh",98.6111111111111
185.6279076,1.22915410000078,"AG4EN28","2022_May_27_1010","square","speed_accuracy_first","MainTask",47,"ITI","Go","speed_accuracy",1,0.329154100000778,"post_correct_inh",98.6111111111111
185.857075500001,0,"AG4EN28","2022_May_27_1010","square","speed_accuracy_first","MainTask",47,"Response","Go","speed_accuracy",1,0.329154100000778,"post_correct_inh",98.6111111111111
186.9089377,0.5,"AG4EN28","2022_May_27_1010","square","speed_accuracy_first","MainTask",48,"Fixation","Go","speed_accuracy",1,0.366417500000352,"post_correct_resp",98.6111111111111
187.3946031,0.1,"AG4EN28","2022_May_27_1010","square","speed_accuracy_first","MainTask",48,"Target","Go","speed_accuracy",1,0.366417500000352,"post_correct_resp",98.6111111111111
187.494556000001,1.26641750000035,"AG4EN28","2022_May_27_1010","square","speed_accuracy_first","MainTask",48,"ITI","Go","speed_accuracy",1,0.366417500000352,"post_correct_resp",98.6111111111111
187.761020600001,0,"AG4EN28","2022_May_27_1010","square","speed_accuracy_first","MainTask",48,"Response","Go","speed_accuracy",1,0.366417500000352,"post_correct_resp",98.6111111111111
188.809046,0.5,"AG4EN28","2022_May_27_1010","square","speed_accuracy_first","MainTask",49,"Fixation","Go","speed_accuracy",1,0.444789000000128,"post_correct_resp",98.6111111111111
189.294542000001,0.1,"AG4EN28","2022_May_27_1010","square","speed_accuracy_first","MainTask",49,"Target","Go","speed_accuracy",1,0.444789000000128,"post_correct_resp",98.6111111111111
189.3945487,1.34478900000013,"AG4EN28","2022_May_27_1010","square","speed_accuracy_first","MainTask",49,"ITI","Go","speed_accuracy",1,0.444789000000128,"post_correct_resp",98.6111111111111
189.739331000001,0,"AG4EN28","2022_May_27_1010","square","speed_accuracy_first","MainTask",49,"Response","Go","speed_accuracy",1,0.444789000000128,"post_correct_resp",98.6111111111111
190.7925087,0.5,"AG4EN28","2022_May_27_1010","square","speed_accuracy_first","MainTask",50,"Fixation","Go","speed_accuracy",1,0.304304299999785,"post_correct_resp",98.6111111111111
191.2778584,0.1,"AG4EN28","2022_May_27_1010","square","speed_accuracy_first","MainTask",50,"Target","Go","speed_accuracy",1,0.304304299999785,"post_correct_resp",98.6111111111111
191.3777804,1.20430429999979,"AG4EN28","2022_May_27_1010","square","speed_accuracy_first","MainTask",50,"ITI","Go","speed_accuracy",1,0.304304299999785,"post_correct_resp",98.6111111111111
191.5821627,0,"AG4EN28","2022_May_27_1010","square","speed_accuracy_first","MainTask",50,"Response","Go","speed_accuracy",1,0.304304299999785,"post_correct_resp",98.6111111111111
192.6128306,0.5,"AG4EN28","2022_May_27_1010","square","speed_accuracy_first","MainTask",51,"Fixation","NoGo","speed_accuracy",1,NA,"post_correct_resp",98.6111111111111
193.1111146,0.1,"AG4EN28","2022_May_27_1010","square","speed_accuracy_first","MainTask",51,"Target","NoGo","speed_accuracy",1,NA,"post_correct_resp",98.6111111111111
193.2111777,1.5,"AG4EN28","2022_May_27_1010","square","speed_accuracy_first","MainTask",51,"ITI","NoGo","speed_accuracy",1,NA,"post_correct_resp",98.6111111111111
194.7294733,0.5,"AG4EN28","2022_May_27_1010","square","speed_accuracy_first","MainTask",52,"Fixation","Go","speed_accuracy",1,0.289677499999925,"post_correct_inh",98.6111111111111
195.2279213,0.1,"AG4EN28","2022_May_27_1010","square","speed_accuracy_first","MainTask",52,"Target","Go","speed_accuracy",1,0.289677499999925,"post_correct_inh",98.6111111111111
195.3277947,1.18967749999993,"AG4EN28","2022_May_27_1010","square","speed_accuracy_first","MainTask",52,"ITI","Go","speed_accuracy",1,0.289677499999925,"post_correct_inh",98.6111111111111
195.5175988,0,"AG4EN28","2022_May_27_1010","square","speed_accuracy_first","MainTask",52,"Response","Go","speed_accuracy",1,0.289677499999925,"post_correct_inh",98.6111111111111
196.562081900001,0.5,"AG4EN28","2022_May_27_1010","square","speed_accuracy_first","MainTask",53,"Fixation","Go","speed_accuracy",1,0.486802000000353,"post_correct_resp",98.6111111111111
197.0612253,0.1,"AG4EN28","2022_May_27_1010","square","speed_accuracy_first","MainTask",53,"Target","Go","speed_accuracy",1,0.486802000000353,"post_correct_resp",98.6111111111111
197.1612007,1.38680200000035,"AG4EN28","2022_May_27_1010","square","speed_accuracy_first","MainTask",53,"ITI","Go","speed_accuracy",1,0.486802000000353,"post_correct_resp",98.6111111111111
197.5480273,0,"AG4EN28","2022_May_27_1010","square","speed_accuracy_first","MainTask",53,"Response","Go","speed_accuracy",1,0.486802000000353,"post_correct_resp",98.6111111111111
198.6090797,0.5,"AG4EN28","2022_May_27_1010","square","speed_accuracy_first","MainTask",54,"Fixation","Go","speed_accuracy",1,0.362536800000271,"post_correct_resp",98.6111111111111
199.0945713,0.1,"AG4EN28","2022_May_27_1010","square","speed_accuracy_first","MainTask",54,"Target","Go","speed_accuracy",1,0.362536800000271,"post_correct_resp",98.6111111111111
199.194517200001,1.26253680000027,"AG4EN28","2022_May_27_1010","square","speed_accuracy_first","MainTask",54,"ITI","Go","speed_accuracy",1,0.362536800000271,"post_correct_resp",98.6111111111111
199.4571081,0,"AG4EN28","2022_May_27_1010","square","speed_accuracy_first","MainTask",54,"Response","Go","speed_accuracy",1,0.362536800000271,"post_correct_resp",98.6111111111111
200.508888,0.5,"AG4EN28","2022_May_27_1010","square","speed_accuracy_first","MainTask",55,"Fixation","Go","speed_accuracy",1,0.319849299999987,"post_correct_resp",98.6111111111111
200.9943924,0.1,"AG4EN28","2022_May_27_1010","square","speed_accuracy_first","MainTask",55,"Target","Go","speed_accuracy",1,0.319849299999987,"post_correct_resp",98.6111111111111
201.094514,1.21984929999999,"AG4EN28","2022_May_27_1010","square","speed_accuracy_first","MainTask",55,"ITI","Go","speed_accuracy",1,0.319849299999987,"post_correct_resp",98.6111111111111
201.3142417,0,"AG4EN28","2022_May_27_1010","square","speed_accuracy_first","MainTask",55,"Response","Go","speed_accuracy",1,0.319849299999987,"post_correct_resp",98.6111111111111
202.362087,0.5,"AG4EN28","2022_May_27_1010","square","speed_accuracy_first","MainTask",56,"Fixation","Go","speed_accuracy",1,0.308801800000765,"post_correct_resp",98.6111111111111
202.8611874,0.1,"AG4EN28","2022_May_27_1010","square","speed_accuracy_first","MainTask",56,"Target","Go","speed_accuracy",1,0.308801800000765,"post_correct_resp",98.6111111111111
202.9611946,1.20880180000076,"AG4EN28","2022_May_27_1010","square","speed_accuracy_first","MainTask",56,"ITI","Go","speed_accuracy",1,0.308801800000765,"post_correct_resp",98.6111111111111
203.169989200001,0,"AG4EN28","2022_May_27_1010","square","speed_accuracy_first","MainTask",56,"Response","Go","speed_accuracy",1,0.308801800000765,"post_correct_resp",98.6111111111111
204.211932,0.5,"AG4EN28","2022_May_27_1010","square","speed_accuracy_first","MainTask",57,"Fixation","Go","speed_accuracy",1,0.261940100000174,"post_correct_resp",98.6111111111111
204.7112356,0.1,"AG4EN28","2022_May_27_1010","square","speed_accuracy_first","MainTask",57,"Target","Go","speed_accuracy",1,0.261940100000174,"post_correct_resp",98.6111111111111
204.8112041,1.16194010000017,"AG4EN28","2022_May_27_1010","square","speed_accuracy_first","MainTask",57,"ITI","Go","speed_accuracy",1,0.261940100000174,"post_correct_resp",98.6111111111111
204.9731757,0,"AG4EN28","2022_May_27_1010","square","speed_accuracy_first","MainTask",57,"Response","Go","speed_accuracy",1,0.261940100000174,"post_correct_resp",98.6111111111111
206.0126282,0.5,"AG4EN28","2022_May_27_1010","square","speed_accuracy_first","MainTask",58,"Fixation","NoGo","speed_accuracy",1,NA,"post_correct_resp",98.6111111111111
206.5111878,0.1,"AG4EN28","2022_May_27_1010","square","speed_accuracy_first","MainTask",58,"Target","NoGo","speed_accuracy",1,NA,"post_correct_resp",98.6111111111111
206.6112095,1.5,"AG4EN28","2022_May_27_1010","square","speed_accuracy_first","MainTask",58,"ITI","NoGo","speed_accuracy",1,NA,"post_correct_resp",98.6111111111111
208.129356500001,0.5,"AG4EN28","2022_May_27_1010","square","speed_accuracy_first","MainTask",59,"Fixation","Go","speed_accuracy",1,0.299062599999161,"post_correct_inh",98.6111111111111
208.6279369,0.1,"AG4EN28","2022_May_27_1010","square","speed_accuracy_first","MainTask",59,"Target","Go","speed_accuracy",1,0.299062599999161,"post_correct_inh",98.6111111111111
208.7278054,1.19906259999916,"AG4EN28","2022_May_27_1010","square","speed_accuracy_first","MainTask",59,"ITI","Go","speed_accuracy",1,0.299062599999161,"post_correct_inh",98.6111111111111
208.9269995,0,"AG4EN28","2022_May_27_1010","square","speed_accuracy_first","MainTask",59,"Response","Go","speed_accuracy",1,0.299062599999161,"post_correct_inh",98.6111111111111
209.96189,0.5,"AG4EN28","2022_May_27_1010","square","speed_accuracy_first","MainTask",60,"Fixation","Go","speed_accuracy",1,0.385363899999902,"post_correct_resp",98.6111111111111
210.4606737,0.1,"AG4EN28","2022_May_27_1010","square","speed_accuracy_first","MainTask",60,"Target","Go","speed_accuracy",1,0.385363899999902,"post_correct_resp",98.6111111111111
210.5612096,1.2853638999999,"AG4EN28","2022_May_27_1010","square","speed_accuracy_first","MainTask",60,"ITI","Go","speed_accuracy",1,0.385363899999902,"post_correct_resp",98.6111111111111
210.8460376,0,"AG4EN28","2022_May_27_1010","square","speed_accuracy_first","MainTask",60,"Response","Go","speed_accuracy",1,0.385363899999902,"post_correct_resp",98.6111111111111
211.8794342,0.5,"AG4EN28","2022_May_27_1010","square","speed_accuracy_first","MainTask",61,"Fixation","NoGo","speed_accuracy",1,NA,"post_correct_resp",98.6111111111111
212.3773957,0.1,"AG4EN28","2022_May_27_1010","square","speed_accuracy_first","MainTask",61,"Target","NoGo","speed_accuracy",1,NA,"post_correct_resp",98.6111111111111
212.477845,1.5,"AG4EN28","2022_May_27_1010","square","speed_accuracy_first","MainTask",61,"ITI","NoGo","speed_accuracy",1,NA,"post_correct_resp",98.6111111111111
213.9957235,0.5,"AG4EN28","2022_May_27_1010","square","speed_accuracy_first","MainTask",62,"Fixation","Go","speed_accuracy",1,0.304550100000597,"post_correct_inh",98.6111111111111
214.4944573,0.1,"AG4EN28","2022_May_27_1010","square","speed_accuracy_first","MainTask",62,"Target","Go","speed_accuracy",1,0.304550100000597,"post_correct_inh",98.6111111111111
214.594465,1.2045501000006,"AG4EN28","2022_May_27_1010","square","speed_accuracy_first","MainTask",62,"ITI","Go","speed_accuracy",1,0.304550100000597,"post_correct_inh",98.6111111111111
214.799007400001,0,"AG4EN28","2022_May_27_1010","square","speed_accuracy_first","MainTask",62,"Response","Go","speed_accuracy",1,0.304550100000597,"post_correct_inh",98.6111111111111
215.8287218,0.5,"AG4EN28","2022_May_27_1010","square","speed_accuracy_first","MainTask",63,"Fixation","Go","speed_accuracy",1,0.3215110000001,"post_correct_resp",98.6111111111111
216.3274867,0.1,"AG4EN28","2022_May_27_1010","square","speed_accuracy_first","MainTask",63,"Target","Go","speed_accuracy",1,0.3215110000001,"post_correct_resp",98.6111111111111
216.4278808,1.2215110000001,"AG4EN28","2022_May_27_1010","square","speed_accuracy_first","MainTask",63,"ITI","Go","speed_accuracy",1,0.3215110000001,"post_correct_resp",98.6111111111111
216.6489977,0,"AG4EN28","2022_May_27_1010","square","speed_accuracy_first","MainTask",63,"Response","Go","speed_accuracy",1,0.3215110000001,"post_correct_resp",98.6111111111111
217.6961154,0.5,"AG4EN28","2022_May_27_1010","square","speed_accuracy_first","MainTask",64,"Fixation","NoGo","speed_accuracy",1,NA,"post_correct_resp",98.6111111111111
218.1945376,0.1,"AG4EN28","2022_May_27_1010","square","speed_accuracy_first","MainTask",64,"Target","NoGo","speed_accuracy",1,NA,"post_correct_resp",98.6111111111111
218.2945232,1.5,"AG4EN28","2022_May_27_1010","square","speed_accuracy_first","MainTask",64,"ITI","NoGo","speed_accuracy",1,NA,"post_correct_resp",98.6111111111111
219.8113294,0.5,"AG4EN28","2022_May_27_1010","square","speed_accuracy_first","MainTask",65,"Fixation","NoGo","speed_accuracy",1,NA,"post_correct_inh",98.6111111111111
220.3111783,0.1,"AG4EN28","2022_May_27_1010","square","speed_accuracy_first","MainTask",65,"Target","NoGo","speed_accuracy",1,NA,"post_correct_inh",98.6111111111111
220.4110571,1.5,"AG4EN28","2022_May_27_1010","square","speed_accuracy_first","MainTask",65,"ITI","NoGo","speed_accuracy",1,NA,"post_correct_inh",98.6111111111111
221.9293837,0.5,"AG4EN28","2022_May_27_1010","square","speed_accuracy_first","MainTask",66,"Fixation","Go","speed_accuracy",1,0.300384200000735,"post_correct_inh",98.6111111111111
222.427913,0.1,"AG4EN28","2022_May_27_1010","square","speed_accuracy_first","MainTask",66,"Target","Go","speed_accuracy",1,0.300384200000735,"post_correct_inh",98.6111111111111
222.5278558,1.20038420000074,"AG4EN28","2022_May_27_1010","square","speed_accuracy_first","MainTask",66,"ITI","Go","speed_accuracy",1,0.300384200000735,"post_correct_inh",98.6111111111111
222.728297200001,0,"AG4EN28","2022_May_27_1010","square","speed_accuracy_first","MainTask",66,"Response","Go","speed_accuracy",1,0.300384200000735,"post_correct_inh",98.6111111111111
223.761887000001,0.5,"AG4EN28","2022_May_27_1010","square","speed_accuracy_first","MainTask",67,"Fixation","Go","speed_accuracy",1,0.297215499999766,"post_correct_resp",98.6111111111111
224.261215,0.1,"AG4EN28","2022_May_27_1010","square","speed_accuracy_first","MainTask",67,"Target","Go","speed_accuracy",1,0.297215499999766,"post_correct_resp",98.6111111111111
224.3608116,1.19721549999977,"AG4EN28","2022_May_27_1010","square","speed_accuracy_first","MainTask",67,"ITI","Go","speed_accuracy",1,0.297215499999766,"post_correct_resp",98.6111111111111
224.5584305,0,"AG4EN28","2022_May_27_1010","square","speed_accuracy_first","MainTask",67,"Response","Go","speed_accuracy",1,0.297215499999766,"post_correct_resp",98.6111111111111
225.5951656,0.5,"AG4EN28","2022_May_27_1010","square","speed_accuracy_first","MainTask",68,"Fixation","Go","speed_accuracy",1,0.399441000000479,"post_correct_resp",98.6111111111111
226.0945119,0.1,"AG4EN28","2022_May_27_1010","square","speed_accuracy_first","MainTask",68,"Target","Go","speed_accuracy",1,0.399441000000479,"post_correct_resp",98.6111111111111
226.1945169,1.29944100000048,"AG4EN28","2022_May_27_1010","square","speed_accuracy_first","MainTask",68,"ITI","Go","speed_accuracy",1,0.399441000000479,"post_correct_resp",98.6111111111111
226.4939529,0,"AG4EN28","2022_May_27_1010","square","speed_accuracy_first","MainTask",68,"Response","Go","speed_accuracy",1,0.399441000000479,"post_correct_resp",98.6111111111111
227.5423872,0.5,"AG4EN28","2022_May_27_1010","square","speed_accuracy_first","MainTask",69,"Fixation","Go","speed_accuracy",1,0.336063599999761,"post_correct_resp",98.6111111111111
228.0278717,0.1,"AG4EN28","2022_May_27_1010","square","speed_accuracy_first","MainTask",69,"Target","Go","speed_accuracy",1,0.336063599999761,"post_correct_resp",98.6111111111111
228.1278929,1.23606359999976,"AG4EN28","2022_May_27_1010","square","speed_accuracy_first","MainTask",69,"ITI","Go","speed_accuracy",1,0.336063599999761,"post_correct_resp",98.6111111111111
228.3639353,0,"AG4EN28","2022_May_27_1010","square","speed_accuracy_first","MainTask",69,"Response","Go","speed_accuracy",1,0.336063599999761,"post_correct_resp",98.6111111111111
229.4119936,0.5,"AG4EN28","2022_May_27_1010","square","speed_accuracy_first","MainTask",70,"Fixation","Go","speed_accuracy",1,0.326849299999594,"post_correct_resp",98.6111111111111
229.9111497,0.1,"AG4EN28","2022_May_27_1010","square","speed_accuracy_first","MainTask",70,"Target","Go","speed_accuracy",1,0.326849299999594,"post_correct_resp",98.6111111111111
230.0111182,1.22684929999959,"AG4EN28","2022_May_27_1010","square","speed_accuracy_first","MainTask",70,"ITI","Go","speed_accuracy",1,0.326849299999594,"post_correct_resp",98.6111111111111
230.237999,0,"AG4EN28","2022_May_27_1010","square","speed_accuracy_first","MainTask",70,"Response","Go","speed_accuracy",1,0.326849299999594,"post_correct_resp",98.6111111111111
231.2795157,0.5,"AG4EN28","2022_May_27_1010","square","speed_accuracy_first","MainTask",71,"Fixation","NoGo","speed_accuracy",1,NA,"post_correct_resp",98.6111111111111
231.7779126,0.1,"AG4EN28","2022_May_27_1010","square","speed_accuracy_first","MainTask",71,"Target","NoGo","speed_accuracy",1,NA,"post_correct_resp",98.6111111111111
231.87776,1.5,"AG4EN28","2022_May_27_1010","square","speed_accuracy_first","MainTask",71,"ITI","NoGo","speed_accuracy",1,NA,"post_correct_resp",98.6111111111111
233.3959307,0.5,"AG4EN28","2022_May_27_1010","square","speed_accuracy_first","MainTask",72,"Fixation","Go","speed_accuracy",1,0.320900400000028,"post_correct_inh",98.6111111111111
233.894085,0.1,"AG4EN28","2022_May_27_1010","square","speed_accuracy_first","MainTask",72,"Target","Go","speed_accuracy",1,0.320900400000028,"post_correct_inh",98.6111111111111
233.9943716,1.22090040000003,"AG4EN28","2022_May_27_1010","square","speed_accuracy_first","MainTask",72,"ITI","Go","speed_accuracy",1,0.320900400000028,"post_correct_inh",98.6111111111111
234.2149854,0,"AG4EN28","2022_May_27_1010","square","speed_accuracy_first","MainTask",72,"Response","Go","speed_accuracy",1,0.320900400000028,"post_correct_inh",98.6111111111111
235.2626539,0.5,"AG4EN28","2022_May_27_1010","square","speed_accuracy_first","MainTask",73,"Fixation","NoGo","speed_accuracy",1,NA,"post_correct_resp",98.6111111111111
235.7612215,0.1,"AG4EN28","2022_May_27_1010","square","speed_accuracy_first","MainTask",73,"Target","NoGo","speed_accuracy",1,NA,"post_correct_resp",98.6111111111111
235.8611915,1.5,"AG4EN28","2022_May_27_1010","square","speed_accuracy_first","MainTask",73,"ITI","NoGo","speed_accuracy",1,NA,"post_correct_resp",98.6111111111111
237.379463400001,0.5,"AG4EN28","2022_May_27_1010","square","speed_accuracy_first","MainTask",74,"Fixation","Go","speed_accuracy",1,0.33062289999998,"post_correct_inh",98.6111111111111
237.877746300001,0.1,"AG4EN28","2022_May_27_1010","square","speed_accuracy_first","MainTask",74,"Target","Go","speed_accuracy",1,0.33062289999998,"post_correct_inh",98.6111111111111
237.9778106,1.23062289999998,"AG4EN28","2022_May_27_1010","square","speed_accuracy_first","MainTask",74,"ITI","Go","speed_accuracy",1,0.33062289999998,"post_correct_inh",98.6111111111111
238.208369200001,0,"AG4EN28","2022_May_27_1010","square","speed_accuracy_first","MainTask",74,"Response","Go","speed_accuracy",1,0.33062289999998,"post_correct_inh",98.6111111111111
239.245161100001,0.5,"AG4EN28","2022_May_27_1010","square","speed_accuracy_first","MainTask",75,"Fixation","Go","speed_accuracy",1,0.31154510000033,"post_correct_resp",98.6111111111111
239.7445522,0.1,"AG4EN28","2022_May_27_1010","square","speed_accuracy_first","MainTask",75,"Target","Go","speed_accuracy",1,0.31154510000033,"post_correct_resp",98.6111111111111
239.844459,1.21154510000033,"AG4EN28","2022_May_27_1010","square","speed_accuracy_first","MainTask",75,"ITI","Go","speed_accuracy",1,0.31154510000033,"post_correct_resp",98.6111111111111
240.0560973,0,"AG4EN28","2022_May_27_1010","square","speed_accuracy_first","MainTask",75,"Response","Go","speed_accuracy",1,0.31154510000033,"post_correct_resp",98.6111111111111
241.09526,0.5,"AG4EN28","2022_May_27_1010","square","speed_accuracy_first","MainTask",76,"Fixation","Go","speed_accuracy",1,0.343470399999205,"post_correct_resp",98.6111111111111
241.594475,0.1,"AG4EN28","2022_May_27_1010","square","speed_accuracy_first","MainTask",76,"Target","Go","speed_accuracy",1,0.343470399999205,"post_correct_resp",98.6111111111111
241.6944636,1.24347039999921,"AG4EN28","2022_May_27_1010","square","speed_accuracy_first","MainTask",76,"ITI","Go","speed_accuracy",1,0.343470399999205,"post_correct_resp",98.6111111111111
241.937945399999,0,"AG4EN28","2022_May_27_1010","square","speed_accuracy_first","MainTask",76,"Response","Go","speed_accuracy",1,0.343470399999205,"post_correct_resp",98.6111111111111
242.9790269,0.5,"AG4EN28","2022_May_27_1010","square","speed_accuracy_first","MainTask",77,"Fixation","NoGo","speed_accuracy",1,NA,"post_correct_resp",98.6111111111111
243.4778373,0.1,"AG4EN28","2022_May_27_1010","square","speed_accuracy_first","MainTask",77,"Target","NoGo","speed_accuracy",1,NA,"post_correct_resp",98.6111111111111
243.577803,1.5,"AG4EN28","2022_May_27_1010","square","speed_accuracy_first","MainTask",77,"ITI","NoGo","speed_accuracy",1,NA,"post_correct_resp",98.6111111111111
245.095993200001,0.5,"AG4EN28","2022_May_27_1010","square","speed_accuracy_first","MainTask",78,"Fixation","Go","speed_accuracy",1,0.348445900000115,"post_correct_inh",98.6111111111111
245.594552,0.1,"AG4EN28","2022_May_27_1010","square","speed_accuracy_first","MainTask",78,"Target","Go","speed_accuracy",1,0.348445900000115,"post_correct_inh",98.6111111111111
245.6943873,1.24844590000012,"AG4EN28","2022_May_27_1010","square","speed_accuracy_first","MainTask",78,"ITI","Go","speed_accuracy",1,0.348445900000115,"post_correct_inh",98.6111111111111
245.942997900001,0,"AG4EN28","2022_May_27_1010","square","speed_accuracy_first","MainTask",78,"Response","Go","speed_accuracy",1,0.348445900000115,"post_correct_inh",98.6111111111111
246.9788939,0.5,"AG4EN28","2022_May_27_1010","square","speed_accuracy_first","MainTask",79,"Fixation","Go","speed_accuracy",1,0.247096299999612,"post_correct_resp",98.6111111111111
247.4778546,0.1,"AG4EN28","2022_May_27_1010","square","speed_accuracy_first","MainTask",79,"Target","Go","speed_accuracy",1,0.247096299999612,"post_correct_resp",98.6111111111111
247.5778634,1.14709629999961,"AG4EN28","2022_May_27_1010","square","speed_accuracy_first","MainTask",79,"ITI","Go","speed_accuracy",1,0.247096299999612,"post_correct_resp",98.6111111111111
247.724950899999,0,"AG4EN28","2022_May_27_1010","square","speed_accuracy_first","MainTask",79,"Response","Go","speed_accuracy",1,0.247096299999612,"post_correct_resp",98.6111111111111
248.7757322,0.5,"AG4EN28","2022_May_27_1010","square","speed_accuracy_first","MainTask",80,"Fixation","Go","speed_accuracy",1,0.25390890000017,"post_correct_resp",98.6111111111111
249.261046600001,0.1,"AG4EN28","2022_May_27_1010","square","speed_accuracy_first","MainTask",80,"Target","Go","speed_accuracy",1,0.25390890000017,"post_correct_resp",98.6111111111111
249.3610234,1.15390890000017,"AG4EN28","2022_May_27_1010","square","speed_accuracy_first","MainTask",80,"ITI","Go","speed_accuracy",1,0.25390890000017,"post_correct_resp",98.6111111111111
249.514955500001,0,"AG4EN28","2022_May_27_1010","square","speed_accuracy_first","MainTask",80,"Response","Go","speed_accuracy",1,0.25390890000017,"post_correct_resp",98.6111111111111
250.559045,0.5,"AG4EN28","2022_May_27_1010","square","speed_accuracy_first","MainTask",81,"Fixation","Go","speed_accuracy",1,0.311494800000219,"post_correct_resp",98.6111111111111
251.0445362,0.1,"AG4EN28","2022_May_27_1010","square","speed_accuracy_first","MainTask",81,"Target","Go","speed_accuracy",1,0.311494800000219,"post_correct_resp",98.6111111111111
251.1445622,1.21149480000022,"AG4EN28","2022_May_27_1010","square","speed_accuracy_first","MainTask",81,"ITI","Go","speed_accuracy",1,0.311494800000219,"post_correct_resp",98.6111111111111
251.356031,0,"AG4EN28","2022_May_27_1010","square","speed_accuracy_first","MainTask",81,"Response","Go","speed_accuracy",1,0.311494800000219,"post_correct_resp",98.6111111111111
252.408978,0.5,"AG4EN28","2022_May_27_1010","square","speed_accuracy_first","MainTask",82,"Fixation","Go","speed_accuracy",1,0.276611600000251,"post_correct_resp",98.6111111111111
252.8945185,0.1,"AG4EN28","2022_May_27_1010","square","speed_accuracy_first","MainTask",82,"Target","Go","speed_accuracy",1,0.276611600000251,"post_correct_resp",98.6111111111111
252.9943685,1.17661160000025,"AG4EN28","2022_May_27_1010","square","speed_accuracy_first","MainTask",82,"ITI","Go","speed_accuracy",1,0.276611600000251,"post_correct_resp",98.6111111111111
253.1711301,0,"AG4EN28","2022_May_27_1010","square","speed_accuracy_first","MainTask",82,"Response","Go","speed_accuracy",1,0.276611600000251,"post_correct_resp",98.6111111111111
254.2112503,0.5,"AG4EN28","2022_May_27_1010","square","speed_accuracy_first","MainTask",83,"Fixation","Go","speed_accuracy",1,0.265818500000023,"post_correct_resp",98.6111111111111
254.7111115,0.1,"AG4EN28","2022_May_27_1010","square","speed_accuracy_first","MainTask",83,"Target","Go","speed_accuracy",1,0.265818500000023,"post_correct_resp",98.6111111111111
254.8110958,1.16581850000002,"AG4EN28","2022_May_27_1010","square","speed_accuracy_first","MainTask",83,"ITI","Go","speed_accuracy",1,0.265818500000023,"post_correct_resp",98.6111111111111
254.97693,0,"AG4EN28","2022_May_27_1010","square","speed_accuracy_first","MainTask",83,"Response","Go","speed_accuracy",1,0.265818500000023,"post_correct_resp",98.6111111111111
256.0118292,0.5,"AG4EN28","2022_May_27_1010","square","speed_accuracy_first","MainTask",84,"Fixation","Go","speed_accuracy",1,0.309986799999933,"post_correct_resp",98.6111111111111
256.5110359,0.1,"AG4EN28","2022_May_27_1010","square","speed_accuracy_first","MainTask",84,"Target","Go","speed_accuracy",1,0.309986799999933,"post_correct_resp",98.6111111111111
256.6110325,1.20998679999993,"AG4EN28","2022_May_27_1010","square","speed_accuracy_first","MainTask",84,"ITI","Go","speed_accuracy",1,0.309986799999933,"post_correct_resp",98.6111111111111
256.8210227,0,"AG4EN28","2022_May_27_1010","square","speed_accuracy_first","MainTask",84,"Response","Go","speed_accuracy",1,0.309986799999933,"post_correct_resp",98.6111111111111
257.8754049,0.5,"AG4EN28","2022_May_27_1010","square","speed_accuracy_first","MainTask",85,"Fixation","Go","speed_accuracy",1,0.339510200000404,"post_correct_resp",98.6111111111111
258.361,0.1,"AG4EN28","2022_May_27_1010","square","speed_accuracy_first","MainTask",85,"Target","Go","speed_accuracy",1,0.339510200000404,"post_correct_resp",98.6111111111111
258.4610257,1.2395102000004,"AG4EN28","2022_May_27_1010","square","speed_accuracy_first","MainTask",85,"ITI","Go","speed_accuracy",1,0.339510200000404,"post_correct_resp",98.6111111111111
258.7005102,0,"AG4EN28","2022_May_27_1010","square","speed_accuracy_first","MainTask",85,"Response","Go","speed_accuracy",1,0.339510200000404,"post_correct_resp",98.6111111111111
259.7461334,0.5,"AG4EN28","2022_May_27_1010","square","speed_accuracy_first","MainTask",86,"Fixation","NoGo","speed_accuracy",1,NA,"post_correct_resp",98.6111111111111
260.2443393,0.1,"AG4EN28","2022_May_27_1010","square","speed_accuracy_first","MainTask",86,"Target","NoGo","speed_accuracy",1,NA,"post_correct_resp",98.6111111111111
260.3445005,1.5,"AG4EN28","2022_May_27_1010","square","speed_accuracy_first","MainTask",86,"ITI","NoGo","speed_accuracy",1,NA,"post_correct_resp",98.6111111111111
261.8470306,0.5,"AG4EN28","2022_May_27_1010","square","speed_accuracy_first","MainTask",87,"Fixation","Go","speed_accuracy",1,0.310587799999666,"post_correct_inh",98.6111111111111
262.344437700001,0.1,"AG4EN28","2022_May_27_1010","square","speed_accuracy_first","MainTask",87,"Target","Go","speed_accuracy",1,0.310587799999666,"post_correct_inh",98.6111111111111
262.4444482,1.21058779999967,"AG4EN28","2022_May_27_1010","square","speed_accuracy_first","MainTask",87,"ITI","Go","speed_accuracy",1,0.310587799999666,"post_correct_inh",98.6111111111111
262.6550255,0,"AG4EN28","2022_May_27_1010","square","speed_accuracy_first","MainTask",87,"Response","Go","speed_accuracy",1,0.310587799999666,"post_correct_inh",98.6111111111111
263.6952036,0.5,"AG4EN28","2022_May_27_1010","square","speed_accuracy_first","MainTask",88,"Fixation","Go","speed_accuracy",1,0.271467599999596,"post_correct_resp",98.6111111111111
264.1945237,0.1,"AG4EN28","2022_May_27_1010","square","speed_accuracy_first","MainTask",88,"Target","Go","speed_accuracy",1,0.271467599999596,"post_correct_resp",98.6111111111111
264.2943489,1.1714675999996,"AG4EN28","2022_May_27_1010","square","speed_accuracy_first","MainTask",88,"ITI","Go","speed_accuracy",1,0.271467599999596,"post_correct_resp",98.6111111111111
264.4659913,0,"AG4EN28","2022_May_27_1010","square","speed_accuracy_first","MainTask",88,"Response","Go","speed_accuracy",1,0.271467599999596,"post_correct_resp",98.6111111111111
265.5120496,0.5,"AG4EN28","2022_May_27_1010","square","speed_accuracy_first","MainTask",89,"Fixation","Go","speed_accuracy",1,0.322237700000187,"post_correct_resp",98.6111111111111
266.011051500001,0.1,"AG4EN28","2022_May_27_1010","square","speed_accuracy_first","MainTask",89,"Target","Go","speed_accuracy",1,0.322237700000187,"post_correct_resp",98.6111111111111
266.1110592,1.22223770000019,"AG4EN28","2022_May_27_1010","square","speed_accuracy_first","MainTask",89,"ITI","Go","speed_accuracy",1,0.322237700000187,"post_correct_resp",98.6111111111111
266.333289200001,0,"AG4EN28","2022_May_27_1010","square","speed_accuracy_first","MainTask",89,"Response","Go","speed_accuracy",1,0.322237700000187,"post_correct_resp",98.6111111111111
267.3755689,0.5,"AG4EN28","2022_May_27_1010","square","speed_accuracy_first","MainTask",90,"Fixation","Go","speed_accuracy",1,0.321805600000516,"post_correct_resp",98.6111111111111
267.8611371,0.1,"AG4EN28","2022_May_27_1010","square","speed_accuracy_first","MainTask",90,"Target","Go","speed_accuracy",1,0.321805600000516,"post_correct_resp",98.6111111111111
267.9611111,1.22180560000052,"AG4EN28","2022_May_27_1010","square","speed_accuracy_first","MainTask",90,"ITI","Go","speed_accuracy",1,0.321805600000516,"post_correct_resp",98.6111111111111
268.1829427,0,"AG4EN28","2022_May_27_1010","square","speed_accuracy_first","MainTask",90,"Response","Go","speed_accuracy",1,0.321805600000516,"post_correct_resp",98.6111111111111
269.2423828,0.5,"AG4EN28","2022_May_27_1010","square","speed_accuracy_first","MainTask",91,"Fixation","Go","speed_accuracy",1,0.265242899999976,"post_correct_resp",98.6111111111111
269.727783400001,0.1,"AG4EN28","2022_May_27_1010","square","speed_accuracy_first","MainTask",91,"Target","Go","speed_accuracy",1,0.265242899999976,"post_correct_resp",98.6111111111111
269.8278069,1.16524289999998,"AG4EN28","2022_May_27_1010","square","speed_accuracy_first","MainTask",91,"ITI","Go","speed_accuracy",1,0.265242899999976,"post_correct_resp",98.6111111111111
269.993026300001,0,"AG4EN28","2022_May_27_1010","square","speed_accuracy_first","MainTask",91,"Response","Go","speed_accuracy",1,0.265242899999976,"post_correct_resp",98.6111111111111
271.0424007,0.5,"AG4EN28","2022_May_27_1010","square","speed_accuracy_first","MainTask",92,"Fixation","Go","speed_accuracy",1,0.243224599999849,"post_correct_resp",98.6111111111111
271.5278206,0.1,"AG4EN28","2022_May_27_1010","square","speed_accuracy_first","MainTask",92,"Target","Go","speed_accuracy",1,0.243224599999849,"post_correct_resp",98.6111111111111
271.627823700001,1.14322459999985,"AG4EN28","2022_May_27_1010","square","speed_accuracy_first","MainTask",92,"ITI","Go","speed_accuracy",1,0.243224599999849,"post_correct_resp",98.6111111111111
271.7710452,0,"AG4EN28","2022_May_27_1010","square","speed_accuracy_first","MainTask",92,"Response","Go","speed_accuracy",1,0.243224599999849,"post_correct_resp",98.6111111111111
272.811766700001,0.5,"AG4EN28","2022_May_27_1010","square","speed_accuracy_first","MainTask",93,"Fixation","Go","speed_accuracy",1,0.3158042999994,"post_correct_resp",98.6111111111111
273.3111003,0.1,"AG4EN28","2022_May_27_1010","square","speed_accuracy_first","MainTask",93,"Target","Go","speed_accuracy",1,0.3158042999994,"post_correct_resp",98.6111111111111
273.4110866,1.2158042999994,"AG4EN28","2022_May_27_1010","square","speed_accuracy_first","MainTask",93,"ITI","Go","speed_accuracy",1,0.3158042999994,"post_correct_resp",98.6111111111111
273.6269046,0,"AG4EN28","2022_May_27_1010","square","speed_accuracy_first","MainTask",93,"Response","Go","speed_accuracy",1,0.3158042999994,"post_correct_resp",98.6111111111111
274.6620767,0.5,"AG4EN28","2022_May_27_1010","square","speed_accuracy_first","MainTask",94,"Fixation","Go","speed_accuracy",1,0.315916300000026,"post_correct_resp",98.6111111111111
275.1609835,0.1,"AG4EN28","2022_May_27_1010","square","speed_accuracy_first","MainTask",94,"Target","Go","speed_accuracy",1,0.315916300000026,"post_correct_resp",98.6111111111111
275.2611391,1.21591630000003,"AG4EN28","2022_May_27_1010","square","speed_accuracy_first","MainTask",94,"ITI","Go","speed_accuracy",1,0.315916300000026,"post_correct_resp",98.6111111111111
275.4768998,0,"AG4EN28","2022_May_27_1010","square","speed_accuracy_first","MainTask",94,"Response","Go","speed_accuracy",1,0.315916300000026,"post_correct_resp",98.6111111111111
276.512640200001,0.5,"AG4EN28","2022_May_27_1010","square","speed_accuracy_first","MainTask",95,"Fixation","NoGo","speed_accuracy",0,0.26282590000028,"post_correct_resp",98.6111111111111
277.0110802,0.1,"AG4EN28","2022_May_27_1010","square","speed_accuracy_first","MainTask",95,"Target","NoGo","speed_accuracy",0,0.26282590000028,"post_correct_resp",98.6111111111111
277.111094,1.16282590000028,"AG4EN28","2022_May_27_1010","square","speed_accuracy_first","MainTask",95,"ITI","NoGo","speed_accuracy",0,0.26282590000028,"post_correct_resp",98.6111111111111
277.2739061,0,"AG4EN28","2022_May_27_1010","square","speed_accuracy_first","MainTask",95,"Response","NoGo","speed_accuracy",0,0.26282590000028,"post_correct_resp",98.6111111111111
278.3118026,0.5,"AG4EN28","2022_May_27_1010","square","speed_accuracy_first","MainTask",96,"Fixation","NoGo","speed_accuracy",0,0.224976000000424,"post_error_resp",98.6111111111111
278.8109849,0.1,"AG4EN28","2022_May_27_1010","square","speed_accuracy_first","MainTask",96,"Target","NoGo","speed_accuracy",0,0.224976000000424,"post_error_resp",98.6111111111111
278.911082600001,1.12497600000042,"AG4EN28","2022_May_27_1010","square","speed_accuracy_first","MainTask",96,"ITI","NoGo","speed_accuracy",0,0.224976000000424,"post_error_resp",98.6111111111111
279.035960900001,0,"AG4EN28","2022_May_27_1010","square","speed_accuracy_first","MainTask",96,"Response","NoGo","speed_accuracy",0,0.224976000000424,"post_error_resp",98.6111111111111
280.0792201,0.5,"AG4EN28","2022_May_27_1010","square","speed_accuracy_first","MainTask",97,"Fixation","Go","speed_accuracy",1,0.34258839999984,"post_error_resp",98.6111111111111
280.5773843,0.1,"AG4EN28","2022_May_27_1010","square","speed_accuracy_first","MainTask",97,"Target","Go","speed_accuracy",1,0.34258839999984,"post_error_resp",98.6111111111111
280.6777511,1.24258839999984,"AG4EN28","2022_May_27_1010","square","speed_accuracy_first","MainTask",97,"ITI","Go","speed_accuracy",1,0.34258839999984,"post_error_resp",98.6111111111111
280.9199727,0,"AG4EN28","2022_May_27_1010","square","speed_accuracy_first","MainTask",97,"Response","Go","speed_accuracy",1,0.34258839999984,"post_error_resp",98.6111111111111
281.9617928,0.5,"AG4EN28","2022_May_27_1010","square","speed_accuracy_first","MainTask",98,"Fixation","Go","speed_accuracy",1,0.32683519999955,"post_correct_resp",98.6111111111111
282.4610767,0.1,"AG4EN28","2022_May_27_1010","square","speed_accuracy_first","MainTask",98,"Target","Go","speed_accuracy",1,0.32683519999955,"post_correct_resp",98.6111111111111
282.560950900001,1.22683519999955,"AG4EN28","2022_May_27_1010","square","speed_accuracy_first","MainTask",98,"ITI","Go","speed_accuracy",1,0.32683519999955,"post_correct_resp",98.6111111111111
282.7879119,0,"AG4EN28","2022_May_27_1010","square","speed_accuracy_first","MainTask",98,"Response","Go","speed_accuracy",1,0.32683519999955,"post_correct_resp",98.6111111111111
283.8285316,0.5,"AG4EN28","2022_May_27_1010","square","speed_accuracy_first","MainTask",99,"Fixation","Go","speed_accuracy",1,0.394910299999538,"post_correct_resp",98.6111111111111
284.3279846,0.1,"AG4EN28","2022_May_27_1010","square","speed_accuracy_first","MainTask",99,"Target","Go","speed_accuracy",1,0.394910299999538,"post_correct_resp",98.6111111111111
284.4277787,1.29491029999954,"AG4EN28","2022_May_27_1010","square","speed_accuracy_first","MainTask",99,"ITI","Go","speed_accuracy",1,0.394910299999538,"post_correct_resp",98.6111111111111
284.7228949,0,"AG4EN28","2022_May_27_1010","square","speed_accuracy_first","MainTask",99,"Response","Go","speed_accuracy",1,0.394910299999538,"post_correct_resp",98.6111111111111
285.7756406,0.5,"AG4EN28","2022_May_27_1010","square","speed_accuracy_first","MainTask",100,"Fixation","Go","speed_accuracy",1,0.310874700000568,"post_correct_resp",98.6111111111111
286.2610803,0.1,"AG4EN28","2022_May_27_1010","square","speed_accuracy_first","MainTask",100,"Target","Go","speed_accuracy",1,0.310874700000568,"post_correct_resp",98.6111111111111
286.3611153,1.21087470000057,"AG4EN28","2022_May_27_1010","square","speed_accuracy_first","MainTask",100,"ITI","Go","speed_accuracy",1,0.310874700000568,"post_correct_resp",98.6111111111111
286.571955,0,"AG4EN28","2022_May_27_1010","square","speed_accuracy_first","MainTask",100,"Response","Go","speed_accuracy",1,0.310874700000568,"post_correct_resp",98.6111111111111
287.6125313,0.5,"AG4EN28","2022_May_27_1010","square","speed_accuracy_first","MainTask",101,"Fixation","NoGo","speed_accuracy",1,NA,"post_correct_resp",98.6111111111111
288.1110844,0.1,"AG4EN28","2022_May_27_1010","square","speed_accuracy_first","MainTask",101,"Target","NoGo","speed_accuracy",1,NA,"post_correct_resp",98.6111111111111
288.2110486,1.5,"AG4EN28","2022_May_27_1010","square","speed_accuracy_first","MainTask",101,"ITI","NoGo","speed_accuracy",1,NA,"post_correct_resp",98.6111111111111
289.7127097,0.5,"AG4EN28","2022_May_27_1010","square","speed_accuracy_first","MainTask",102,"Fixation","Go","speed_accuracy",1,0.356286500000351,"post_correct_inh",98.6111111111111
290.210883100001,0.1,"AG4EN28","2022_May_27_1010","square","speed_accuracy_first","MainTask",102,"Target","Go","speed_accuracy",1,0.356286500000351,"post_correct_inh",98.6111111111111
290.3110648,1.25628650000035,"AG4EN28","2022_May_27_1010","square","speed_accuracy_first","MainTask",102,"ITI","Go","speed_accuracy",1,0.356286500000351,"post_correct_inh",98.6111111111111
290.567169600001,0,"AG4EN28","2022_May_27_1010","square","speed_accuracy_first","MainTask",102,"Response","Go","speed_accuracy",1,0.356286500000351,"post_correct_inh",98.6111111111111
291.6127524,0.5,"AG4EN28","2022_May_27_1010","square","speed_accuracy_first","MainTask",103,"Fixation","NoGo","speed_accuracy",1,NA,"post_correct_resp",98.6111111111111
292.1109858,0.1,"AG4EN28","2022_May_27_1010","square","speed_accuracy_first","MainTask",103,"Target","NoGo","speed_accuracy",1,NA,"post_correct_resp",98.6111111111111
292.211004100001,1.5,"AG4EN28","2022_May_27_1010","square","speed_accuracy_first","MainTask",103,"ITI","NoGo","speed_accuracy",1,NA,"post_correct_resp",98.6111111111111
293.7284317,0.5,"AG4EN28","2022_May_27_1010","square","speed_accuracy_first","MainTask",104,"Fixation","Go","speed_accuracy",1,0.360204200000226,"post_correct_inh",98.6111111111111
294.2277121,0.1,"AG4EN28","2022_May_27_1010","square","speed_accuracy_first","MainTask",104,"Target","Go","speed_accuracy",1,0.360204200000226,"post_correct_inh",98.6111111111111
294.327647,1.26020420000023,"AG4EN28","2022_May_27_1010","square","speed_accuracy_first","MainTask",104,"ITI","Go","speed_accuracy",1,0.360204200000226,"post_correct_inh",98.6111111111111
294.5879163,0,"AG4EN28","2022_May_27_1010","square","speed_accuracy_first","MainTask",104,"Response","Go","speed_accuracy",1,0.360204200000226,"post_correct_inh",98.6111111111111
295.628417800001,0.5,"AG4EN28","2022_May_27_1010","square","speed_accuracy_first","MainTask",105,"Fixation","Go","speed_accuracy",1,0.451250800000707,"post_correct_resp",98.6111111111111
296.1276538,0.1,"AG4EN28","2022_May_27_1010","square","speed_accuracy_first","MainTask",105,"Target","Go","speed_accuracy",1,0.451250800000707,"post_correct_resp",98.6111111111111
296.2277051,1.35125080000071,"AG4EN28","2022_May_27_1010","square","speed_accuracy_first","MainTask",105,"ITI","Go","speed_accuracy",1,0.451250800000707,"post_correct_resp",98.6111111111111
296.578904600001,0,"AG4EN28","2022_May_27_1010","square","speed_accuracy_first","MainTask",105,"Response","Go","speed_accuracy",1,0.451250800000707,"post_correct_resp",98.6111111111111
297.612593,0.5,"AG4EN28","2022_May_27_1010","square","speed_accuracy_first","MainTask",106,"Fixation","NoGo","speed_accuracy",1,NA,"post_correct_resp",98.6111111111111
298.110993400001,0.1,"AG4EN28","2022_May_27_1010","square","speed_accuracy_first","MainTask",106,"Target","NoGo","speed_accuracy",1,NA,"post_correct_resp",98.6111111111111
298.2109522,1.5,"AG4EN28","2022_May_27_1010","square","speed_accuracy_first","MainTask",106,"ITI","NoGo","speed_accuracy",1,NA,"post_correct_resp",98.6111111111111
299.7292442,0.5,"AG4EN28","2022_May_27_1010","square","speed_accuracy_first","MainTask",107,"Fixation","Go","speed_accuracy",1,0.326155700000527,"post_correct_inh",98.6111111111111
300.2277218,0.1,"AG4EN28","2022_May_27_1010","square","speed_accuracy_first","MainTask",107,"Target","Go","speed_accuracy",1,0.326155700000527,"post_correct_inh",98.6111111111111
300.3277724,1.22615570000053,"AG4EN28","2022_May_27_1010","square","speed_accuracy_first","MainTask",107,"ITI","Go","speed_accuracy",1,0.326155700000527,"post_correct_inh",98.6111111111111
300.5538775,0,"AG4EN28","2022_May_27_1010","square","speed_accuracy_first","MainTask",107,"Response","Go","speed_accuracy",1,0.326155700000527,"post_correct_inh",98.6111111111111
301.608799000001,0.5,"AG4EN28","2022_May_27_1010","square","speed_accuracy_first","MainTask",108,"Fixation","Go","speed_accuracy",1,0.408657799999673,"post_correct_resp",98.6111111111111
302.0942836,0.1,"AG4EN28","2022_May_27_1010","square","speed_accuracy_first","MainTask",108,"Target","Go","speed_accuracy",1,0.408657799999673,"post_correct_resp",98.6111111111111
302.1942798,1.30865779999967,"AG4EN28","2022_May_27_1010","square","speed_accuracy_first","MainTask",108,"ITI","Go","speed_accuracy",1,0.408657799999673,"post_correct_resp",98.6111111111111
302.5029414,0,"AG4EN28","2022_May_27_1010","square","speed_accuracy_first","MainTask",108,"Response","Go","speed_accuracy",1,0.408657799999673,"post_correct_resp",98.6111111111111
303.5588279,0.5,"AG4EN28","2022_May_27_1010","square","speed_accuracy_first","MainTask",109,"Fixation","Go","speed_accuracy",1,0.345647900000586,"post_correct_resp",98.6111111111111
304.0444076,0.1,"AG4EN28","2022_May_27_1010","square","speed_accuracy_first","MainTask",109,"Target","Go","speed_accuracy",1,0.345647900000586,"post_correct_resp",98.6111111111111
304.1439677,1.24564790000059,"AG4EN28","2022_May_27_1010","square","speed_accuracy_first","MainTask",109,"ITI","Go","speed_accuracy",1,0.345647900000586,"post_correct_resp",98.6111111111111
304.390055500001,0,"AG4EN28","2022_May_27_1010","square","speed_accuracy_first","MainTask",109,"Response","Go","speed_accuracy",1,0.345647900000586,"post_correct_resp",98.6111111111111
305.4422925,0.5,"AG4EN28","2022_May_27_1010","square","speed_accuracy_first","MainTask",110,"Fixation","Go","speed_accuracy",1,0.307980500000667,"post_correct_resp",98.6111111111111
305.9278803,0.1,"AG4EN28","2022_May_27_1010","square","speed_accuracy_first","MainTask",110,"Target","Go","speed_accuracy",1,0.307980500000667,"post_correct_resp",98.6111111111111
306.0277769,1.20798050000067,"AG4EN28","2022_May_27_1010","square","speed_accuracy_first","MainTask",110,"ITI","Go","speed_accuracy",1,0.307980500000667,"post_correct_resp",98.6111111111111
306.2358608,0,"AG4EN28","2022_May_27_1010","square","speed_accuracy_first","MainTask",110,"Response","Go","speed_accuracy",1,0.307980500000667,"post_correct_resp",98.6111111111111
307.2784276,0.5,"AG4EN28","2022_May_27_1010","square","speed_accuracy_first","MainTask",111,"Fixation","Go","speed_accuracy",1,0.360292800000025,"post_correct_resp",98.6111111111111
307.7776385,0.1,"AG4EN28","2022_May_27_1010","square","speed_accuracy_first","MainTask",111,"Target","Go","speed_accuracy",1,0.360292800000025,"post_correct_resp",98.6111111111111
307.8776803,1.26029280000002,"AG4EN28","2022_May_27_1010","square","speed_accuracy_first","MainTask",111,"ITI","Go","speed_accuracy",1,0.360292800000025,"post_correct_resp",98.6111111111111
308.1379313,0,"AG4EN28","2022_May_27_1010","square","speed_accuracy_first","MainTask",111,"Response","Go","speed_accuracy",1,0.360292800000025,"post_correct_resp",98.6111111111111
309.1785012,0.5,"AG4EN28","2022_May_27_1010","square","speed_accuracy_first","MainTask",112,"Fixation","Go","speed_accuracy",1,0.326503199999934,"post_correct_resp",98.6111111111111
309.677364,0.1,"AG4EN28","2022_May_27_1010","square","speed_accuracy_first","MainTask",112,"Target","Go","speed_accuracy",1,0.326503199999934,"post_correct_resp",98.6111111111111
309.7777321,1.22650319999993,"AG4EN28","2022_May_27_1010","square","speed_accuracy_first","MainTask",112,"ITI","Go","speed_accuracy",1,0.326503199999934,"post_correct_resp",98.6111111111111
310.0038672,0,"AG4EN28","2022_May_27_1010","square","speed_accuracy_first","MainTask",112,"Response","Go","speed_accuracy",1,0.326503199999934,"post_correct_resp",98.6111111111111
311.0451738,0.5,"AG4EN28","2022_May_27_1010","square","speed_accuracy_first","MainTask",113,"Fixation","Go","speed_accuracy",1,0.269489799999974,"post_correct_resp",98.6111111111111
311.5445182,0.1,"AG4EN28","2022_May_27_1010","square","speed_accuracy_first","MainTask",113,"Target","Go","speed_accuracy",1,0.269489799999974,"post_correct_resp",98.6111111111111
311.6444302,1.16948979999997,"AG4EN28","2022_May_27_1010","square","speed_accuracy_first","MainTask",113,"ITI","Go","speed_accuracy",1,0.269489799999974,"post_correct_resp",98.6111111111111
311.814008,0,"AG4EN28","2022_May_27_1010","square","speed_accuracy_first","MainTask",113,"Response","Go","speed_accuracy",1,0.269489799999974,"post_correct_resp",98.6111111111111
312.8620862,0.5,"AG4EN28","2022_May_27_1010","square","speed_accuracy_first","MainTask",114,"Fixation","Go","speed_accuracy",1,0.259815599999456,"post_correct_resp",98.6111111111111
313.3609783,0.1,"AG4EN28","2022_May_27_1010","square","speed_accuracy_first","MainTask",114,"Target","Go","speed_accuracy",1,0.259815599999456,"post_correct_resp",98.6111111111111
313.4610595,1.15981559999946,"AG4EN28","2022_May_27_1010","square","speed_accuracy_first","MainTask",114,"ITI","Go","speed_accuracy",1,0.259815599999456,"post_correct_resp",98.6111111111111
313.6207939,0,"AG4EN28","2022_May_27_1010","square","speed_accuracy_first","MainTask",114,"Response","Go","speed_accuracy",1,0.259815599999456,"post_correct_resp",98.6111111111111
314.6626956,0.5,"AG4EN28","2022_May_27_1010","square","speed_accuracy_first","MainTask",115,"Fixation","NoGo","speed_accuracy",1,NA,"post_correct_resp",98.6111111111111
315.161057,0.1,"AG4EN28","2022_May_27_1010","square","speed_accuracy_first","MainTask",115,"Target","NoGo","speed_accuracy",1,NA,"post_correct_resp",98.6111111111111
315.2610807,1.5,"AG4EN28","2022_May_27_1010","square","speed_accuracy_first","MainTask",115,"ITI","NoGo","speed_accuracy",1,NA,"post_correct_resp",98.6111111111111
316.7786083,0.5,"AG4EN28","2022_May_27_1010","square","speed_accuracy_first","MainTask",116,"Fixation","Go","speed_accuracy",1,0.356113799999548,"post_correct_inh",98.6111111111111
317.2777087,0.1,"AG4EN28","2022_May_27_1010","square","speed_accuracy_first","MainTask",116,"Target","Go","speed_accuracy",1,0.356113799999548,"post_correct_inh",98.6111111111111
317.3776157,1.25611379999955,"AG4EN28","2022_May_27_1010","square","speed_accuracy_first","MainTask",116,"ITI","Go","speed_accuracy",1,0.356113799999548,"post_correct_inh",98.6111111111111
317.6338225,0,"AG4EN28","2022_May_27_1010","square","speed_accuracy_first","MainTask",116,"Response","Go","speed_accuracy",1,0.356113799999548,"post_correct_inh",98.6111111111111
318.6920085,0.5,"AG4EN28","2022_May_27_1010","square","speed_accuracy_first","MainTask",117,"Fixation","Go","speed_accuracy",1,0.333199599999716,"post_correct_resp",98.6111111111111
319.1776638,0.1,"AG4EN28","2022_May_27_1010","square","speed_accuracy_first","MainTask",117,"Target","Go","speed_accuracy",1,0.333199599999716,"post_correct_resp",98.6111111111111
319.2777022,1.23319959999972,"AG4EN28","2022_May_27_1010","square","speed_accuracy_first","MainTask",117,"ITI","Go","speed_accuracy",1,0.333199599999716,"post_correct_resp",98.6111111111111
319.5108634,0,"AG4EN28","2022_May_27_1010","square","speed_accuracy_first","MainTask",117,"Response","Go","speed_accuracy",1,0.333199599999716,"post_correct_resp",98.6111111111111
320.5450276,0.5,"AG4EN28","2022_May_27_1010","square","speed_accuracy_first","MainTask",118,"Fixation","Go","speed_accuracy",1,0.347736300000179,"post_correct_resp",98.6111111111111
321.0442663,0.1,"AG4EN28","2022_May_27_1010","square","speed_accuracy_first","MainTask",118,"Target","Go","speed_accuracy",1,0.347736300000179,"post_correct_resp",98.6111111111111
321.1442814,1.24773630000018,"AG4EN28","2022_May_27_1010","square","speed_accuracy_first","MainTask",118,"ITI","Go","speed_accuracy",1,0.347736300000179,"post_correct_resp",98.6111111111111
321.392002600001,0,"AG4EN28","2022_May_27_1010","square","speed_accuracy_first","MainTask",118,"Response","Go","speed_accuracy",1,0.347736300000179,"post_correct_resp",98.6111111111111
322.4290365,0.5,"AG4EN28","2022_May_27_1010","square","speed_accuracy_first","MainTask",119,"Fixation","NoGo","speed_accuracy",1,NA,"post_correct_resp",98.6111111111111
322.9277421,0.1,"AG4EN28","2022_May_27_1010","square","speed_accuracy_first","MainTask",119,"Target","NoGo","speed_accuracy",1,NA,"post_correct_resp",98.6111111111111
323.0277374,1.5,"AG4EN28","2022_May_27_1010","square","speed_accuracy_first","MainTask",119,"ITI","NoGo","speed_accuracy",1,NA,"post_correct_resp",98.6111111111111
324.5452717,0.5,"AG4EN28","2022_May_27_1010","square","speed_accuracy_first","MainTask",120,"Fixation","NoGo","speed_accuracy",1,NA,"post_correct_inh",98.6111111111111
325.044281500001,0.1,"AG4EN28","2022_May_27_1010","square","speed_accuracy_first","MainTask",120,"Target","NoGo","speed_accuracy",1,NA,"post_correct_inh",98.6111111111111
325.1442895,1.5,"AG4EN28","2022_May_27_1010","square","speed_accuracy_first","MainTask",120,"ITI","NoGo","speed_accuracy",1,NA,"post_correct_inh",98.6111111111111
326.6624078,0.5,"AG4EN28","2022_May_27_1010","square","speed_accuracy_first","MainTask",121,"Fixation","Go","speed_accuracy",1,0.463945500000591,"post_correct_inh",98.6111111111111
327.1609382,0.1,"AG4EN28","2022_May_27_1010","square","speed_accuracy_first","MainTask",121,"Target","Go","speed_accuracy",1,0.463945500000591,"post_correct_inh",98.6111111111111
327.2610686,1.36394550000059,"AG4EN28","2022_May_27_1010","square","speed_accuracy_first","MainTask",121,"ITI","Go","speed_accuracy",1,0.463945500000591,"post_correct_inh",98.6111111111111
327.6248837,0,"AG4EN28","2022_May_27_1010","square","speed_accuracy_first","MainTask",121,"Response","Go","speed_accuracy",1,0.463945500000591,"post_correct_inh",98.6111111111111
328.6619624,0.5,"AG4EN28","2022_May_27_1010","square","speed_accuracy_first","MainTask",122,"Fixation","Go","speed_accuracy",1,0.307037800000217,"post_correct_resp",98.6111111111111
329.160953600001,0.1,"AG4EN28","2022_May_27_1010","square","speed_accuracy_first","MainTask",122,"Target","Go","speed_accuracy",1,0.307037800000217,"post_correct_resp",98.6111111111111
329.2610258,1.20703780000022,"AG4EN28","2022_May_27_1010","square","speed_accuracy_first","MainTask",122,"ITI","Go","speed_accuracy",1,0.307037800000217,"post_correct_resp",98.6111111111111
329.467991400001,0,"AG4EN28","2022_May_27_1010","square","speed_accuracy_first","MainTask",122,"Response","Go","speed_accuracy",1,0.307037800000217,"post_correct_resp",98.6111111111111
330.5253775,0.5,"AG4EN28","2022_May_27_1010","square","speed_accuracy_first","MainTask",123,"Fixation","Go","speed_accuracy",1,0.364019499999813,"post_correct_resp",98.6111111111111
331.0110513,0.1,"AG4EN28","2022_May_27_1010","square","speed_accuracy_first","MainTask",123,"Target","Go","speed_accuracy",1,0.364019499999813,"post_correct_resp",98.6111111111111
331.1109992,1.26401949999981,"AG4EN28","2022_May_27_1010","square","speed_accuracy_first","MainTask",123,"ITI","Go","speed_accuracy",1,0.364019499999813,"post_correct_resp",98.6111111111111
331.3750708,0,"AG4EN28","2022_May_27_1010","square","speed_accuracy_first","MainTask",123,"Response","Go","speed_accuracy",1,0.364019499999813,"post_correct_resp",98.6111111111111
332.4127201,0.5,"AG4EN28","2022_May_27_1010","square","speed_accuracy_first","MainTask",124,"Fixation","NoGo","speed_accuracy",1,NA,"post_correct_resp",98.6111111111111
332.9109918,0.1,"AG4EN28","2022_May_27_1010","square","speed_accuracy_first","MainTask",124,"Target","NoGo","speed_accuracy",1,NA,"post_correct_resp",98.6111111111111
333.0110213,1.5,"AG4EN28","2022_May_27_1010","square","speed_accuracy_first","MainTask",124,"ITI","NoGo","speed_accuracy",1,NA,"post_correct_resp",98.6111111111111
334.5292021,0.5,"AG4EN28","2022_May_27_1010","square","speed_accuracy_first","MainTask",125,"Fixation","Go","speed_accuracy",1,0.354167299999972,"post_correct_inh",98.6111111111111
335.0276923,0.1,"AG4EN28","2022_May_27_1010","square","speed_accuracy_first","MainTask",125,"Target","Go","speed_accuracy",1,0.354167299999972,"post_correct_inh",98.6111111111111
335.1276851,1.25416729999997,"AG4EN28","2022_May_27_1010","square","speed_accuracy_first","MainTask",125,"ITI","Go","speed_accuracy",1,0.354167299999972,"post_correct_inh",98.6111111111111
335.3818596,0,"AG4EN28","2022_May_27_1010","square","speed_accuracy_first","MainTask",125,"Response","Go","speed_accuracy",1,0.354167299999972,"post_correct_inh",98.6111111111111
336.4490112,23.9283215000005,"AG4EN28","2022_May_27_1010","square","speed_accuracy_first","MainTask",125,"Break",NA,NA,NA,NA,NA,98.6111111111111
362.3791498,0.5,"AG4EN28","2022_May_27_1010","square","speed_accuracy_first","MainTask",126,"Fixation","Go","speed_accuracy",1,0.324476199999481,"post_break",98.6111111111111
362.8943046,0.1,"AG4EN28","2022_May_27_1010","square","speed_accuracy_first","MainTask",126,"Target","Go","speed_accuracy",1,0.324476199999481,"post_break",98.6111111111111
362.9777222,1.22447619999948,"AG4EN28","2022_May_27_1010","square","speed_accuracy_first","MainTask",126,"ITI","Go","speed_accuracy",1,0.324476199999481,"post_break",98.6111111111111
363.2187808,0,"AG4EN28","2022_May_27_1010","square","speed_accuracy_first","MainTask",126,"Response","Go","speed_accuracy",1,0.324476199999481,"post_break",98.6111111111111
364.2617399,0.5,"AG4EN28","2022_May_27_1010","square","speed_accuracy_first","MainTask",127,"Fixation","Go","speed_accuracy",1,0.337758300000132,"post_correct_resp",98.6111111111111
364.7610169,0.1,"AG4EN28","2022_May_27_1010","square","speed_accuracy_first","MainTask",127,"Target","Go","speed_accuracy",1,0.337758300000132,"post_correct_resp",98.6111111111111
364.8609953,1.23775830000013,"AG4EN28","2022_May_27_1010","square","speed_accuracy_first","MainTask",127,"ITI","Go","speed_accuracy",1,0.337758300000132,"post_correct_resp",98.6111111111111
365.0987752,0,"AG4EN28","2022_May_27_1010","square","speed_accuracy_first","MainTask",127,"Response","Go","speed_accuracy",1,0.337758300000132,"post_correct_resp",98.6111111111111
366.14499,0.5,"AG4EN28","2022_May_27_1010","square","speed_accuracy_first","MainTask",128,"Fixation","Go","speed_accuracy",1,0.30636720000075,"post_correct_resp",98.6111111111111
366.6443925,0.1,"AG4EN28","2022_May_27_1010","square","speed_accuracy_first","MainTask",128,"Target","Go","speed_accuracy",1,0.30636720000075,"post_correct_resp",98.6111111111111
366.7443334,1.20636720000075,"AG4EN28","2022_May_27_1010","square","speed_accuracy_first","MainTask",128,"ITI","Go","speed_accuracy",1,0.30636720000075,"post_correct_resp",98.6111111111111
366.950759700001,0,"AG4EN28","2022_May_27_1010","square","speed_accuracy_first","MainTask",128,"Response","Go","speed_accuracy",1,0.30636720000075,"post_correct_resp",98.6111111111111
367.995093,0.5,"AG4EN28","2022_May_27_1010","square","speed_accuracy_first","MainTask",129,"Fixation","Go","speed_accuracy",1,0.289436600000045,"post_correct_resp",98.6111111111111
368.4943091,0.1,"AG4EN28","2022_May_27_1010","square","speed_accuracy_first","MainTask",129,"Target","Go","speed_accuracy",1,0.289436600000045,"post_correct_resp",98.6111111111111
368.5944273,1.18943660000004,"AG4EN28","2022_May_27_1010","square","speed_accuracy_first","MainTask",129,"ITI","Go","speed_accuracy",1,0.289436600000045,"post_correct_resp",98.6111111111111
368.783745700001,0,"AG4EN28","2022_May_27_1010","square","speed_accuracy_first","MainTask",129,"Response","Go","speed_accuracy",1,0.289436600000045,"post_correct_resp",98.6111111111111
369.8287165,0.5,"AG4EN28","2022_May_27_1010","square","speed_accuracy_first","MainTask",130,"Fixation","Go","speed_accuracy",1,0.326222900000175,"post_correct_resp",98.6111111111111
370.3276902,0.1,"AG4EN28","2022_May_27_1010","square","speed_accuracy_first","MainTask",130,"Target","Go","speed_accuracy",1,0.326222900000175,"post_correct_resp",98.6111111111111
370.4276484,1.22622290000018,"AG4EN28","2022_May_27_1010","square","speed_accuracy_first","MainTask",130,"ITI","Go","speed_accuracy",1,0.326222900000175,"post_correct_resp",98.6111111111111
370.6539131,0,"AG4EN28","2022_May_27_1010","square","speed_accuracy_first","MainTask",130,"Response","Go","speed_accuracy",1,0.326222900000175,"post_correct_resp",98.6111111111111
371.6995364,0.5,"AG4EN28","2022_May_27_1010","square","speed_accuracy_first","MainTask",131,"Fixation","NoGo","speed_accuracy",1,NA,"post_correct_resp",98.6111111111111
372.1939516,0.1,"AG4EN28","2022_May_27_1010","square","speed_accuracy_first","MainTask",131,"Target","NoGo","speed_accuracy",1,NA,"post_correct_resp",98.6111111111111
372.2943161,1.5,"AG4EN28","2022_May_27_1010","square","speed_accuracy_first","MainTask",131,"ITI","NoGo","speed_accuracy",1,NA,"post_correct_resp",98.6111111111111
373.8130318,0.5,"AG4EN28","2022_May_27_1010","square","speed_accuracy_first","MainTask",132,"Fixation","Go","speed_accuracy",1,0.323839399999997,"post_correct_inh",98.6111111111111
374.310953,0.1,"AG4EN28","2022_May_27_1010","square","speed_accuracy_first","MainTask",132,"Target","Go","speed_accuracy",1,0.323839399999997,"post_correct_inh",98.6111111111111
374.411012,1.2238394,"AG4EN28","2022_May_27_1010","square","speed_accuracy_first","MainTask",132,"ITI","Go","speed_accuracy",1,0.323839399999997,"post_correct_inh",98.6111111111111
374.6347924,0,"AG4EN28","2022_May_27_1010","square","speed_accuracy_first","MainTask",132,"Response","Go","speed_accuracy",1,0.323839399999997,"post_correct_inh",98.6111111111111
