Instruction_Condition,MarkCondition,Type,Letter,CorrectResponse,Condition,RandomizeBlocks.thisRepN,RandomizeBlocks.thisTrialN,RandomizeBlocks.thisN,RandomizeBlocks.thisIndex,Practice.thisRepN,Practice.thisTrialN,Practice.thisN,Practice.thisIndex,Trials.thisRepN,Trials.thisTrialN,Trials.thisN,Trials.thisIndex,Target_Mapping,Fixation_practice.started,Fixation_practice.stopped,Target_practice.started,Target_practice.stopped,Target_resp_practice.keys,Target_resp_practice.corr,Target_resp_practice.rt,Target_resp_practice.started,Target_resp_practice.stopped,ITI_resp_practice.started,ITI_resp_practice.stopped,ITI_Duration,ITI.started,ITI.stopped,square2.started,square2.stopped,Instr_Repe.started,Instr_Repe.stopped,Trigger_Target,TriggerResp,Fixation.started,Fixation.stopped,Target.started,Target.stopped,Target_resp.keys,Target_resp.corr,Target_resp.rt,Target_resp.started,Target_resp.stopped,ITI_resp.started,ITI_resp.stopped,square1.started,square1.stopped,showReminder,ReminderErrors.started,ReminderErrors.stopped,ReminderErrorsResp.keys,ReminderErrorsResp.started,ReminderErrorsResp.stopped,break_block.started,break_block.stopped,break_block_resp.keys,break_block_resp.rt,SelfReport.started,SelfReport.stopped,anxious.response,anxious.rt,peppy.response,peppy.rt,peeved.response,peeved.rt,happy.response,happy.rt,tired.response,tired.rt,relaxed.response,relaxed.rt,sad.response,sad.rt,calm.response,calm.rt,exhausted.response,exhausted.rt,irritated.response,irritated.rt,break_cond.started,break_cond.stopped,break_cond_resp.keys,break_cond_resp.rt,participant,session,EEGPort,LogFilesFolder,date,expName,psychopyVersion,frameRate,
DRÜCKEN SIE IM FOLGENDEN BITTE SO SCHNELL SIE KÖNNEN. BITTE ZEIGEN SIE IHRE MAXIMAL MÖGLICHE LEISTUNG!,200,NoGo,nogo,None,0,0,0,0,1,0,0,0,2,,,,,square,56.17413769999985,56.6779832000002,56.66140350000023,56.76139669999975,4,0,0.3458223999996335,56.66140350000023,None,56.76139669999975,None,1,57.042617600000085,None,57.042617600000085,None,,,,,,,,,,,,,,,,,,,,,,,,,,,,,,,,,,,,,,,,,,,,,,,,,,,,,,AG4EN28,1,0x5FB8,D:\CoScience\Logfiles\,2022_May_27_1010,GoNoGo,2020.1.3,59.95732237796686,
DRÜCKEN SIE IM FOLGENDEN BITTE SO SCHNELL SIE KÖNNEN. BITTE ZEIGEN SIE IHRE MAXIMAL MÖGLICHE LEISTUNG!,200,Go,go,4,0,0,0,0,1,0,1,1,1,,,,,,58.059305400000085,58.56132840000009,58.54475189999994,58.644734499999686,4,1,0.3295914000000266,58.54475189999994,None,58.644734499999686,None,1,58.894847100000334,None,58.894847100000334,None,,,,,,,,,,,,,,,,,,,,,,,,,,,,,,,,,,,,,,,,,,,,,,,,,,,,,,AG4EN28,1,0x5FB8,D:\CoScience\Logfiles\,2022_May_27_1010,GoNoGo,2020.1.3,59.95732237796686,
DRÜCKEN SIE IM FOLGENDEN BITTE SO SCHNELL SIE KÖNNEN. BITTE ZEIGEN SIE IHRE MAXIMAL MÖGLICHE LEISTUNG!,200,Go,go,4,0,0,0,0,1,0,2,2,1,,,,,,59.89472260000002,60.39454230000047,60.37797539999974,60.478038899999774,4,1,0.36541639999995823,60.37797539999974,None,60.478038899999774,None,1,60.76175239999975,None,60.76175239999975,None,,,,,,,,,,,,,,,,,,,,,,,,,,,,,,,,,,,,,,,,,,,,,,,,,,,,,,AG4EN28,1,0x5FB8,D:\CoScience\Logfiles\,2022_May_27_1010,GoNoGo,2020.1.3,59.95732237796686,
DRÜCKEN SIE IM FOLGENDEN BITTE SO SCHNELL SIE KÖNNEN. BITTE ZEIGEN SIE IHRE MAXIMAL MÖGLICHE LEISTUNG!,200,Go,go,4,0,0,0,0,1,1,0,3,0,,,,,,61.7611437000005,62.26123170000028,62.24474579999969,62.34470070000043,4,1,0.337519899999279,62.24474579999969,None,62.34470070000043,None,1,62.610193399999844,None,62.610193399999844,None,,,,,,,,,,,,,,,,,,,,,,,,,,,,,,,,,,,,,,,,,,,,,,,,,,,,,,AG4EN28,1,0x5FB8,D:\CoScience\Logfiles\,2022_May_27_1010,GoNoGo,2020.1.3,59.95732237796686,
DRÜCKEN SIE IM FOLGENDEN BITTE SO SCHNELL SIE KÖNNEN. BITTE ZEIGEN SIE IHRE MAXIMAL MÖGLICHE LEISTUNG!,200,Go,go,4,0,0,0,0,1,1,1,4,1,,,,,,63.611260100000436,64.11043570000038,64.09374430000025,64.19462550000026,4,1,0.3979231000002983,64.09374430000025,None,64.19462550000026,None,1,64.51192319999973,None,64.51192319999973,None,,,,,,,,,,,,,,,,,,,,,,,,,,,,,,,,,,,,,,,,,,,,,,,,,,,,,,AG4EN28,1,0x5FB8,D:\CoScience\Logfiles\,2022_May_27_1010,GoNoGo,2020.1.3,59.95732237796686,
DRÜCKEN SIE IM FOLGENDEN BITTE SO SCHNELL SIE KÖNNEN. BITTE ZEIGEN SIE IHRE MAXIMAL MÖGLICHE LEISTUNG!,200,Go,go,4,0,0,0,0,1,1,2,5,0,,,,,,65.51121130000047,66.01137569999992,65.99474569999984,66.09475829999974,4,1,0.33661709999978484,65.99474569999984,None,66.09475829999974,None,1,66.3603675000004,None,66.3603675000004,None,,,,,,,,,,,,,,,,,,,,,,,,,,,,,,,,,,,,,,,,,,,,,,,,,,,,,,AG4EN28,1,0x5FB8,D:\CoScience\Logfiles\,2022_May_27_1010,GoNoGo,2020.1.3,59.95732237796686,
DRÜCKEN SIE IM FOLGENDEN BITTE SO SCHNELL SIE KÖNNEN. BITTE ZEIGEN SIE IHRE MAXIMAL MÖGLICHE LEISTUNG!,200,NoGo,nogo,None,0,0,0,0,1,2,0,6,2,,,,,,67.36104560000058,67.86120949999986,67.84472430000005,67.9447339999997,None,1,,67.84472430000005,None,67.9447339999997,None,0.9,68.5443307000005,None,68.5443307000005,None,,,,,,,,,,,,,,,,,,,,,,,,,,,,,,,,,,,,,,,,,,,,,,,,,,,,,,AG4EN28,1,0x5FB8,D:\CoScience\Logfiles\,2022_May_27_1010,GoNoGo,2020.1.3,59.95732237796686,
DRÜCKEN SIE IM FOLGENDEN BITTE SO SCHNELL SIE KÖNNEN. BITTE ZEIGEN SIE IHRE MAXIMAL MÖGLICHE LEISTUNG!,200,Go,go,4,0,0,0,0,1,2,1,7,0,,,,,,69.44440860000032,69.9447067000001,69.92802250000022,70.02805910000006,4,1,0.3073478999995132,69.92802250000022,None,70.02805910000006,None,1,70.2610493000002,None,70.2610493000002,None,,,,,,,,,,,,,,,,,,,,,,,,,,,,,,,,,,,,,,,,,,,,,,,,,,,,,,AG4EN28,1,0x5FB8,D:\CoScience\Logfiles\,2022_May_27_1010,GoNoGo,2020.1.3,59.95732237796686,
DRÜCKEN SIE IM FOLGENDEN BITTE SO SCHNELL SIE KÖNNEN. BITTE ZEIGEN SIE IHRE MAXIMAL MÖGLICHE LEISTUNG!,200,Go,go,4,0,0,0,0,1,2,2,8,1,,,,,,71.26124400000026,71.76126440000007,71.74481939999987,71.84472939999978,4,1,0.3254598999992595,71.74481939999987,None,71.84472939999978,None,1,72.09517599999981,None,72.09517599999981,None,,,,,,,,,,,,,,,,,,,,,,,,,,,,,,,,,,,,,,,,,,,,,,,,,,,,,,AG4EN28,1,0x5FB8,D:\CoScience\Logfiles\,2022_May_27_1010,GoNoGo,2020.1.3,59.95732237796686,
DRÜCKEN SIE IM FOLGENDEN BITTE SO SCHNELL SIE KÖNNEN. BITTE ZEIGEN SIE IHRE MAXIMAL MÖGLICHE LEISTUNG!,200,Go,go,4,0,0,0,0,1,3,0,9,1,,,,,,73.09462260000055,73.59466640000028,73.57800360000056,73.67802639999991,4,1,0.358186299999943,73.57800360000056,None,73.67802639999991,None,1,73.96217909999996,None,73.96217909999996,None,,,,,,,,,,,,,,,,,,,,,,,,,,,,,,,,,,,,,,,,,,,,,,,,,,,,,,AG4EN28,1,0x5FB8,D:\CoScience\Logfiles\,2022_May_27_1010,GoNoGo,2020.1.3,59.95732237796686,
DRÜCKEN SIE IM FOLGENDEN BITTE SO SCHNELL SIE KÖNNEN. BITTE ZEIGEN SIE IHRE MAXIMAL MÖGLICHE LEISTUNG!,200,NoGo,nogo,None,0,0,0,0,1,3,1,10,2,,,,,,74.96065799999997,75.46094549999998,75.44434470000033,75.54470459999993,None,1,,75.44434470000033,None,75.54470459999993,None,0.9,76.1445106000001,None,76.1445106000001,None,,,,,,,,,,,,,,,,,,,,,,,,,,,,,,,,,,,,,,,,,,,,,,,,,,,,,,AG4EN28,1,0x5FB8,D:\CoScience\Logfiles\,2022_May_27_1010,GoNoGo,2020.1.3,59.95732237796686,
DRÜCKEN SIE IM FOLGENDEN BITTE SO SCHNELL SIE KÖNNEN. BITTE ZEIGEN SIE IHRE MAXIMAL MÖGLICHE LEISTUNG!,200,Go,go,4,0,0,0,0,1,3,2,11,0,,,,,,77.04425189999984,77.54462270000022,77.52809679999973,77.6280311999999,4,1,0.3071092000000135,77.52809679999973,None,77.6280311999999,None,1,77.86204550000002,None,77.86204550000002,None,,,,,,,,,,,,,,,,,,,,,,,,,,,,,,,,,,,,,,,,,,,,,,,,,,,,,,AG4EN28,1,0x5FB8,D:\CoScience\Logfiles\,2022_May_27_1010,GoNoGo,2020.1.3,59.95732237796686,
DRÜCKEN SIE IM FOLGENDEN BITTE SO SCHNELL SIE KÖNNEN. BITTE ZEIGEN SIE IHRE MAXIMAL MÖGLICHE LEISTUNG!,200,Go,go,4,0,0,0,0,1,4,0,12,0,,,,,,78.86124680000012,79.3612321999999,79.34471070000018,79.44468299999971,4,1,0.3485251000001881,79.34471070000018,None,79.44468299999971,None,1,79.71185760000026,None,79.71185760000026,None,,,,,,,,,,,,,,,,,,,,,,,,,,,,,,,,,,,,,,,,,,,,,,,,,,,,,,AG4EN28,1,0x5FB8,D:\CoScience\Logfiles\,2022_May_27_1010,GoNoGo,2020.1.3,59.95732237796686,
DRÜCKEN SIE IM FOLGENDEN BITTE SO SCHNELL SIE KÖNNEN. BITTE ZEIGEN SIE IHRE MAXIMAL MÖGLICHE LEISTUNG!,200,NoGo,nogo,None,0,0,0,0,1,4,1,13,2,,,,,,80.71084229999997,81.21129280000059,81.19460340000023,81.29462059999969,None,1,,81.19460340000023,None,81.29462059999969,None,0.9,81.89433830000053,None,81.89433830000053,None,,,,,,,,,,,,,,,,,,,,,,,,,,,,,,,,,,,,,,,,,,,,,,,,,,,,,,AG4EN28,1,0x5FB8,D:\CoScience\Logfiles\,2022_May_27_1010,GoNoGo,2020.1.3,59.95732237796686,
DRÜCKEN SIE IM FOLGENDEN BITTE SO SCHNELL SIE KÖNNEN. BITTE ZEIGEN SIE IHRE MAXIMAL MÖGLICHE LEISTUNG!,200,NoGo,nogo,None,0,0,0,0,1,4,2,14,2,,,,,,82.79444969999986,83.29466020000018,83.27807130000019,83.37793590000001,None,1,,83.27807130000019,None,83.37793590000001,None,0.9,83.97768309999992,None,83.97768309999992,None,,,,,,,,,,,,,,,,,,,,,,,,,,,,,,,,,,,,,,,,,,,,,,,,,,,,,,AG4EN28,1,0x5FB8,D:\CoScience\Logfiles\,2022_May_27_1010,GoNoGo,2020.1.3,59.95732237796686,
DRÜCKEN SIE IM FOLGENDEN BITTE SO SCHNELL SIE KÖNNEN. BITTE ZEIGEN SIE IHRE MAXIMAL MÖGLICHE LEISTUNG!,200,Go,go,4,1,0,0,0,1,,,,,0,0,0,0,,,,,,,,,,,,,1,94.13080570000056,None,94.13080570000056,None,84.90441550000014,None,201,211,93.13891039999999,93.64456070000051,93.62805310000022,93.7280467999999,4,1,0.46911999999974796,93.62805310000022,None,93.7280467999999,None,93.62805310000022,None,False,None,None,None,None,None,None,None,None,,,,,,,,,,,,,,,,,,,,,,,,,,,,AG4EN28,1,0x5FB8,D:\CoScience\Logfiles\,2022_May_27_1010,GoNoGo,2020.1.3,59.95732237796686,
DRÜCKEN SIE IM FOLGENDEN BITTE SO SCHNELL SIE KÖNNEN. BITTE ZEIGEN SIE IHRE MAXIMAL MÖGLICHE LEISTUNG!,200,Go,go,4,1,0,0,0,1,,,,,0,1,1,0,,,,,,,,,,,,,1,96.06401679999999,None,96.06401679999999,None,,,201,211,95.15499610000006,95.66128759999992,95.64456340000015,95.74381559999983,4,1,0.3886099000001195,95.64456340000015,None,95.74381559999983,None,95.64456340000015,None,False,None,None,None,None,None,None,None,None,,,,,,,,,,,,,,,,,,,,,,,,,,,,AG4EN28,1,0x5FB8,D:\CoScience\Logfiles\,2022_May_27_1010,GoNoGo,2020.1.3,59.95732237796686,
DRÜCKEN SIE IM FOLGENDEN BITTE SO SCHNELL SIE KÖNNEN. BITTE ZEIGEN SIE IHRE MAXIMAL MÖGLICHE LEISTUNG!,200,Go,go,4,1,0,0,0,1,,,,,0,2,2,0,,,,,,,,,,,,,1,97.9482466999998,None,97.9482466999998,None,,,201,211,97.0924630999998,97.59456190000037,97.57800049999969,97.67802440000014,4,1,0.35018659999968804,97.57800049999969,None,97.67802440000014,None,97.57800049999969,None,False,None,None,None,None,None,None,None,None,,,,,,,,,,,,,,,,,,,,,,,,,,,,AG4EN28,1,0x5FB8,D:\CoScience\Logfiles\,2022_May_27_1010,GoNoGo,2020.1.3,59.95732237796686,
DRÜCKEN SIE IM FOLGENDEN BITTE SO SCHNELL SIE KÖNNEN. BITTE ZEIGEN SIE IHRE MAXIMAL MÖGLICHE LEISTUNG!,200,NoGo,nogo,None,2,0,0,0,1,,,,,1,0,3,2,,,,,,,,,,,,,0.9,100.17625769999995,None,100.17625769999995,None,,,202,0,98.96230680000008,99.46124659999987,99.46124659999987,99.56134240000029,None,1,,99.46124659999987,None,99.56134240000029,None,99.46124659999987,None,False,None,None,None,None,None,None,None,None,,,,,,,,,,,,,,,,,,,,,,,,,,,,AG4EN28,1,0x5FB8,D:\CoScience\Logfiles\,2022_May_27_1010,GoNoGo,2020.1.3,59.95732237796686,
DRÜCKEN SIE IM FOLGENDEN BITTE SO SCHNELL SIE KÖNNEN. BITTE ZEIGEN SIE IHRE MAXIMAL MÖGLICHE LEISTUNG!,200,Go,go,4,1,0,0,0,1,,,,,1,1,4,0,,,,,,,,,,,,,1,101.98171030000049,None,101.98171030000049,None,,,201,211,101.07960559999992,101.59454329999971,101.57798420000017,101.67791430000034,4,1,0.37536070000078325,101.57798420000017,None,101.67791430000034,None,101.57798420000017,None,False,None,None,None,None,None,None,None,None,,,,,,,,,,,,,,,,,,,,,,,,,,,,AG4EN28,1,0x5FB8,D:\CoScience\Logfiles\,2022_May_27_1010,GoNoGo,2020.1.3,59.95732237796686,
DRÜCKEN SIE IM FOLGENDEN BITTE SO SCHNELL SIE KÖNNEN. BITTE ZEIGEN SIE IHRE MAXIMAL MÖGLICHE LEISTUNG!,200,Go,go,4,1,0,0,0,1,,,,,1,2,5,1,,,,,,,,,,,,,1,103.88188770000033,None,103.88188770000033,None,,,201,211,103.00912380000045,103.51116379999985,103.49467220000042,103.59466390000034,4,1,0.3605386000008366,103.49467220000042,None,103.59466390000034,None,103.49467220000042,None,False,None,None,None,None,None,None,None,None,,,,,,,,,,,,,,,,,,,,,,,,,,,,AG4EN28,1,0x5FB8,D:\CoScience\Logfiles\,2022_May_27_1010,GoNoGo,2020.1.3,59.95732237796686,
DRÜCKEN SIE IM FOLGENDEN BITTE SO SCHNELL SIE KÖNNEN. BITTE ZEIGEN SIE IHRE MAXIMAL MÖGLICHE LEISTUNG!,200,Go,go,4,1,0,0,0,1,,,,,2,0,6,0,,,,,,,,,,,,,1,105.8152941999997,None,105.8152941999997,None,,,201,211,104.89540260000012,105.39467740000055,105.39467740000055,105.494643,4,1,0.39544500000010885,105.39467740000055,None,105.494643,None,105.39467740000055,None,False,None,None,None,None,None,None,None,None,,,,,,,,,,,,,,,,,,,,,,,,,,,,AG4EN28,1,0x5FB8,D:\CoScience\Logfiles\,2022_May_27_1010,GoNoGo,2020.1.3,59.95732237796686,
DRÜCKEN SIE IM FOLGENDEN BITTE SO SCHNELL SIE KÖNNEN. BITTE ZEIGEN SIE IHRE MAXIMAL MÖGLICHE LEISTUNG!,200,Go,go,4,1,0,0,0,1,,,,,2,1,7,0,,,,,,,,,,,,,1,107.73150950000036,None,107.73150950000036,None,,,201,211,106.84242400000039,107.3442427,107.32762189999994,107.42808940000032,4,1,0.37551780000012513,107.32762189999994,None,107.42808940000032,None,107.32762189999994,None,False,None,None,None,None,None,None,None,None,,,,,,,,,,,,,,,,,,,,,,,,,,,,AG4EN28,1,0x5FB8,D:\CoScience\Logfiles\,2022_May_27_1010,GoNoGo,2020.1.3,59.95732237796686,
DRÜCKEN SIE IM FOLGENDEN BITTE SO SCHNELL SIE KÖNNEN. BITTE ZEIGEN SIE IHRE MAXIMAL MÖGLICHE LEISTUNG!,200,Go,go,4,1,0,0,0,1,,,,,2,2,8,0,,,,,,,,,,,,,1,109.63187879999987,None,109.63187879999987,None,,,201,211,108.7591809000005,109.26124530000016,109.24456850000024,109.34455609999986,4,1,0.36078730000008363,109.24456850000024,None,109.34455609999986,None,109.24456850000024,None,False,None,None,None,None,None,None,None,None,,,,,,,,,,,,,,,,,,,,,,,,,,,,AG4EN28,1,0x5FB8,D:\CoScience\Logfiles\,2022_May_27_1010,GoNoGo,2020.1.3,59.95732237796686,
DRÜCKEN SIE IM FOLGENDEN BITTE SO SCHNELL SIE KÖNNEN. BITTE ZEIGEN SIE IHRE MAXIMAL MÖGLICHE LEISTUNG!,200,Go,go,4,1,0,0,0,1,,,,,3,0,9,0,,,,,,,,,,,,,1,111.44823600000018,None,111.44823600000018,None,,,201,211,110.64542290000009,111.14466100000027,111.14466100000027,111.24464360000002,4,1,0.2814819000004718,111.14466100000027,None,111.24464360000002,None,111.14466100000027,None,False,None,None,None,None,None,None,None,None,,,,,,,,,,,,,,,,,,,,,,,,,,,,AG4EN28,1,0x5FB8,D:\CoScience\Logfiles\,2022_May_27_1010,GoNoGo,2020.1.3,59.95732237796686,
DRÜCKEN SIE IM FOLGENDEN BITTE SO SCHNELL SIE KÖNNEN. BITTE ZEIGEN SIE IHRE MAXIMAL MÖGLICHE LEISTUNG!,200,Go,go,4,1,0,0,0,1,,,,,3,1,10,0,,,,,,,,,,,,,1,113.31595749999997,None,113.31595749999997,None,,,201,211,112.46202080000057,112.9613287000002,112.9613287000002,113.06123620000017,4,1,0.3307502999996359,112.9613287000002,None,113.06123620000017,None,112.9613287000002,None,False,None,None,None,None,None,None,None,None,,,,,,,,,,,,,,,,,,,,,,,,,,,,AG4EN28,1,0x5FB8,D:\CoScience\Logfiles\,2022_May_27_1010,GoNoGo,2020.1.3,59.95732237796686,
DRÜCKEN SIE IM FOLGENDEN BITTE SO SCHNELL SIE KÖNNEN. BITTE ZEIGEN SIE IHRE MAXIMAL MÖGLICHE LEISTUNG!,200,Go,go,4,1,0,0,0,1,,,,,3,2,11,0,,,,,,,,,,,,,1,115.12940780000008,None,115.12940780000008,None,,,201,211,114.32879940000021,114.82798749999984,114.82798749999984,114.92800090000037,4,1,0.26913320000039676,114.82798749999984,None,114.92800090000037,None,114.82798749999984,None,False,None,None,None,None,None,None,None,None,,,,,,,,,,,,,,,,,,,,,,,,,,,,AG4EN28,1,0x5FB8,D:\CoScience\Logfiles\,2022_May_27_1010,GoNoGo,2020.1.3,59.95732237796686,
DRÜCKEN SIE IM FOLGENDEN BITTE SO SCHNELL SIE KÖNNEN. BITTE ZEIGEN SIE IHRE MAXIMAL MÖGLICHE LEISTUNG!,200,Go,go,4,1,0,0,0,1,,,,,4,0,12,1,,,,,,,,,,,,,1,116.93160350000016,None,116.93160350000016,None,,,201,211,116.14534009999988,116.64469699999972,116.64469699999972,116.74472100000003,4,1,0.2639131999994788,116.64469699999972,None,116.74472100000003,None,116.64469699999972,None,False,None,None,None,None,None,None,None,None,,,,,,,,,,,,,,,,,,,,,,,,,,,,AG4EN28,1,0x5FB8,D:\CoScience\Logfiles\,2022_May_27_1010,GoNoGo,2020.1.3,59.95732237796686,
DRÜCKEN SIE IM FOLGENDEN BITTE SO SCHNELL SIE KÖNNEN. BITTE ZEIGEN SIE IHRE MAXIMAL MÖGLICHE LEISTUNG!,200,NoGo,nogo,None,2,0,0,0,1,,,,,4,1,13,2,,,,,,,,,,,,,0.9,119.15966490000028,None,119.15966490000028,None,,,202,0,117.94620320000013,118.46122370000012,118.44465330000003,118.54469100000006,None,1,,118.44465330000003,None,118.54469100000006,None,118.44465330000003,None,False,None,None,None,None,None,None,None,None,,,,,,,,,,,,,,,,,,,,,,,,,,,,AG4EN28,1,0x5FB8,D:\CoScience\Logfiles\,2022_May_27_1010,GoNoGo,2020.1.3,59.95732237796686,
DRÜCKEN SIE IM FOLGENDEN BITTE SO SCHNELL SIE KÖNNEN. BITTE ZEIGEN SIE IHRE MAXIMAL MÖGLICHE LEISTUNG!,200,Go,go,4,1,0,0,0,1,,,,,4,2,14,0,,,,,,,,,,,,,1,120.9153210000004,None,120.9153210000004,None,,,201,211,120.06283919999987,120.57782539999971,120.56121489999987,120.66121019999991,4,1,0.32890259999931004,120.56121489999987,None,120.66121019999991,None,120.56121489999987,None,False,None,None,None,None,None,None,None,None,,,,,,,,,,,,,,,,,,,,,,,,,,,,AG4EN28,1,0x5FB8,D:\CoScience\Logfiles\,2022_May_27_1010,GoNoGo,2020.1.3,59.95732237796686,
DRÜCKEN SIE IM FOLGENDEN BITTE SO SCHNELL SIE KÖNNEN. BITTE ZEIGEN SIE IHRE MAXIMAL MÖGLICHE LEISTUNG!,200,NoGo,nogo,None,2,0,0,0,1,,,,,5,0,15,2,,,,,,,,,,,,,0.9,123.12994890000027,None,123.12994890000027,None,,,202,0,121.9294232000002,122.4446041000001,122.42786870000054,122.52797160000046,None,1,,122.42786870000054,None,122.52797160000046,None,122.42786870000054,None,False,None,None,None,None,None,None,None,None,,,,,,,,,,,,,,,,,,,,,,,,,,,,AG4EN28,1,0x5FB8,D:\CoScience\Logfiles\,2022_May_27_1010,GoNoGo,2020.1.3,59.95732237796686,
DRÜCKEN SIE IM FOLGENDEN BITTE SO SCHNELL SIE KÖNNEN. BITTE ZEIGEN SIE IHRE MAXIMAL MÖGLICHE LEISTUNG!,200,Go,go,4,1,0,0,0,1,,,,,5,1,16,1,,,,,,,,,,,,,1,124.83165840000038,None,124.83165840000038,None,,,201,211,124.04518430000007,124.54469169999993,124.54469169999993,124.64462559999993,4,1,0.2654008999998041,124.54469169999993,None,124.64462559999993,None,124.54469169999993,None,False,None,None,None,None,None,None,None,None,,,,,,,,,,,,,,,,,,,,,,,,,,,,AG4EN28,1,0x5FB8,D:\CoScience\Logfiles\,2022_May_27_1010,GoNoGo,2020.1.3,59.95732237796686,
DRÜCKEN SIE IM FOLGENDEN BITTE SO SCHNELL SIE KÖNNEN. BITTE ZEIGEN SIE IHRE MAXIMAL MÖGLICHE LEISTUNG!,200,NoGo,nogo,None,2,0,0,0,1,,,,,5,2,17,2,,,,,,,,,,,,,0.9,127.04548100000011,None,127.04548100000011,None,,,202,0,125.84626060000028,126.3612006000003,126.34464620000017,126.44465719999971,None,1,,126.34464620000017,None,126.44465719999971,None,126.34464620000017,None,False,None,None,None,None,None,None,None,None,,,,,,,,,,,,,,,,,,,,,,,,,,,,AG4EN28,1,0x5FB8,D:\CoScience\Logfiles\,2022_May_27_1010,GoNoGo,2020.1.3,59.95732237796686,
DRÜCKEN SIE IM FOLGENDEN BITTE SO SCHNELL SIE KÖNNEN. BITTE ZEIGEN SIE IHRE MAXIMAL MÖGLICHE LEISTUNG!,200,Go,go,4,1,0,0,0,1,,,,,6,0,18,1,,,,,,,,,,,,,1,128.8154838999999,None,128.8154838999999,None,,,201,211,127.94615210000029,128.46118490000026,128.44469500000014,128.54472140000053,4,1,0.3514497999995001,128.44469500000014,None,128.54472140000053,None,128.44469500000014,None,False,None,None,None,None,None,None,None,None,,,,,,,,,,,,,,,,,,,,,,,,,,,,AG4EN28,1,0x5FB8,D:\CoScience\Logfiles\,2022_May_27_1010,GoNoGo,2020.1.3,59.95732237796686,
DRÜCKEN SIE IM FOLGENDEN BITTE SO SCHNELL SIE KÖNNEN. BITTE ZEIGEN SIE IHRE MAXIMAL MÖGLICHE LEISTUNG!,200,NoGo,nogo,None,2,0,0,0,1,,,,,6,1,19,2,,,,,,,,,,,,,0.9,131.0433137,None,131.0433137,None,,,202,0,129.82952680000017,130.34445779999987,130.32784869999978,130.42794550000053,None,1,,130.32784869999978,None,130.42794550000053,None,130.32784869999978,None,False,None,None,None,None,None,None,None,None,,,,,,,,,,,,,,,,,,,,,,,,,,,,AG4EN28,1,0x5FB8,D:\CoScience\Logfiles\,2022_May_27_1010,GoNoGo,2020.1.3,59.95732237796686,
DRÜCKEN SIE IM FOLGENDEN BITTE SO SCHNELL SIE KÖNNEN. BITTE ZEIGEN SIE IHRE MAXIMAL MÖGLICHE LEISTUNG!,200,NoGo,nogo,None,2,0,0,0,1,,,,,6,2,20,2,,,,,,,,,,,,,0.9,133.15961040000002,None,133.15961040000002,None,,,202,0,131.94543780000004,132.4446267000003,132.4446267000003,132.5446708999998,None,1,,132.4446267000003,None,132.5446708999998,None,132.4446267000003,None,False,None,None,None,None,None,None,None,None,,,,,,,,,,,,,,,,,,,,,,,,,,,,AG4EN28,1,0x5FB8,D:\CoScience\Logfiles\,2022_May_27_1010,GoNoGo,2020.1.3,59.95732237796686,
DRÜCKEN SIE IM FOLGENDEN BITTE SO SCHNELL SIE KÖNNEN. BITTE ZEIGEN SIE IHRE MAXIMAL MÖGLICHE LEISTUNG!,200,Go,go,4,1,0,0,0,1,,,,,7,0,21,1,,,,,,,,,,,,,1,134.99885259999974,None,134.99885259999974,None,,,201,211,134.0628810999997,134.5779051999998,134.5609955,134.66131339999993,4,1,0.4093347999996695,134.5609955,None,134.66131339999993,None,134.5609955,None,False,None,None,None,None,None,None,None,None,,,,,,,,,,,,,,,,,,,,,,,,,,,,AG4EN28,1,0x5FB8,D:\CoScience\Logfiles\,2022_May_27_1010,GoNoGo,2020.1.3,59.95732237796686,
DRÜCKEN SIE IM FOLGENDEN BITTE SO SCHNELL SIE KÖNNEN. BITTE ZEIGEN SIE IHRE MAXIMAL MÖGLICHE LEISTUNG!,200,Go,go,4,1,0,0,0,1,,,,,7,1,22,0,,,,,,,,,,,,,1,136.88077990000056,None,136.88077990000056,None,,,201,211,136.01205120000031,136.51133840000057,136.51133840000057,136.61130870000034,4,1,0.33876190000046336,136.51133840000057,None,136.61130870000034,None,136.51133840000057,None,False,None,None,None,None,None,None,None,None,,,,,,,,,,,,,,,,,,,,,,,,,,,,AG4EN28,1,0x5FB8,D:\CoScience\Logfiles\,2022_May_27_1010,GoNoGo,2020.1.3,59.95732237796686,
DRÜCKEN SIE IM FOLGENDEN BITTE SO SCHNELL SIE KÖNNEN. BITTE ZEIGEN SIE IHRE MAXIMAL MÖGLICHE LEISTUNG!,200,Go,go,4,1,0,0,0,1,,,,,7,2,23,0,,,,,,,,,,,,,1,138.78142840000055,None,138.78142840000055,None,,,201,211,137.90912879999996,138.41118910000023,138.39461889999984,138.4947004000005,4,1,0.36649410000063654,138.39461889999984,None,138.4947004000005,None,138.39461889999984,None,False,None,None,None,None,None,None,None,None,,,,,,,,,,,,,,,,,,,,,,,,,,,,AG4EN28,1,0x5FB8,D:\CoScience\Logfiles\,2022_May_27_1010,GoNoGo,2020.1.3,59.95732237796686,
DRÜCKEN SIE IM FOLGENDEN BITTE SO SCHNELL SIE KÖNNEN. BITTE ZEIGEN SIE IHRE MAXIMAL MÖGLICHE LEISTUNG!,200,Go,go,4,1,0,0,0,1,,,,,8,0,24,0,,,,,,,,,,,,,1,140.61493539999992,None,140.61493539999992,None,,,201,211,139.8091684000001,140.31120329999976,140.29464830000052,140.39461329999995,4,1,0.29945609999958833,140.29464830000052,None,140.39461329999995,None,140.29464830000052,None,False,None,None,None,None,None,None,None,None,,,,,,,,,,,,,,,,,,,,,,,,,,,,AG4EN28,1,0x5FB8,D:\CoScience\Logfiles\,2022_May_27_1010,GoNoGo,2020.1.3,59.95732237796686,
DRÜCKEN SIE IM FOLGENDEN BITTE SO SCHNELL SIE KÖNNEN. BITTE ZEIGEN SIE IHRE MAXIMAL MÖGLICHE LEISTUNG!,200,NoGo,nogo,None,2,0,0,0,1,,,,,8,1,25,2,,,,,,,,,,,,,0.9,142.8429102,None,142.8429102,None,,,202,0,141.6285601999998,142.12791130000005,142.12791130000005,142.22793860000002,None,1,,142.12791130000005,None,142.22793860000002,None,142.12791130000005,None,False,None,None,None,None,None,None,None,None,,,,,,,,,,,,,,,,,,,,,,,,,,,,AG4EN28,1,0x5FB8,D:\CoScience\Logfiles\,2022_May_27_1010,GoNoGo,2020.1.3,59.95732237796686,
DRÜCKEN SIE IM FOLGENDEN BITTE SO SCHNELL SIE KÖNNEN. BITTE ZEIGEN SIE IHRE MAXIMAL MÖGLICHE LEISTUNG!,200,Go,go,4,1,0,0,0,1,,,,,8,2,26,1,,,,,,,,,,,,,1,144.63167780000003,None,144.63167780000003,None,,,201,211,143.7453817000005,144.2445988999998,144.2445988999998,144.3446730000005,4,1,0.36745799999971496,144.2445988999998,None,144.3446730000005,None,144.2445988999998,None,False,None,None,None,None,None,None,None,None,,,,,,,,,,,,,,,,,,,,,,,,,,,,AG4EN28,1,0x5FB8,D:\CoScience\Logfiles\,2022_May_27_1010,GoNoGo,2020.1.3,59.95732237796686,
DRÜCKEN SIE IM FOLGENDEN BITTE SO SCHNELL SIE KÖNNEN. BITTE ZEIGEN SIE IHRE MAXIMAL MÖGLICHE LEISTUNG!,200,Go,go,4,1,0,0,0,1,,,,,9,0,27,0,,,,,,,,,,,,,1,146.49820700000055,None,146.49820700000055,None,,,201,211,145.64558080000006,146.14463669999986,146.14463669999986,146.24461580000025,4,1,0.32753130000037345,146.14463669999986,None,146.24461580000025,None,146.14463669999986,None,False,None,None,None,None,None,None,None,None,,,,,,,,,,,,,,,,,,,,,,,,,,,,AG4EN28,1,0x5FB8,D:\CoScience\Logfiles\,2022_May_27_1010,GoNoGo,2020.1.3,59.95732237796686,
DRÜCKEN SIE IM FOLGENDEN BITTE SO SCHNELL SIE KÖNNEN. BITTE ZEIGEN SIE IHRE MAXIMAL MÖGLICHE LEISTUNG!,200,NoGo,nogo,None,2,0,0,0,1,,,,,9,1,28,2,,,,,,,,,,,,,0.9,148.72620920000008,None,148.72620920000008,None,,,202,0,147.5129379,148.0278128,148.01126160000058,148.11127639999995,None,1,,148.01126160000058,None,148.11127639999995,None,148.01126160000058,None,False,None,None,None,None,None,None,None,None,,,,,,,,,,,,,,,,,,,,,,,,,,,,AG4EN28,1,0x5FB8,D:\CoScience\Logfiles\,2022_May_27_1010,GoNoGo,2020.1.3,59.95732237796686,
DRÜCKEN SIE IM FOLGENDEN BITTE SO SCHNELL SIE KÖNNEN. BITTE ZEIGEN SIE IHRE MAXIMAL MÖGLICHE LEISTUNG!,200,NoGo,nogo,None,2,0,0,0,1,,,,,9,2,29,2,,,,,,,,,,,,,0.9,150.82884319999994,None,150.82884319999994,None,,,202,0,149.62867480000023,150.12795160000042,150.12795160000042,150.2279298000003,None,1,,150.12795160000042,None,150.2279298000003,None,150.12795160000042,None,False,None,None,None,None,None,None,None,None,,,,,,,,,,,,,,,,,,,,,,,,,,,,AG4EN28,1,0x5FB8,D:\CoScience\Logfiles\,2022_May_27_1010,GoNoGo,2020.1.3,59.95732237796686,
DRÜCKEN SIE IM FOLGENDEN BITTE SO SCHNELL SIE KÖNNEN. BITTE ZEIGEN SIE IHRE MAXIMAL MÖGLICHE LEISTUNG!,200,NoGo,nogo,None,2,0,0,0,1,,,,,10,0,30,2,,,,,,,,,,,,,0.9,152.9428151000002,None,152.9428151000002,None,,,202,0,151.72873119999986,152.22793939999974,152.22793939999974,152.32793349999974,None,1,,152.22793939999974,None,152.32793349999974,None,152.22793939999974,None,False,None,None,None,None,None,None,None,None,,,,,,,,,,,,,,,,,,,,,,,,,,,,AG4EN28,1,0x5FB8,D:\CoScience\Logfiles\,2022_May_27_1010,GoNoGo,2020.1.3,59.95732237796686,
DRÜCKEN SIE IM FOLGENDEN BITTE SO SCHNELL SIE KÖNNEN. BITTE ZEIGEN SIE IHRE MAXIMAL MÖGLICHE LEISTUNG!,200,NoGo,nogo,None,2,0,0,0,1,,,,,10,1,31,2,,,,,,,,,,,,,0.9,155.05950480000047,None,155.05950480000047,None,,,202,0,153.85903529999996,154.3611817000001,154.3446098000004,154.44463970000015,None,1,,154.3446098000004,None,154.44463970000015,None,154.3446098000004,None,False,None,None,None,None,None,None,None,None,,,,,,,,,,,,,,,,,,,,,,,,,,,,AG4EN28,1,0x5FB8,D:\CoScience\Logfiles\,2022_May_27_1010,GoNoGo,2020.1.3,59.95732237796686,
DRÜCKEN SIE IM FOLGENDEN BITTE SO SCHNELL SIE KÖNNEN. BITTE ZEIGEN SIE IHRE MAXIMAL MÖGLICHE LEISTUNG!,200,NoGo,nogo,None,2,0,0,0,1,,,,,10,2,32,2,,,,,,,,,,,,,0.9,157.16209720000006,None,157.16209720000006,None,,,202,0,155.96200339999996,156.46122579999974,156.46122579999974,156.56126330000006,None,1,,156.46122579999974,None,156.56126330000006,None,156.46122579999974,None,False,None,None,None,None,None,None,None,None,,,,,,,,,,,,,,,,,,,,,,,,,,,,AG4EN28,1,0x5FB8,D:\CoScience\Logfiles\,2022_May_27_1010,GoNoGo,2020.1.3,59.95732237796686,
DRÜCKEN SIE IM FOLGENDEN BITTE SO SCHNELL SIE KÖNNEN. BITTE ZEIGEN SIE IHRE MAXIMAL MÖGLICHE LEISTUNG!,200,Go,go,4,1,0,0,0,1,,,,,11,0,33,1,,,,,,,,,,,,,1,159.0648594000004,None,159.0648594000004,None,,,201,211,158.06275600000026,158.5778889000003,158.5612486,158.66125960000045,4,1,0.4828183999998146,158.5612486,None,158.66125960000045,None,158.5612486,None,False,None,None,None,None,None,None,None,None,,,,,,,,,,,,,,,,,,,,,,,,,,,,AG4EN28,1,0x5FB8,D:\CoScience\Logfiles\,2022_May_27_1010,GoNoGo,2020.1.3,59.95732237796686,
DRÜCKEN SIE IM FOLGENDEN BITTE SO SCHNELL SIE KÖNNEN. BITTE ZEIGEN SIE IHRE MAXIMAL MÖGLICHE LEISTUNG!,200,Go,go,4,1,0,0,0,1,,,,,11,1,34,0,,,,,,,,,,,,,1,160.91443739999977,None,160.91443739999977,None,,,201,211,160.07873459999973,160.5941270000003,160.57744980000007,160.67782230000012,4,1,0.3066126000003351,160.57744980000007,None,160.67782230000012,None,160.57744980000007,None,False,None,None,None,None,None,None,None,None,,,,,,,,,,,,,,,,,,,,,,,,,,,,AG4EN28,1,0x5FB8,D:\CoScience\Logfiles\,2022_May_27_1010,GoNoGo,2020.1.3,59.95732237796686,
DRÜCKEN SIE IM FOLGENDEN BITTE SO SCHNELL SIE KÖNNEN. BITTE ZEIGEN SIE IHRE MAXIMAL MÖGLICHE LEISTUNG!,200,Go,go,4,1,0,0,0,1,,,,,11,2,35,0,,,,,,,,,,,,,1,162.79830200000015,None,162.79830200000015,None,,,201,211,161.92860990000008,162.42794349999986,162.42794349999986,162.5279246,4,1,0.3503606000003856,162.42794349999986,None,162.5279246,None,162.42794349999986,None,False,None,None,None,None,None,None,None,None,,,,,,,,,,,,,,,,,,,,,,,,,,,,AG4EN28,1,0x5FB8,D:\CoScience\Logfiles\,2022_May_27_1010,GoNoGo,2020.1.3,59.95732237796686,
DRÜCKEN SIE IM FOLGENDEN BITTE SO SCHNELL SIE KÖNNEN. BITTE ZEIGEN SIE IHRE MAXIMAL MÖGLICHE LEISTUNG!,200,Go,go,4,1,0,0,0,1,,,,,12,0,36,1,,,,,,,,,,,,,1,164.71543350000047,None,164.71543350000047,None,,,201,211,163.81204750000052,164.31125530000008,164.31125530000008,164.4112511000003,4,1,0.3848323000001983,164.31125530000008,None,164.4112511000003,None,164.31125530000008,None,False,None,None,None,None,None,None,None,None,,,,,,,,,,,,,,,,,,,,,,,,,,,,AG4EN28,1,0x5FB8,D:\CoScience\Logfiles\,2022_May_27_1010,GoNoGo,2020.1.3,59.95732237796686,
DRÜCKEN SIE IM FOLGENDEN BITTE SO SCHNELL SIE KÖNNEN. BITTE ZEIGEN SIE IHRE MAXIMAL MÖGLICHE LEISTUNG!,200,Go,go,4,1,0,0,0,1,,,,,12,1,37,0,,,,,,,,,,,,,1,166.51478659999975,None,166.51478659999975,None,,,201,211,165.74228670000048,166.24455860000035,166.22795700000006,166.3279321,4,1,0.26410440000017843,166.22795700000006,None,166.3279321,None,166.22795700000006,None,False,None,None,None,None,None,None,None,None,,,,,,,,,,,,,,,,,,,,,,,,,,,,AG4EN28,1,0x5FB8,D:\CoScience\Logfiles\,2022_May_27_1010,GoNoGo,2020.1.3,59.95732237796686,
DRÜCKEN SIE IM FOLGENDEN BITTE SO SCHNELL SIE KÖNNEN. BITTE ZEIGEN SIE IHRE MAXIMAL MÖGLICHE LEISTUNG!,200,Go,go,4,1,0,0,0,1,,,,,12,2,38,0,,,,,,,,,,,,,1,168.28179480000017,None,168.28179480000017,None,,,201,211,167.52890260000004,168.02792500000032,168.02792500000032,168.12785280000026,4,1,0.23131300000022748,168.02792500000032,None,168.12785280000026,None,168.02792500000032,None,False,None,None,None,None,None,None,None,None,,,,,,,,,,,,,,,,,,,,,,,,,,,,AG4EN28,1,0x5FB8,D:\CoScience\Logfiles\,2022_May_27_1010,GoNoGo,2020.1.3,59.95732237796686,
DRÜCKEN SIE IM FOLGENDEN BITTE SO SCHNELL SIE KÖNNEN. BITTE ZEIGEN SIE IHRE MAXIMAL MÖGLICHE LEISTUNG!,200,Go,go,4,1,0,0,0,1,,,,,13,0,39,1,,,,,,,,,,,,,1,170.0655013000005,None,170.0655013000005,None,,,201,211,169.29539709999972,169.79449060000024,169.79449060000024,169.8944814000006,4,1,0.23956109999926412,169.79449060000024,None,169.8944814000006,None,169.79449060000024,None,False,None,None,None,None,None,None,None,None,,,,,,,,,,,,,,,,,,,,,,,,,,,,AG4EN28,1,0x5FB8,D:\CoScience\Logfiles\,2022_May_27_1010,GoNoGo,2020.1.3,59.95732237796686,
DRÜCKEN SIE IM FOLGENDEN BITTE SO SCHNELL SIE KÖNNEN. BITTE ZEIGEN SIE IHRE MAXIMAL MÖGLICHE LEISTUNG!,200,NoGo,nogo,None,2,0,0,0,1,,,,,13,1,40,2,,,,,,,,,,,,,0.9,172.28082780000022,None,172.28082780000022,None,,,202,0,171.07936620000055,171.59442940000008,171.57791980000002,171.67788660000042,None,1,,171.57791980000002,None,171.67788660000042,None,171.57791980000002,None,False,None,None,None,None,None,None,None,None,,,,,,,,,,,,,,,,,,,,,,,,,,,,AG4EN28,1,0x5FB8,D:\CoScience\Logfiles\,2022_May_27_1010,GoNoGo,2020.1.3,59.95732237796686,
DRÜCKEN SIE IM FOLGENDEN BITTE SO SCHNELL SIE KÖNNEN. BITTE ZEIGEN SIE IHRE MAXIMAL MÖGLICHE LEISTUNG!,200,NoGo,nogo,None,2,0,0,0,1,,,,,13,2,41,2,,,,,,,,,,,,,0.9,174.4096244000002,None,174.4096244000002,None,,,202,0,173.1952820000006,173.6945639000005,173.6945639000005,173.7945681000001,None,1,,173.6945639000005,None,173.7945681000001,None,173.6945639000005,None,False,None,None,None,None,None,None,None,None,,,,,,,,,,,,,,,,,,,,,,,,,,,,AG4EN28,1,0x5FB8,D:\CoScience\Logfiles\,2022_May_27_1010,GoNoGo,2020.1.3,59.95732237796686,
DRÜCKEN SIE IM FOLGENDEN BITTE SO SCHNELL SIE KÖNNEN. BITTE ZEIGEN SIE IHRE MAXIMAL MÖGLICHE LEISTUNG!,200,Go,go,4,1,0,0,0,1,,,,,14,0,42,1,,,,,,,,,,,,,1,176.16305449999982,None,176.16305449999982,None,,,201,211,175.31277469999986,175.82781950000026,175.81117170000016,175.91123760000028,4,1,0.31992110000010143,175.81117170000016,None,175.91123760000028,None,175.81117170000016,None,False,None,None,None,None,None,None,None,None,,,,,,,,,,,,,,,,,,,,,,,,,,,,AG4EN28,1,0x5FB8,D:\CoScience\Logfiles\,2022_May_27_1010,GoNoGo,2020.1.3,59.95732237796686,
DRÜCKEN SIE IM FOLGENDEN BITTE SO SCHNELL SIE KÖNNEN. BITTE ZEIGEN SIE IHRE MAXIMAL MÖGLICHE LEISTUNG!,200,NoGo,nogo,None,2,0,0,0,1,,,,,14,1,43,2,,,,,,,,,,,,,0.9,178.39275890000044,None,178.39275890000044,None,,,202,0,177.17950250000013,177.69447589999982,177.6779047,177.77791930000058,None,1,,177.6779047,None,177.77791930000058,None,177.6779047,None,False,None,None,None,None,None,None,None,None,,,,,,,,,,,,,,,,,,,,,,,,,,,,AG4EN28,1,0x5FB8,D:\CoScience\Logfiles\,2022_May_27_1010,GoNoGo,2020.1.3,59.95732237796686,
DRÜCKEN SIE IM FOLGENDEN BITTE SO SCHNELL SIE KÖNNEN. BITTE ZEIGEN SIE IHRE MAXIMAL MÖGLICHE LEISTUNG!,200,Go,go,4,1,0,0,0,1,,,,,14,2,44,0,,,,,,,,,,,,,1,180.063666,None,180.063666,None,,,201,211,179.29605900000024,179.81116089999978,179.7945533000002,179.8945364000001,4,1,0.24866519999977754,179.7945533000002,None,179.8945364000001,None,179.7945533000002,None,False,None,None,None,None,None,None,None,None,,,,,,,,,,,,,,,,,,,,,,,,,,,,AG4EN28,1,0x5FB8,D:\CoScience\Logfiles\,2022_May_27_1010,GoNoGo,2020.1.3,59.95732237796686,
DRÜCKEN SIE IM FOLGENDEN BITTE SO SCHNELL SIE KÖNNEN. BITTE ZEIGEN SIE IHRE MAXIMAL MÖGLICHE LEISTUNG!,200,Go,go,4,1,0,0,0,1,,,,,15,0,45,0,,,,,,,,,,,,,1,181.91485009999997,None,181.91485009999997,None,,,201,211,181.09246249999978,181.59441200000037,181.57783350000045,181.67780810000022,4,1,0.3162014999998064,181.57783350000045,None,181.67780810000022,None,181.57783350000045,None,False,None,None,None,None,None,None,None,None,,,,,,,,,,,,,,,,,,,,,,,,,,,,AG4EN28,1,0x5FB8,D:\CoScience\Logfiles\,2022_May_27_1010,GoNoGo,2020.1.3,59.95732237796686,
DRÜCKEN SIE IM FOLGENDEN BITTE SO SCHNELL SIE KÖNNEN. BITTE ZEIGEN SIE IHRE MAXIMAL MÖGLICHE LEISTUNG!,200,NoGo,nogo,None,2,0,0,0,1,,,,,15,1,46,2,,,,,,,,,,,,,0.9,184.12778340000023,None,184.12778340000023,None,,,202,0,182.9295057999998,183.44447000000036,183.42797040000005,183.52791950000028,None,1,,183.42797040000005,None,183.52791950000028,None,183.42797040000005,None,False,None,None,None,None,None,None,None,None,,,,,,,,,,,,,,,,,,,,,,,,,,,,AG4EN28,1,0x5FB8,D:\CoScience\Logfiles\,2022_May_27_1010,GoNoGo,2020.1.3,59.95732237796686,
DRÜCKEN SIE IM FOLGENDEN BITTE SO SCHNELL SIE KÖNNEN. BITTE ZEIGEN SIE IHRE MAXIMAL MÖGLICHE LEISTUNG!,200,Go,go,4,1,0,0,0,1,,,,,15,2,47,0,,,,,,,,,,,,,1,185.88177410000026,None,185.88177410000026,None,,,201,211,185.02942799999983,185.54446950000056,185.5279214000002,185.62790760000007,4,1,0.32915410000077827,185.5279214000002,None,185.62790760000007,None,185.5279214000002,None,False,None,None,None,None,None,None,None,None,,,,,,,,,,,,,,,,,,,,,,,,,,,,AG4EN28,1,0x5FB8,D:\CoScience\Logfiles\,2022_May_27_1010,GoNoGo,2020.1.3,59.95732237796686,
DRÜCKEN SIE IM FOLGENDEN BITTE SO SCHNELL SIE KÖNNEN. BITTE ZEIGEN SIE IHRE MAXIMAL MÖGLICHE LEISTUNG!,200,Go,go,4,1,0,0,0,1,,,,,16,0,48,1,,,,,,,,,,,,,1,187.7808057000002,None,187.7808057000002,None,,,201,211,186.90893770000002,187.41113380000024,187.3946031000005,187.49455600000056,4,1,0.36641750000035245,187.3946031000005,None,187.49455600000056,None,187.3946031000005,None,False,None,None,None,None,None,None,None,None,,,,,,,,,,,,,,,,,,,,,,,,,,,,AG4EN28,1,0x5FB8,D:\CoScience\Logfiles\,2022_May_27_1010,GoNoGo,2020.1.3,59.95732237796686,
DRÜCKEN SIE IM FOLGENDEN BITTE SO SCHNELL SIE KÖNNEN. BITTE ZEIGEN SIE IHRE MAXIMAL MÖGLICHE LEISTUNG!,200,Go,go,4,1,0,0,0,1,,,,,16,1,49,1,,,,,,,,,,,,,1,189.76494590000038,None,189.76494590000038,None,,,201,211,188.8090460000003,189.3111257999999,189.29454200000055,189.3945487000001,4,1,0.444789000000128,189.29454200000055,None,189.3945487000001,None,189.29454200000055,None,False,None,None,None,None,None,None,None,None,,,,,,,,,,,,,,,,,,,,,,,,,,,,AG4EN28,1,0x5FB8,D:\CoScience\Logfiles\,2022_May_27_1010,GoNoGo,2020.1.3,59.95732237796686,
DRÜCKEN SIE IM FOLGENDEN BITTE SO SCHNELL SIE KÖNNEN. BITTE ZEIGEN SIE IHRE MAXIMAL MÖGLICHE LEISTUNG!,200,Go,go,4,1,0,0,0,1,,,,,16,2,50,1,,,,,,,,,,,,,1,191.61192699999992,None,191.61192699999992,None,,,201,211,190.79250870000033,191.29447460000029,191.2778583999998,191.37778040000012,4,1,0.30430429999978514,191.2778583999998,None,191.37778040000012,None,191.2778583999998,None,False,None,None,None,None,None,None,None,None,,,,,,,,,,,,,,,,,,,,,,,,,,,,AG4EN28,1,0x5FB8,D:\CoScience\Logfiles\,2022_May_27_1010,GoNoGo,2020.1.3,59.95732237796686,
DRÜCKEN SIE IM FOLGENDEN BITTE SO SCHNELL SIE KÖNNEN. BITTE ZEIGEN SIE IHRE MAXIMAL MÖGLICHE LEISTUNG!,200,NoGo,nogo,None,2,0,0,0,1,,,,,17,0,51,2,,,,,,,,,,,,,0.9,193.82624850000047,None,193.82624850000047,None,,,202,0,192.61283060000005,193.1277893000006,193.1111146000003,193.2111777,None,1,,193.1111146000003,None,193.2111777,None,193.1111146000003,None,False,None,None,None,None,None,None,None,None,,,,,,,,,,,,,,,,,,,,,,,,,,,,AG4EN28,1,0x5FB8,D:\CoScience\Logfiles\,2022_May_27_1010,GoNoGo,2020.1.3,59.95732237796686,
DRÜCKEN SIE IM FOLGENDEN BITTE SO SCHNELL SIE KÖNNEN. BITTE ZEIGEN SIE IHRE MAXIMAL MÖGLICHE LEISTUNG!,200,Go,go,4,1,0,0,0,1,,,,,17,1,52,1,,,,,,,,,,,,,1,195.54822849999982,None,195.54822849999982,None,,,201,211,194.72947329999988,195.24435220000032,195.22792130000016,195.32779469999969,4,1,0.2896774999999252,195.22792130000016,None,195.32779469999969,None,195.22792130000016,None,False,None,None,None,None,None,None,None,None,,,,,,,,,,,,,,,,,,,,,,,,,,,,AG4EN28,1,0x5FB8,D:\CoScience\Logfiles\,2022_May_27_1010,GoNoGo,2020.1.3,59.95732237796686,
DRÜCKEN SIE IM FOLGENDEN BITTE SO SCHNELL SIE KÖNNEN. BITTE ZEIGEN SIE IHRE MAXIMAL MÖGLICHE LEISTUNG!,200,Go,go,4,1,0,0,0,1,,,,,17,2,53,0,,,,,,,,,,,,,1,197.57963699999982,None,197.57963699999982,None,,,201,211,196.56208190000052,197.06122529999993,197.06122529999993,197.16120070000034,4,1,0.48680200000035256,197.06122529999993,None,197.16120070000034,None,197.06122529999993,None,False,None,None,None,None,None,None,None,None,,,,,,,,,,,,,,,,,,,,,,,,,,,,AG4EN28,1,0x5FB8,D:\CoScience\Logfiles\,2022_May_27_1010,GoNoGo,2020.1.3,59.95732237796686,
DRÜCKEN SIE IM FOLGENDEN BITTE SO SCHNELL SIE KÖNNEN. BITTE ZEIGEN SIE IHRE MAXIMAL MÖGLICHE LEISTUNG!,200,Go,go,4,1,0,0,0,1,,,,,18,0,54,1,,,,,,,,,,,,,1,199.4806696000005,None,199.4806696000005,None,,,201,211,198.6090796999997,199.11108849999982,199.0945713000001,199.19451720000052,4,1,0.3625368000002709,199.0945713000001,None,199.19451720000052,None,199.0945713000001,None,False,None,None,None,None,None,None,None,None,,,,,,,,,,,,,,,,,,,,,,,,,,,,AG4EN28,1,0x5FB8,D:\CoScience\Logfiles\,2022_May_27_1010,GoNoGo,2020.1.3,59.95732237796686,
DRÜCKEN SIE IM FOLGENDEN BITTE SO SCHNELL SIE KÖNNEN. BITTE ZEIGEN SIE IHRE MAXIMAL MÖGLICHE LEISTUNG!,200,Go,go,4,1,0,0,0,1,,,,,18,1,55,0,,,,,,,,,,,,,1,201.34724389999974,None,201.34724389999974,None,,,201,211,200.5088880000003,201.01109739999993,200.99439239999992,201.09451400000034,4,1,0.3198492999999871,200.99439239999992,None,201.09451400000034,None,200.99439239999992,None,False,None,None,None,None,None,None,None,None,,,,,,,,,,,,,,,,,,,,,,,,,,,,AG4EN28,1,0x5FB8,D:\CoScience\Logfiles\,2022_May_27_1010,GoNoGo,2020.1.3,59.95732237796686,
DRÜCKEN SIE IM FOLGENDEN BITTE SO SCHNELL SIE KÖNNEN. BITTE ZEIGEN SIE IHRE MAXIMAL MÖGLICHE LEISTUNG!,200,Go,go,4,1,0,0,0,1,,,,,18,2,56,0,,,,,,,,,,,,,1,203.19820549999986,None,203.19820549999986,None,,,201,211,202.36208700000043,202.86118739999984,202.86118739999984,202.96119460000045,4,1,0.30880180000076507,202.86118739999984,None,202.96119460000045,None,202.86118739999984,None,False,None,None,None,None,None,None,None,None,,,,,,,,,,,,,,,,,,,,,,,,,,,,AG4EN28,1,0x5FB8,D:\CoScience\Logfiles\,2022_May_27_1010,GoNoGo,2020.1.3,59.95732237796686,
DRÜCKEN SIE IM FOLGENDEN BITTE SO SCHNELL SIE KÖNNEN. BITTE ZEIGEN SIE IHRE MAXIMAL MÖGLICHE LEISTUNG!,200,Go,go,4,1,0,0,0,1,,,,,19,0,57,1,,,,,,,,,,,,,1,204.99892,None,204.99892,None,,,201,211,204.21193200000016,204.71123559999978,204.71123559999978,204.8112041000004,4,1,0.2619401000001744,204.71123559999978,None,204.8112041000004,None,204.71123559999978,None,False,None,None,None,None,None,None,None,None,,,,,,,,,,,,,,,,,,,,,,,,,,,,AG4EN28,1,0x5FB8,D:\CoScience\Logfiles\,2022_May_27_1010,GoNoGo,2020.1.3,59.95732237796686,
DRÜCKEN SIE IM FOLGENDEN BITTE SO SCHNELL SIE KÖNNEN. BITTE ZEIGEN SIE IHRE MAXIMAL MÖGLICHE LEISTUNG!,200,NoGo,nogo,None,2,0,0,0,1,,,,,19,1,58,2,,,,,,,,,,,,,0.9,207.21417370000017,None,207.21417370000017,None,,,202,0,206.0126282000001,206.52765309999995,206.5111877999998,206.61120949999986,None,1,,206.5111877999998,None,206.61120949999986,None,206.5111877999998,None,False,None,None,None,None,None,None,None,None,,,,,,,,,,,,,,,,,,,,,,,,,,,,AG4EN28,1,0x5FB8,D:\CoScience\Logfiles\,2022_May_27_1010,GoNoGo,2020.1.3,59.95732237796686,
DRÜCKEN SIE IM FOLGENDEN BITTE SO SCHNELL SIE KÖNNEN. BITTE ZEIGEN SIE IHRE MAXIMAL MÖGLICHE LEISTUNG!,200,Go,go,4,1,0,0,0,1,,,,,19,2,59,0,,,,,,,,,,,,,1,208.9483863000005,None,208.9483863000005,None,,,201,211,208.12935650000054,208.6445177000005,208.62793690000035,208.72780539999985,4,1,0.29906259999916074,208.62793690000035,None,208.72780539999985,None,208.62793690000035,None,False,None,None,None,None,None,None,None,None,,,,,,,,,,,,,,,,,,,,,,,,,,,,AG4EN28,1,0x5FB8,D:\CoScience\Logfiles\,2022_May_27_1010,GoNoGo,2020.1.3,59.95732237796686,
DRÜCKEN SIE IM FOLGENDEN BITTE SO SCHNELL SIE KÖNNEN. BITTE ZEIGEN SIE IHRE MAXIMAL MÖGLICHE LEISTUNG!,200,Go,go,4,1,0,0,0,1,,,,,20,0,60,1,,,,,,,,,,,,,1,210.86486030000015,None,210.86486030000015,None,,,201,211,209.9618900000005,210.46067370000037,210.46067370000037,210.56120960000044,4,1,0.38536389999990206,210.46067370000037,None,210.56120960000044,None,210.46067370000037,None,False,None,None,None,None,None,None,None,None,,,,,,,,,,,,,,,,,,,,,,,,,,,,AG4EN28,1,0x5FB8,D:\CoScience\Logfiles\,2022_May_27_1010,GoNoGo,2020.1.3,59.95732237796686,
DRÜCKEN SIE IM FOLGENDEN BITTE SO SCHNELL SIE KÖNNEN. BITTE ZEIGEN SIE IHRE MAXIMAL MÖGLICHE LEISTUNG!,200,NoGo,nogo,None,2,0,0,0,1,,,,,20,1,61,2,,,,,,,,,,,,,0.9,213.09277810000003,None,213.09277810000003,None,,,202,0,211.8794342000001,212.3940650000004,212.3773957000003,212.47784500000034,None,1,,212.3773957000003,None,212.47784500000034,None,212.3773957000003,None,False,None,None,None,None,None,None,None,None,,,,,,,,,,,,,,,,,,,,,,,,,,,,AG4EN28,1,0x5FB8,D:\CoScience\Logfiles\,2022_May_27_1010,GoNoGo,2020.1.3,59.95732237796686,
DRÜCKEN SIE IM FOLGENDEN BITTE SO SCHNELL SIE KÖNNEN. BITTE ZEIGEN SIE IHRE MAXIMAL MÖGLICHE LEISTUNG!,200,Go,go,4,1,0,0,0,1,,,,,20,2,62,0,,,,,,,,,,,,,1,214.82842380000056,None,214.82842380000056,None,,,201,211,213.99572350000017,214.51108560000011,214.49445730000025,214.59446500000013,4,1,0.304550100000597,214.49445730000025,None,214.59446500000013,None,214.49445730000025,None,False,None,None,None,None,None,None,None,None,,,,,,,,,,,,,,,,,,,,,,,,,,,,AG4EN28,1,0x5FB8,D:\CoScience\Logfiles\,2022_May_27_1010,GoNoGo,2020.1.3,59.95732237796686,
DRÜCKEN SIE IM FOLGENDEN BITTE SO SCHNELL SIE KÖNNEN. BITTE ZEIGEN SIE IHRE MAXIMAL MÖGLICHE LEISTUNG!,200,Go,go,4,1,0,0,0,1,,,,,21,0,63,0,,,,,,,,,,,,,1,216.6797886000004,None,216.6797886000004,None,,,201,211,215.8287218000005,216.34410519999983,216.3274867,216.4278807999999,4,1,0.32151100000010047,216.3274867,None,216.4278807999999,None,216.3274867,None,False,None,None,None,None,None,None,None,None,,,,,,,,,,,,,,,,,,,,,,,,,,,,AG4EN28,1,0x5FB8,D:\CoScience\Logfiles\,2022_May_27_1010,GoNoGo,2020.1.3,59.95732237796686,
DRÜCKEN SIE IM FOLGENDEN BITTE SO SCHNELL SIE KÖNNEN. BITTE ZEIGEN SIE IHRE MAXIMAL MÖGLICHE LEISTUNG!,200,NoGo,nogo,None,2,0,0,0,1,,,,,21,1,64,2,,,,,,,,,,,,,0.9,218.897516,None,218.897516,None,,,202,0,217.69611540000005,218.21109380000053,218.19453760000033,218.29452320000019,None,1,,218.19453760000033,None,218.29452320000019,None,218.19453760000033,None,False,None,None,None,None,None,None,None,None,,,,,,,,,,,,,,,,,,,,,,,,,,,,AG4EN28,1,0x5FB8,D:\CoScience\Logfiles\,2022_May_27_1010,GoNoGo,2020.1.3,59.95732237796686,
DRÜCKEN SIE IM FOLGENDEN BITTE SO SCHNELL SIE KÖNNEN. BITTE ZEIGEN SIE IHRE MAXIMAL MÖGLICHE LEISTUNG!,200,NoGo,nogo,None,2,0,0,0,1,,,,,21,2,65,2,,,,,,,,,,,,,0.9,221.01590029999988,None,221.01590029999988,None,,,202,0,219.81132940000043,220.3111783000004,220.3111783000004,220.4110571000001,None,1,,220.3111783000004,None,220.4110571000001,None,220.3111783000004,None,False,None,None,None,None,None,None,None,None,,,,,,,,,,,,,,,,,,,,,,,,,,,,AG4EN28,1,0x5FB8,D:\CoScience\Logfiles\,2022_May_27_1010,GoNoGo,2020.1.3,59.95732237796686,
DRÜCKEN SIE IM FOLGENDEN BITTE SO SCHNELL SIE KÖNNEN. BITTE ZEIGEN SIE IHRE MAXIMAL MÖGLICHE LEISTUNG!,200,Go,go,4,1,0,0,0,1,,,,,22,0,66,1,,,,,,,,,,,,,1,222.74813970000014,None,222.74813970000014,None,,,201,211,221.92938370000047,222.44437670000025,222.42791300000044,222.5278558,4,1,0.3003842000007353,222.42791300000044,None,222.5278558,None,222.42791300000044,None,False,None,None,None,None,None,None,None,None,,,,,,,,,,,,,,,,,,,,,,,,,,,,AG4EN28,1,0x5FB8,D:\CoScience\Logfiles\,2022_May_27_1010,GoNoGo,2020.1.3,59.95732237796686,
DRÜCKEN SIE IM FOLGENDEN BITTE SO SCHNELL SIE KÖNNEN. BITTE ZEIGEN SIE IHRE MAXIMAL MÖGLICHE LEISTUNG!,200,Go,go,4,1,0,0,0,1,,,,,22,1,67,1,,,,,,,,,,,,,1,224.58151830000043,None,224.58151830000043,None,,,201,211,223.76188700000057,224.26121500000045,224.26121500000045,224.3608116000005,4,1,0.2972154999997656,224.26121500000045,None,224.3608116000005,None,224.26121500000045,None,False,None,None,None,None,None,None,None,None,,,,,,,,,,,,,,,,,,,,,,,,,,,,AG4EN28,1,0x5FB8,D:\CoScience\Logfiles\,2022_May_27_1010,GoNoGo,2020.1.3,59.95732237796686,
DRÜCKEN SIE IM FOLGENDEN BITTE SO SCHNELL SIE KÖNNEN. BITTE ZEIGEN SIE IHRE MAXIMAL MÖGLICHE LEISTUNG!,200,Go,go,4,1,0,0,0,1,,,,,22,2,68,0,,,,,,,,,,,,,1,226.51498150000043,None,226.51498150000043,None,,,201,211,225.59516559999975,226.09451189999982,226.09451189999982,226.19451690000005,4,1,0.3994410000004791,226.09451189999982,None,226.19451690000005,None,226.09451189999982,None,False,None,None,None,None,None,None,None,None,,,,,,,,,,,,,,,,,,,,,,,,,,,,AG4EN28,1,0x5FB8,D:\CoScience\Logfiles\,2022_May_27_1010,GoNoGo,2020.1.3,59.95732237796686,
DRÜCKEN SIE IM FOLGENDEN BITTE SO SCHNELL SIE KÖNNEN. BITTE ZEIGEN SIE IHRE MAXIMAL MÖGLICHE LEISTUNG!,200,Go,go,4,1,0,0,0,1,,,,,23,0,69,1,,,,,,,,,,,,,1,228.39731360000042,None,228.39731360000042,None,,,201,211,227.54238720000012,228.0444352000004,228.0278717000001,228.1278929,4,1,0.3360635999997612,228.0278717000001,None,228.1278929,None,228.0278717000001,None,False,None,None,None,None,None,None,None,None,,,,,,,,,,,,,,,,,,,,,,,,,,,,AG4EN28,1,0x5FB8,D:\CoScience\Logfiles\,2022_May_27_1010,GoNoGo,2020.1.3,59.95732237796686,
DRÜCKEN SIE IM FOLGENDEN BITTE SO SCHNELL SIE KÖNNEN. BITTE ZEIGEN SIE IHRE MAXIMAL MÖGLICHE LEISTUNG!,200,Go,go,4,1,0,0,0,1,,,,,23,1,70,1,,,,,,,,,,,,,1,230.2648076000005,None,230.2648076000005,None,,,201,211,229.41199359999973,229.91114970000035,229.91114970000035,230.01111820000006,4,1,0.3268492999995942,229.91114970000035,None,230.01111820000006,None,229.91114970000035,None,False,None,None,None,None,None,None,None,None,,,,,,,,,,,,,,,,,,,,,,,,,,,,AG4EN28,1,0x5FB8,D:\CoScience\Logfiles\,2022_May_27_1010,GoNoGo,2020.1.3,59.95732237796686,
DRÜCKEN SIE IM FOLGENDEN BITTE SO SCHNELL SIE KÖNNEN. BITTE ZEIGEN SIE IHRE MAXIMAL MÖGLICHE LEISTUNG!,200,NoGo,nogo,None,2,0,0,0,1,,,,,23,2,71,2,,,,,,,,,,,,,0.9,232.4928544000004,None,232.4928544000004,None,,,202,0,231.27951570000005,231.79438780000055,231.7779126000005,231.8777600000003,None,1,,231.7779126000005,None,231.8777600000003,None,231.7779126000005,None,False,None,None,None,None,None,None,None,None,,,,,,,,,,,,,,,,,,,,,,,,,,,,AG4EN28,1,0x5FB8,D:\CoScience\Logfiles\,2022_May_27_1010,GoNoGo,2020.1.3,59.95732237796686,
DRÜCKEN SIE IM FOLGENDEN BITTE SO SCHNELL SIE KÖNNEN. BITTE ZEIGEN SIE IHRE MAXIMAL MÖGLICHE LEISTUNG!,200,Go,go,4,1,0,0,0,1,,,,,24,0,72,1,,,,,,,,,,,,,1,234.24720109999998,None,234.24720109999998,None,,,201,211,233.39593070000046,233.91103329999987,233.8940849999999,233.9943715999998,4,1,0.32090040000002773,233.8940849999999,None,233.9943715999998,None,233.8940849999999,None,False,None,None,None,None,None,None,None,None,,,,,,,,,,,,,,,,,,,,,,,,,,,,AG4EN28,1,0x5FB8,D:\CoScience\Logfiles\,2022_May_27_1010,GoNoGo,2020.1.3,59.95732237796686,
DRÜCKEN SIE IM FOLGENDEN BITTE SO SCHNELL SIE KÖNNEN. BITTE ZEIGEN SIE IHRE MAXIMAL MÖGLICHE LEISTUNG!,200,NoGo,nogo,None,2,0,0,0,1,,,,,24,1,73,2,,,,,,,,,,,,,0.9,236.4761183999999,None,236.4761183999999,None,,,202,0,235.26265390000026,235.77766950000023,235.76122149999992,235.86119150000013,None,1,,235.76122149999992,None,235.86119150000013,None,235.76122149999992,None,False,None,None,None,None,None,None,None,None,,,,,,,,,,,,,,,,,,,,,,,,,,,,AG4EN28,1,0x5FB8,D:\CoScience\Logfiles\,2022_May_27_1010,GoNoGo,2020.1.3,59.95732237796686,
DRÜCKEN SIE IM FOLGENDEN BITTE SO SCHNELL SIE KÖNNEN. BITTE ZEIGEN SIE IHRE MAXIMAL MÖGLICHE LEISTUNG!,200,Go,go,4,1,0,0,0,1,,,,,24,2,74,1,,,,,,,,,,,,,1,238.23084130000007,None,238.23084130000007,None,,,201,211,237.37946340000053,237.89441650000026,237.87774630000058,237.97781060000034,4,1,0.3306228999999803,237.87774630000058,None,237.97781060000034,None,237.87774630000058,None,False,None,None,None,None,None,None,None,None,,,,,,,,,,,,,,,,,,,,,,,,,,,,AG4EN28,1,0x5FB8,D:\CoScience\Logfiles\,2022_May_27_1010,GoNoGo,2020.1.3,59.95732237796686,
DRÜCKEN SIE IM FOLGENDEN BITTE SO SCHNELL SIE KÖNNEN. BITTE ZEIGEN SIE IHRE MAXIMAL MÖGLICHE LEISTUNG!,200,Go,go,4,1,0,0,0,1,,,,,25,0,75,0,,,,,,,,,,,,,1,240.0811107999998,None,240.0811107999998,None,,,201,211,239.2451611000006,239.74455219999982,239.74455219999982,239.84445899999992,4,1,0.3115451000003304,239.74455219999982,None,239.84445899999992,None,239.74455219999982,None,False,None,None,None,None,None,None,None,None,,,,,,,,,,,,,,,,,,,,,,,,,,,,AG4EN28,1,0x5FB8,D:\CoScience\Logfiles\,2022_May_27_1010,GoNoGo,2020.1.3,59.95732237796686,
DRÜCKEN SIE IM FOLGENDEN BITTE SO SCHNELL SIE KÖNNEN. BITTE ZEIGEN SIE IHRE MAXIMAL MÖGLICHE LEISTUNG!,200,Go,go,4,1,0,0,0,1,,,,,25,1,76,1,,,,,,,,,,,,,1,241.96462400000019,None,241.96462400000019,None,,,201,211,241.09526000000005,241.59447499999987,241.59447499999987,241.69446359999984,4,1,0.34347039999920526,241.59447499999987,None,241.69446359999984,None,241.59447499999987,None,False,None,None,None,None,None,None,None,None,,,,,,,,,,,,,,,,,,,,,,,,,,,,AG4EN28,1,0x5FB8,D:\CoScience\Logfiles\,2022_May_27_1010,GoNoGo,2020.1.3,59.95732237796686,
DRÜCKEN SIE IM FOLGENDEN BITTE SO SCHNELL SIE KÖNNEN. BITTE ZEIGEN SIE IHRE MAXIMAL MÖGLICHE LEISTUNG!,200,NoGo,nogo,None,2,0,0,0,1,,,,,25,2,77,2,,,,,,,,,,,,,0.9,244.19391760000053,None,244.19391760000053,None,,,202,0,242.97902690000046,243.49444360000052,243.47783729999992,243.57780300000013,None,1,,243.47783729999992,None,243.57780300000013,None,243.47783729999992,None,False,None,None,None,None,None,None,None,None,,,,,,,,,,,,,,,,,,,,,,,,,,,,AG4EN28,1,0x5FB8,D:\CoScience\Logfiles\,2022_May_27_1010,GoNoGo,2020.1.3,59.95732237796686,
DRÜCKEN SIE IM FOLGENDEN BITTE SO SCHNELL SIE KÖNNEN. BITTE ZEIGEN SIE IHRE MAXIMAL MÖGLICHE LEISTUNG!,200,Go,go,4,1,0,0,0,1,,,,,26,0,78,0,,,,,,,,,,,,,1,245.9648373,None,245.9648373,None,,,201,211,245.09599320000052,245.61096530000032,245.59455200000048,245.69438730000002,4,1,0.3484459000001152,245.59455200000048,None,245.69438730000002,None,245.59455200000048,None,False,None,None,None,None,None,None,None,None,,,,,,,,,,,,,,,,,,,,,,,,,,,,AG4EN28,1,0x5FB8,D:\CoScience\Logfiles\,2022_May_27_1010,GoNoGo,2020.1.3,59.95732237796686,
DRÜCKEN SIE IM FOLGENDEN BITTE SO SCHNELL SIE KÖNNEN. BITTE ZEIGEN SIE IHRE MAXIMAL MÖGLICHE LEISTUNG!,200,Go,go,4,1,0,0,0,1,,,,,26,1,79,1,,,,,,,,,,,,,1,247.74814979999974,None,247.74814979999974,None,,,201,211,246.9788939,247.47785459999977,247.47785459999977,247.57786339999984,4,1,0.2470962999996118,247.47785459999977,None,247.57786339999984,None,247.47785459999977,None,False,None,None,None,None,None,None,None,None,,,,,,,,,,,,,,,,,,,,,,,,,,,,AG4EN28,1,0x5FB8,D:\CoScience\Logfiles\,2022_May_27_1010,GoNoGo,2020.1.3,59.95732237796686,
DRÜCKEN SIE IM FOLGENDEN BITTE SO SCHNELL SIE KÖNNEN. BITTE ZEIGEN SIE IHRE MAXIMAL MÖGLICHE LEISTUNG!,200,Go,go,4,1,0,0,0,1,,,,,26,2,80,1,,,,,,,,,,,,,1,249.54499529999975,None,249.54499529999975,None,,,201,211,248.77573219999977,249.27770370000053,249.26104660000055,249.3610233999998,4,1,0.2539089000001695,249.26104660000055,None,249.3610233999998,None,249.26104660000055,None,False,None,None,None,None,None,None,None,None,,,,,,,,,,,,,,,,,,,,,,,,,,,,AG4EN28,1,0x5FB8,D:\CoScience\Logfiles\,2022_May_27_1010,GoNoGo,2020.1.3,59.95732237796686,
DRÜCKEN SIE IM FOLGENDEN BITTE SO SCHNELL SIE KÖNNEN. BITTE ZEIGEN SIE IHRE MAXIMAL MÖGLICHE LEISTUNG!,200,Go,go,4,1,0,0,0,1,,,,,27,0,81,0,,,,,,,,,,,,,1,251.38062739999987,None,251.38062739999987,None,,,201,211,250.55904499999997,251.06103960000019,251.04453620000004,251.1445622000001,4,1,0.3114948000002187,251.04453620000004,None,251.1445622000001,None,251.04453620000004,None,False,None,None,None,None,None,None,None,None,,,,,,,,,,,,,,,,,,,,,,,,,,,,AG4EN28,1,0x5FB8,D:\CoScience\Logfiles\,2022_May_27_1010,GoNoGo,2020.1.3,59.95732237796686,
DRÜCKEN SIE IM FOLGENDEN BITTE SO SCHNELL SIE KÖNNEN. BITTE ZEIGEN SIE IHRE MAXIMAL MÖGLICHE LEISTUNG!,200,Go,go,4,1,0,0,0,1,,,,,27,1,82,1,,,,,,,,,,,,,1,253.19830270000057,None,253.19830270000057,None,,,201,211,252.4089780000004,252.91094640000028,252.89451850000023,252.99436849999984,4,1,0.2766116000002512,252.89451850000023,None,252.99436849999984,None,252.89451850000023,None,False,None,None,None,None,None,None,None,None,,,,,,,,,,,,,,,,,,,,,,,,,,,,AG4EN28,1,0x5FB8,D:\CoScience\Logfiles\,2022_May_27_1010,GoNoGo,2020.1.3,59.95732237796686,
DRÜCKEN SIE IM FOLGENDEN BITTE SO SCHNELL SIE KÖNNEN. BITTE ZEIGEN SIE IHRE MAXIMAL MÖGLICHE LEISTUNG!,200,Go,go,4,1,0,0,0,1,,,,,27,2,83,0,,,,,,,,,,,,,1,254.99842679999983,None,254.99842679999983,None,,,201,211,254.21125029999985,254.7111114999998,254.7111114999998,254.81109579999975,4,1,0.26581850000002305,254.7111114999998,None,254.81109579999975,None,254.7111114999998,None,False,None,None,None,None,None,None,None,None,,,,,,,,,,,,,,,,,,,,,,,,,,,,AG4EN28,1,0x5FB8,D:\CoScience\Logfiles\,2022_May_27_1010,GoNoGo,2020.1.3,59.95732237796686,
DRÜCKEN SIE IM FOLGENDEN BITTE SO SCHNELL SIE KÖNNEN. BITTE ZEIGEN SIE IHRE MAXIMAL MÖGLICHE LEISTUNG!,200,Go,go,4,1,0,0,0,1,,,,,28,0,84,1,,,,,,,,,,,,,1,256.84826020000037,None,256.84826020000037,None,,,201,211,256.01182919999974,256.5110359,256.5110359,256.61103249999996,4,1,0.3099867999999333,256.5110359,None,256.61103249999996,None,256.5110359,None,False,None,None,None,None,None,None,None,None,,,,,,,,,,,,,,,,,,,,,,,,,,,,AG4EN28,1,0x5FB8,D:\CoScience\Logfiles\,2022_May_27_1010,GoNoGo,2020.1.3,59.95732237796686,
DRÜCKEN SIE IM FOLGENDEN BITTE SO SCHNELL SIE KÖNNEN. BITTE ZEIGEN SIE IHRE MAXIMAL MÖGLICHE LEISTUNG!,200,Go,go,4,1,0,0,0,1,,,,,28,1,85,0,,,,,,,,,,,,,1,258.73145399999976,None,258.73145399999976,None,,,201,211,257.8754048999999,258.3775505000003,258.3609999999999,258.4610257000004,4,1,0.33951020000040444,258.3609999999999,None,258.4610257000004,None,258.3609999999999,None,False,None,None,None,None,None,None,None,None,,,,,,,,,,,,,,,,,,,,,,,,,,,,AG4EN28,1,0x5FB8,D:\CoScience\Logfiles\,2022_May_27_1010,GoNoGo,2020.1.3,59.95732237796686,
DRÜCKEN SIE IM FOLGENDEN BITTE SO SCHNELL SIE KÖNNEN. BITTE ZEIGEN SIE IHRE MAXIMAL MÖGLICHE LEISTUNG!,200,NoGo,nogo,None,2,0,0,0,1,,,,,28,2,86,2,,,,,,,,,,,,,0.9,260.9452618000005,None,260.9452618000005,None,,,202,0,259.74613339999996,260.2608995999999,260.2443393000003,260.3445005000003,None,1,,260.2443393000003,None,260.3445005000003,None,260.2443393000003,None,False,None,None,None,None,None,None,None,None,,,,,,,,,,,,,,,,,,,,,,,,,,,,AG4EN28,1,0x5FB8,D:\CoScience\Logfiles\,2022_May_27_1010,GoNoGo,2020.1.3,59.95732237796686,
DRÜCKEN SIE IM FOLGENDEN BITTE SO SCHNELL SIE KÖNNEN. BITTE ZEIGEN SIE IHRE MAXIMAL MÖGLICHE LEISTUNG!,200,Go,go,4,1,0,0,0,1,,,,,29,0,87,0,,,,,,,,,,,,,1,262.6818239000004,None,262.6818239000004,None,,,201,211,261.8470305999999,262.3610196999998,262.3444377000005,262.4444481999999,4,1,0.31058779999966646,262.3444377000005,None,262.4444481999999,None,262.3444377000005,None,False,None,None,None,None,None,None,None,None,,,,,,,,,,,,,,,,,,,,,,,,,,,,AG4EN28,1,0x5FB8,D:\CoScience\Logfiles\,2022_May_27_1010,GoNoGo,2020.1.3,59.95732237796686,
DRÜCKEN SIE IM FOLGENDEN BITTE SO SCHNELL SIE KÖNNEN. BITTE ZEIGEN SIE IHRE MAXIMAL MÖGLICHE LEISTUNG!,200,Go,go,4,1,0,0,0,1,,,,,29,1,88,0,,,,,,,,,,,,,1,264.4972237000002,None,264.4972237000002,None,,,201,211,263.69520360000024,264.1945237,264.1945237,264.29434889999993,4,1,0.27146759999959613,264.1945237,None,264.29434889999993,None,264.1945237,None,False,None,None,None,None,None,None,None,None,,,,,,,,,,,,,,,,,,,,,,,,,,,,AG4EN28,1,0x5FB8,D:\CoScience\Logfiles\,2022_May_27_1010,GoNoGo,2020.1.3,59.95732237796686,
DRÜCKEN SIE IM FOLGENDEN BITTE SO SCHNELL SIE KÖNNEN. BITTE ZEIGEN SIE IHRE MAXIMAL MÖGLICHE LEISTUNG!,200,Go,go,4,1,0,0,0,1,,,,,29,2,89,1,,,,,,,,,,,,,1,266.36142420000033,None,266.36142420000033,None,,,201,211,265.51204959999995,266.0110515000006,266.0110515000006,266.11105920000045,4,1,0.32223770000018703,266.0110515000006,None,266.11105920000045,None,266.0110515000006,None,False,None,None,None,None,None,None,None,None,,,,,,,,,,,,,,,,,,,,,,,,,,,,AG4EN28,1,0x5FB8,D:\CoScience\Logfiles\,2022_May_27_1010,GoNoGo,2020.1.3,59.95732237796686,
DRÜCKEN SIE IM FOLGENDEN BITTE SO SCHNELL SIE KÖNNEN. BITTE ZEIGEN SIE IHRE MAXIMAL MÖGLICHE LEISTUNG!,200,Go,go,4,1,0,0,0,1,,,,,30,0,90,1,,,,,,,,,,,,,1,268.21375200000057,None,268.21375200000057,None,,,201,211,267.37556889999996,267.8776032000005,267.8611370999997,267.9611111000004,4,1,0.3218056000005163,267.8611370999997,None,267.9611111000004,None,267.8611370999997,None,False,None,None,None,None,None,None,None,None,,,,,,,,,,,,,,,,,,,,,,,,,,,,AG4EN28,1,0x5FB8,D:\CoScience\Logfiles\,2022_May_27_1010,GoNoGo,2020.1.3,59.95732237796686,
DRÜCKEN SIE IM FOLGENDEN BITTE SO SCHNELL SIE KÖNNEN. BITTE ZEIGEN SIE IHRE MAXIMAL MÖGLICHE LEISTUNG!,200,Go,go,4,1,0,0,0,1,,,,,30,1,91,1,,,,,,,,,,,,,1,270.01472600000034,None,270.01472600000034,None,,,201,211,269.2423828000001,269.7444271000004,269.7277834000006,269.8278068999998,4,1,0.26524289999997563,269.7277834000006,None,269.8278068999998,None,269.7277834000006,None,False,None,None,None,None,None,None,None,None,,,,,,,,,,,,,,,,,,,,,,,,,,,,AG4EN28,1,0x5FB8,D:\CoScience\Logfiles\,2022_May_27_1010,GoNoGo,2020.1.3,59.95732237796686,
DRÜCKEN SIE IM FOLGENDEN BITTE SO SCHNELL SIE KÖNNEN. BITTE ZEIGEN SIE IHRE MAXIMAL MÖGLICHE LEISTUNG!,200,Go,go,4,1,0,0,0,1,,,,,30,2,92,1,,,,,,,,,,,,,1,271.7982861999999,None,271.7982861999999,None,,,201,211,271.04240070000014,271.544398,271.52782060000027,271.6278237000006,4,1,0.24322459999984858,271.52782060000027,None,271.6278237000006,None,271.52782060000027,None,False,None,None,None,None,None,None,None,None,,,,,,,,,,,,,,,,,,,,,,,,,,,,AG4EN28,1,0x5FB8,D:\CoScience\Logfiles\,2022_May_27_1010,GoNoGo,2020.1.3,59.95732237796686,
DRÜCKEN SIE IM FOLGENDEN BITTE SO SCHNELL SIE KÖNNEN. BITTE ZEIGEN SIE IHRE MAXIMAL MÖGLICHE LEISTUNG!,200,Go,go,4,1,0,0,0,1,,,,,31,0,93,1,,,,,,,,,,,,,1,273.6481061000004,None,273.6481061000004,None,,,201,211,272.8117667000006,273.31110030000036,273.31110030000036,273.4110866000001,4,1,0.3158042999993995,273.31110030000036,None,273.4110866000001,None,273.31110030000036,None,False,None,None,None,None,None,None,None,None,,,,,,,,,,,,,,,,,,,,,,,,,,,,AG4EN28,1,0x5FB8,D:\CoScience\Logfiles\,2022_May_27_1010,GoNoGo,2020.1.3,59.95732237796686,
DRÜCKEN SIE IM FOLGENDEN BITTE SO SCHNELL SIE KÖNNEN. BITTE ZEIGEN SIE IHRE MAXIMAL MÖGLICHE LEISTUNG!,200,Go,go,4,1,0,0,0,1,,,,,31,1,94,0,,,,,,,,,,,,,1,275.49810609999986,None,275.49810609999986,None,,,201,211,274.6620767000004,275.16098349999993,275.16098349999993,275.26113910000004,4,1,0.31591630000002624,275.16098349999993,None,275.26113910000004,None,275.16098349999993,None,False,None,None,None,None,None,None,None,None,,,,,,,,,,,,,,,,,,,,,,,,,,,,AG4EN28,1,0x5FB8,D:\CoScience\Logfiles\,2022_May_27_1010,GoNoGo,2020.1.3,59.95732237796686,
DRÜCKEN SIE IM FOLGENDEN BITTE SO SCHNELL SIE KÖNNEN. BITTE ZEIGEN SIE IHRE MAXIMAL MÖGLICHE LEISTUNG!,200,NoGo,nogo,None,2,0,0,0,1,,,,,31,2,95,2,,,,,,,,,,,,,1,277.29845680000017,None,277.29845680000017,None,,,202,220,276.51264020000053,277.02767010000025,277.0110801999999,277.11109399999987,4,0,0.26282590000027994,277.0110801999999,None,277.11109399999987,None,277.0110801999999,None,False,None,None,None,None,None,None,None,None,,,,,,,,,,,,,,,,,,,,,,,,,,,,AG4EN28,1,0x5FB8,D:\CoScience\Logfiles\,2022_May_27_1010,GoNoGo,2020.1.3,59.95732237796686,
DRÜCKEN SIE IM FOLGENDEN BITTE SO SCHNELL SIE KÖNNEN. BITTE ZEIGEN SIE IHRE MAXIMAL MÖGLICHE LEISTUNG!,200,NoGo,nogo,None,2,0,0,0,1,,,,,32,0,96,2,,,,,,,,,,,,,1,279.06340700000055,None,279.06340700000055,None,,,202,220,278.3118026000002,278.8109849000002,278.8109849000002,278.91108260000055,4,0,0.2249760000004244,278.8109849000002,None,278.91108260000055,None,278.8109849000002,None,False,None,None,None,None,None,None,None,None,,,,,,,,,,,,,,,,,,,,,,,,,,,,AG4EN28,1,0x5FB8,D:\CoScience\Logfiles\,2022_May_27_1010,GoNoGo,2020.1.3,59.95732237796686,
DRÜCKEN SIE IM FOLGENDEN BITTE SO SCHNELL SIE KÖNNEN. BITTE ZEIGEN SIE IHRE MAXIMAL MÖGLICHE LEISTUNG!,200,Go,go,4,1,0,0,0,1,,,,,32,1,97,1,,,,,,,,,,,,,1,280.9480942,None,280.9480942,None,,,201,211,280.0792201000004,280.59394840000004,280.5773842999997,280.6777511,4,1,0.3425883999998405,280.5773842999997,None,280.6777511,None,280.5773842999997,None,False,None,None,None,None,None,None,None,None,,,,,,,,,,,,,,,,,,,,,,,,,,,,AG4EN28,1,0x5FB8,D:\CoScience\Logfiles\,2022_May_27_1010,GoNoGo,2020.1.3,59.95732237796686,
DRÜCKEN SIE IM FOLGENDEN BITTE SO SCHNELL SIE KÖNNEN. BITTE ZEIGEN SIE IHRE MAXIMAL MÖGLICHE LEISTUNG!,200,Go,go,4,1,0,0,0,1,,,,,32,2,98,1,,,,,,,,,,,,,1,282.8146446999999,None,282.8146446999999,None,,,201,211,281.9617927999998,282.4610767000004,282.4610767000004,282.56095090000053,4,1,0.32683519999955024,282.4610767000004,None,282.56095090000053,None,282.4610767000004,None,False,None,None,None,None,None,None,None,None,,,,,,,,,,,,,,,,,,,,,,,,,,,,AG4EN28,1,0x5FB8,D:\CoScience\Logfiles\,2022_May_27_1010,GoNoGo,2020.1.3,59.95732237796686,
DRÜCKEN SIE IM FOLGENDEN BITTE SO SCHNELL SIE KÖNNEN. BITTE ZEIGEN SIE IHRE MAXIMAL MÖGLICHE LEISTUNG!,200,Go,go,4,1,0,0,0,1,,,,,33,0,99,0,,,,,,,,,,,,,1,284.74815260000014,None,284.74815260000014,None,,,201,211,283.82853160000013,284.3279846000005,284.3279846000005,284.4277787000001,4,1,0.39491029999953753,284.3279846000005,None,284.4277787000001,None,284.3279846000005,None,False,None,None,None,None,None,None,None,None,,,,,,,,,,,,,,,,,,,,,,,,,,,,AG4EN28,1,0x5FB8,D:\CoScience\Logfiles\,2022_May_27_1010,GoNoGo,2020.1.3,59.95732237796686,
DRÜCKEN SIE IM FOLGENDEN BITTE SO SCHNELL SIE KÖNNEN. BITTE ZEIGEN SIE IHRE MAXIMAL MÖGLICHE LEISTUNG!,200,Go,go,4,1,0,0,0,1,,,,,33,1,100,0,,,,,,,,,,,,,1,286.5979533999998,None,286.5979533999998,None,,,201,211,285.77564059999986,286.27770820000023,286.2610802999998,286.36111530000017,4,1,0.3108747000005678,286.2610802999998,None,286.36111530000017,None,286.2610802999998,None,False,None,None,None,None,None,None,None,None,,,,,,,,,,,,,,,,,,,,,,,,,,,,AG4EN28,1,0x5FB8,D:\CoScience\Logfiles\,2022_May_27_1010,GoNoGo,2020.1.3,59.95732237796686,
DRÜCKEN SIE IM FOLGENDEN BITTE SO SCHNELL SIE KÖNNEN. BITTE ZEIGEN SIE IHRE MAXIMAL MÖGLICHE LEISTUNG!,200,NoGo,nogo,None,2,0,0,0,1,,,,,33,2,101,2,,,,,,,,,,,,,0.9,288.81188680000014,None,288.81188680000014,None,,,202,0,287.6125313000002,288.1276523000006,288.11108440000044,288.21104860000014,None,1,,288.11108440000044,None,288.21104860000014,None,288.11108440000044,None,False,None,None,None,None,None,None,None,None,,,,,,,,,,,,,,,,,,,,,,,,,,,,AG4EN28,1,0x5FB8,D:\CoScience\Logfiles\,2022_May_27_1010,GoNoGo,2020.1.3,59.95732237796686,
DRÜCKEN SIE IM FOLGENDEN BITTE SO SCHNELL SIE KÖNNEN. BITTE ZEIGEN SIE IHRE MAXIMAL MÖGLICHE LEISTUNG!,200,Go,go,4,1,0,0,0,1,,,,,34,0,102,1,,,,,,,,,,,,,1,290.5982061000004,None,290.5982061000004,None,,,201,211,289.71270970000023,290.2276751999998,290.2108831000005,290.31106480000017,4,1,0.3562865000003512,290.2108831000005,None,290.31106480000017,None,290.2108831000005,None,False,None,None,None,None,None,None,None,None,,,,,,,,,,,,,,,,,,,,,,,,,,,,AG4EN28,1,0x5FB8,D:\CoScience\Logfiles\,2022_May_27_1010,GoNoGo,2020.1.3,59.95732237796686,
DRÜCKEN SIE IM FOLGENDEN BITTE SO SCHNELL SIE KÖNNEN. BITTE ZEIGEN SIE IHRE MAXIMAL MÖGLICHE LEISTUNG!,200,NoGo,nogo,None,2,0,0,0,1,,,,,34,1,103,2,,,,,,,,,,,,,0.9,292.82623650000005,None,292.82623650000005,None,,,202,0,291.6127524000003,292.12769300000036,292.1109858,292.21100410000054,None,1,,292.1109858,None,292.21100410000054,None,292.1109858,None,False,None,None,None,None,None,None,None,None,,,,,,,,,,,,,,,,,,,,,,,,,,,,AG4EN28,1,0x5FB8,D:\CoScience\Logfiles\,2022_May_27_1010,GoNoGo,2020.1.3,59.95732237796686,
DRÜCKEN SIE IM FOLGENDEN BITTE SO SCHNELL SIE KÖNNEN. BITTE ZEIGEN SIE IHRE MAXIMAL MÖGLICHE LEISTUNG!,200,Go,go,4,1,0,0,0,1,,,,,34,2,104,0,,,,,,,,,,,,,1,294.61504760000025,None,294.61504760000025,None,,,201,211,293.7284317000003,294.22771209999974,294.22771209999974,294.32764700000007,4,1,0.3602042000002257,294.22771209999974,None,294.32764700000007,None,294.22771209999974,None,False,None,None,None,None,None,None,None,None,,,,,,,,,,,,,,,,,,,,,,,,,,,,AG4EN28,1,0x5FB8,D:\CoScience\Logfiles\,2022_May_27_1010,GoNoGo,2020.1.3,59.95732237796686,
DRÜCKEN SIE IM FOLGENDEN BITTE SO SCHNELL SIE KÖNNEN. BITTE ZEIGEN SIE IHRE MAXIMAL MÖGLICHE LEISTUNG!,200,Go,go,4,1,0,0,0,1,,,,,35,0,105,1,,,,,,,,,,,,,1,296.59810670000024,None,296.59810670000024,None,,,201,211,295.62841780000053,296.1276538000002,296.1276538000002,296.2277051000001,4,1,0.4512508000007074,296.1276538000002,None,296.2277051000001,None,296.1276538000002,None,False,None,None,None,None,None,None,None,None,,,,,,,,,,,,,,,,,,,,,,,,,,,,AG4EN28,1,0x5FB8,D:\CoScience\Logfiles\,2022_May_27_1010,GoNoGo,2020.1.3,59.95732237796686,
DRÜCKEN SIE IM FOLGENDEN BITTE SO SCHNELL SIE KÖNNEN. BITTE ZEIGEN SIE IHRE MAXIMAL MÖGLICHE LEISTUNG!,200,NoGo,nogo,None,2,0,0,0,1,,,,,35,1,106,2,,,,,,,,,,,,,0.9,298.82606750000014,None,298.82606750000014,None,,,202,0,297.61259299999983,298.1277031999998,298.11099340000055,298.21095220000007,None,1,,298.11099340000055,None,298.21095220000007,None,298.11099340000055,None,False,None,None,None,None,None,None,None,None,,,,,,,,,,,,,,,,,,,,,,,,,,,,AG4EN28,1,0x5FB8,D:\CoScience\Logfiles\,2022_May_27_1010,GoNoGo,2020.1.3,59.95732237796686,
DRÜCKEN SIE IM FOLGENDEN BITTE SO SCHNELL SIE KÖNNEN. BITTE ZEIGEN SIE IHRE MAXIMAL MÖGLICHE LEISTUNG!,200,Go,go,4,1,0,0,0,1,,,,,35,2,107,0,,,,,,,,,,,,,1,300.58188560000053,None,300.58188560000053,None,,,201,211,299.7292441999998,300.2443017000005,300.2277217999999,300.32777239999996,4,1,0.32615570000052685,300.2277217999999,None,300.32777239999996,None,300.2277217999999,None,False,None,None,None,None,None,None,None,None,,,,,,,,,,,,,,,,,,,,,,,,,,,,AG4EN28,1,0x5FB8,D:\CoScience\Logfiles\,2022_May_27_1010,GoNoGo,2020.1.3,59.95732237796686,
DRÜCKEN SIE IM FOLGENDEN BITTE SO SCHNELL SIE KÖNNEN. BITTE ZEIGEN SIE IHRE MAXIMAL MÖGLICHE LEISTUNG!,200,Go,go,4,1,0,0,0,1,,,,,36,0,108,1,,,,,,,,,,,,,1,302.5313490999997,None,302.5313490999997,None,,,201,211,301.60879900000054,302.1108651000004,302.0942836000004,302.1942798,4,1,0.40865779999967344,302.0942836000004,None,302.1942798,None,302.0942836000004,None,False,None,None,None,None,None,None,None,None,,,,,,,,,,,,,,,,,,,,,,,,,,,,AG4EN28,1,0x5FB8,D:\CoScience\Logfiles\,2022_May_27_1010,GoNoGo,2020.1.3,59.95732237796686,
DRÜCKEN SIE IM FOLGENDEN BITTE SO SCHNELL SIE KÖNNEN. BITTE ZEIGEN SIE IHRE MAXIMAL MÖGLICHE LEISTUNG!,200,Go,go,4,1,0,0,0,1,,,,,36,1,109,0,,,,,,,,,,,,,1,304.41524430000027,None,304.41524430000027,None,,,201,211,303.5588279000003,304.0608758999997,304.04440760000034,304.14396769999985,4,1,0.34564790000058565,304.04440760000034,None,304.14396769999985,None,304.04440760000034,None,False,None,None,None,None,None,None,None,None,,,,,,,,,,,,,,,,,,,,,,,,,,,,AG4EN28,1,0x5FB8,D:\CoScience\Logfiles\,2022_May_27_1010,GoNoGo,2020.1.3,59.95732237796686,
DRÜCKEN SIE IM FOLGENDEN BITTE SO SCHNELL SIE KÖNNEN. BITTE ZEIGEN SIE IHRE MAXIMAL MÖGLICHE LEISTUNG!,200,Go,go,4,1,0,0,0,1,,,,,36,2,110,1,,,,,,,,,,,,,1,306.2652641000004,None,306.2652641000004,None,,,201,211,305.4422924999999,305.94430900000043,305.92788029999974,306.0277769000004,4,1,0.30798050000066723,305.92788029999974,None,306.0277769000004,None,305.92788029999974,None,False,None,None,None,None,None,None,None,None,,,,,,,,,,,,,,,,,,,,,,,,,,,,AG4EN28,1,0x5FB8,D:\CoScience\Logfiles\,2022_May_27_1010,GoNoGo,2020.1.3,59.95732237796686,
DRÜCKEN SIE IM FOLGENDEN BITTE SO SCHNELL SIE KÖNNEN. BITTE ZEIGEN SIE IHRE MAXIMAL MÖGLICHE LEISTUNG!,200,Go,go,4,1,0,0,0,1,,,,,37,0,111,0,,,,,,,,,,,,,1,308.16423190000023,None,308.16423190000023,None,,,201,211,307.2784276000002,307.77763849999974,307.77763849999974,307.87768030000007,4,1,0.3602928000000247,307.77763849999974,None,307.87768030000007,None,307.77763849999974,None,False,None,None,None,None,None,None,None,None,,,,,,,,,,,,,,,,,,,,,,,,,,,,AG4EN28,1,0x5FB8,D:\CoScience\Logfiles\,2022_May_27_1010,GoNoGo,2020.1.3,59.95732237796686,
DRÜCKEN SIE IM FOLGENDEN BITTE SO SCHNELL SIE KÖNNEN. BITTE ZEIGEN SIE IHRE MAXIMAL MÖGLICHE LEISTUNG!,200,Go,go,4,1,0,0,0,1,,,,,37,1,112,1,,,,,,,,,,,,,1,310.0318076000003,None,310.0318076000003,None,,,201,211,309.1785012,309.6939650000004,309.6773640000001,309.7777321000003,4,1,0.3265031999999337,309.6773640000001,None,309.7777321000003,None,309.6773640000001,None,False,None,None,None,None,None,None,None,None,,,,,,,,,,,,,,,,,,,,,,,,,,,,AG4EN28,1,0x5FB8,D:\CoScience\Logfiles\,2022_May_27_1010,GoNoGo,2020.1.3,59.95732237796686,
DRÜCKEN SIE IM FOLGENDEN BITTE SO SCHNELL SIE KÖNNEN. BITTE ZEIGEN SIE IHRE MAXIMAL MÖGLICHE LEISTUNG!,200,Go,go,4,1,0,0,0,1,,,,,37,2,113,0,,,,,,,,,,,,,1,311.84553490000053,None,311.84553490000053,None,,,201,211,311.04517380000016,311.5445182000003,311.5445182000003,311.6444302,4,1,0.2694897999999739,311.5445182000003,None,311.6444302,None,311.5445182000003,None,False,None,None,None,None,None,None,None,None,,,,,,,,,,,,,,,,,,,,,,,,,,,,AG4EN28,1,0x5FB8,D:\CoScience\Logfiles\,2022_May_27_1010,GoNoGo,2020.1.3,59.95732237796686,
DRÜCKEN SIE IM FOLGENDEN BITTE SO SCHNELL SIE KÖNNEN. BITTE ZEIGEN SIE IHRE MAXIMAL MÖGLICHE LEISTUNG!,200,Go,go,4,1,0,0,0,1,,,,,38,0,114,1,,,,,,,,,,,,,1,313.6480214000003,None,313.6480214000003,None,,,201,211,312.8620861999998,313.36097830000017,313.36097830000017,313.4610595000004,4,1,0.259815599999456,313.36097830000017,None,313.4610595000004,None,313.36097830000017,None,False,None,None,None,None,None,None,None,None,,,,,,,,,,,,,,,,,,,,,,,,,,,,AG4EN28,1,0x5FB8,D:\CoScience\Logfiles\,2022_May_27_1010,GoNoGo,2020.1.3,59.95732237796686,
DRÜCKEN SIE IM FOLGENDEN BITTE SO SCHNELL SIE KÖNNEN. BITTE ZEIGEN SIE IHRE MAXIMAL MÖGLICHE LEISTUNG!,200,NoGo,nogo,None,2,0,0,0,1,,,,,38,1,115,2,,,,,,,,,,,,,0.9,315.8759828000002,None,315.8759828000002,None,,,202,0,314.6626956,315.17726310000035,315.16105700000026,315.2610807000001,None,1,,315.16105700000026,None,315.2610807000001,None,315.16105700000026,None,False,None,None,None,None,None,None,None,None,,,,,,,,,,,,,,,,,,,,,,,,,,,,AG4EN28,1,0x5FB8,D:\CoScience\Logfiles\,2022_May_27_1010,GoNoGo,2020.1.3,59.95732237796686,
DRÜCKEN SIE IM FOLGENDEN BITTE SO SCHNELL SIE KÖNNEN. BITTE ZEIGEN SIE IHRE MAXIMAL MÖGLICHE LEISTUNG!,200,Go,go,4,1,0,0,0,1,,,,,38,2,116,1,,,,,,,,,,,,,1,317.6645576000001,None,317.6645576000001,None,,,201,211,316.7786083000001,317.2777087000004,317.2777087000004,317.3776157000002,4,1,0.35611379999954806,317.2777087000004,None,317.3776157000002,None,317.2777087000004,None,False,None,None,None,None,None,None,None,None,,,,,,,,,,,,,,,,,,,,,,,,,,,,AG4EN28,1,0x5FB8,D:\CoScience\Logfiles\,2022_May_27_1010,GoNoGo,2020.1.3,59.95732237796686,
DRÜCKEN SIE IM FOLGENDEN BITTE SO SCHNELL SIE KÖNNEN. BITTE ZEIGEN SIE IHRE MAXIMAL MÖGLICHE LEISTUNG!,200,Go,go,4,1,0,0,0,1,,,,,39,0,117,0,,,,,,,,,,,,,1,319.5310879999997,None,319.5310879999997,None,,,201,211,318.69200850000016,319.1942755,319.1776638000001,319.2777022,4,1,0.33319959999971616,319.1776638000001,None,319.2777022,None,319.1776638000001,None,False,None,None,None,None,None,None,None,None,,,,,,,,,,,,,,,,,,,,,,,,,,,,AG4EN28,1,0x5FB8,D:\CoScience\Logfiles\,2022_May_27_1010,GoNoGo,2020.1.3,59.95732237796686,
DRÜCKEN SIE IM FOLGENDEN BITTE SO SCHNELL SIE KÖNNEN. BITTE ZEIGEN SIE IHRE MAXIMAL MÖGLICHE LEISTUNG!,200,Go,go,4,1,0,0,0,1,,,,,39,1,118,1,,,,,,,,,,,,,1,321.4147688000003,None,321.4147688000003,None,,,201,211,320.54502760000014,321.04426630000034,321.04426630000034,321.1442814000002,4,1,0.34773630000017874,321.04426630000034,None,321.1442814000002,None,321.04426630000034,None,False,None,None,None,None,None,None,None,None,,,,,,,,,,,,,,,,,,,,,,,,,,,,AG4EN28,1,0x5FB8,D:\CoScience\Logfiles\,2022_May_27_1010,GoNoGo,2020.1.3,59.95732237796686,
DRÜCKEN SIE IM FOLGENDEN BITTE SO SCHNELL SIE KÖNNEN. BITTE ZEIGEN SIE IHRE MAXIMAL MÖGLICHE LEISTUNG!,200,NoGo,nogo,None,2,0,0,0,1,,,,,39,2,119,2,,,,,,,,,,,,,0.9,323.6426395999997,None,323.6426395999997,None,,,202,0,322.4290364999997,322.9442890999999,322.9277420999997,323.02773739999975,None,1,,322.9277420999997,None,323.02773739999975,None,322.9277420999997,None,False,None,None,None,None,None,None,None,None,,,,,,,,,,,,,,,,,,,,,,,,,,,,AG4EN28,1,0x5FB8,D:\CoScience\Logfiles\,2022_May_27_1010,GoNoGo,2020.1.3,59.95732237796686,
DRÜCKEN SIE IM FOLGENDEN BITTE SO SCHNELL SIE KÖNNEN. BITTE ZEIGEN SIE IHRE MAXIMAL MÖGLICHE LEISTUNG!,200,NoGo,nogo,None,2,0,0,0,1,,,,,40,0,120,2,,,,,,,,,,,,,0.9,325.7473694,None,325.7473694,None,,,202,0,324.54527169999983,325.0442815000006,325.0442815000006,325.1442895,None,1,,325.0442815000006,None,325.1442895,None,325.0442815000006,None,False,None,None,None,None,None,None,None,None,,,,,,,,,,,,,,,,,,,,,,,,,,,,AG4EN28,1,0x5FB8,D:\CoScience\Logfiles\,2022_May_27_1010,GoNoGo,2020.1.3,59.95732237796686,
DRÜCKEN SIE IM FOLGENDEN BITTE SO SCHNELL SIE KÖNNEN. BITTE ZEIGEN SIE IHRE MAXIMAL MÖGLICHE LEISTUNG!,200,Go,go,4,1,0,0,0,1,,,,,40,1,121,0,,,,,,,,,,,,,1,327.64723909999975,None,327.64723909999975,None,,,201,211,326.66240780000044,327.1776362999999,327.1609381999997,327.2610685999998,4,1,0.463945500000591,327.1609381999997,None,327.2610685999998,None,327.1609381999997,None,False,None,None,None,None,None,None,None,None,,,,,,,,,,,,,,,,,,,,,,,,,,,,AG4EN28,1,0x5FB8,D:\CoScience\Logfiles\,2022_May_27_1010,GoNoGo,2020.1.3,59.95732237796686,
DRÜCKEN SIE IM FOLGENDEN BITTE SO SCHNELL SIE KÖNNEN. BITTE ZEIGEN SIE IHRE MAXIMAL MÖGLICHE LEISTUNG!,200,Go,go,4,1,0,0,0,1,,,,,40,2,122,1,,,,,,,,,,,,,1,329.49827819999973,None,329.49827819999973,None,,,201,211,328.66196240000045,329.16095360000054,329.16095360000054,329.2610258000004,4,1,0.3070378000002165,329.16095360000054,None,329.2610258000004,None,329.16095360000054,None,False,None,None,None,None,None,None,None,None,,,,,,,,,,,,,,,,,,,,,,,,,,,,AG4EN28,1,0x5FB8,D:\CoScience\Logfiles\,2022_May_27_1010,GoNoGo,2020.1.3,59.95732237796686,
DRÜCKEN SIE IM FOLGENDEN BITTE SO SCHNELL SIE KÖNNEN. BITTE ZEIGEN SIE IHRE MAXIMAL MÖGLICHE LEISTUNG!,200,Go,go,4,1,0,0,0,1,,,,,41,0,123,0,,,,,,,,,,,,,1,331.3982256999998,None,331.3982256999998,None,,,201,211,330.5253775000001,331.02665200000047,331.01105129999996,331.11099920000015,4,1,0.364019499999813,331.01105129999996,None,331.11099920000015,None,331.01105129999996,None,False,None,None,None,None,None,None,None,None,,,,,,,,,,,,,,,,,,,,,,,,,,,,AG4EN28,1,0x5FB8,D:\CoScience\Logfiles\,2022_May_27_1010,GoNoGo,2020.1.3,59.95732237796686,
DRÜCKEN SIE IM FOLGENDEN BITTE SO SCHNELL SIE KÖNNEN. BITTE ZEIGEN SIE IHRE MAXIMAL MÖGLICHE LEISTUNG!,200,NoGo,nogo,None,2,0,0,0,1,,,,,41,1,124,2,,,,,,,,,,,,,0.9,333.62597110000024,None,333.62597110000024,None,,,202,0,332.4127201000001,332.92759019999994,332.9109918000004,333.0110212999998,None,1,,332.9109918000004,None,333.0110212999998,None,332.9109918000004,None,False,None,None,None,None,None,None,None,None,,,,,,,,,,,,,,,,,,,,,,,,,,,,AG4EN28,1,0x5FB8,D:\CoScience\Logfiles\,2022_May_27_1010,GoNoGo,2020.1.3,59.95732237796686,
DRÜCKEN SIE IM FOLGENDEN BITTE SO SCHNELL SIE KÖNNEN. BITTE ZEIGEN SIE IHRE MAXIMAL MÖGLICHE LEISTUNG!,200,Go,go,4,1,0,0,0,1,,,,,41,2,125,1,,,,,,,,,,,,,1,335.4121393000005,None,335.4121393000005,None,,,201,211,334.5292021000005,335.0442757999999,335.0276923000001,335.12768510000024,4,1,0.3541672999999719,335.0276923000001,None,335.12768510000024,None,335.0276923000001,None,False,None,None,None,None,None,336.4490112000003,None,space,23.928321500000493,,,,,,,,,,,,,,,,,,,,,,,,,,,AG4EN28,1,0x5FB8,D:\CoScience\Logfiles\,2022_May_27_1010,GoNoGo,2020.1.3,59.95732237796686,
DRÜCKEN SIE IM FOLGENDEN BITTE SO SCHNELL SIE KÖNNEN. BITTE ZEIGEN SIE IHRE MAXIMAL MÖGLICHE LEISTUNG!,200,Go,go,4,1,0,0,0,1,,,,,42,0,126,0,,,,,,,,,,,,,1,363.24837990000015,None,363.24837990000015,None,,,201,211,362.37914980000005,362.91089509999983,362.8943046000004,362.99428760000046,4,1,0.32447619999948074,362.8943046000004,None,362.97772220000024,None,362.8943046000004,None,False,None,None,None,None,None,None,None,None,,,,,,,,,,,,,,,,,,,,,,,,,,,,AG4EN28,1,0x5FB8,D:\CoScience\Logfiles\,2022_May_27_1010,GoNoGo,2020.1.3,59.95732237796686,
DRÜCKEN SIE IM FOLGENDEN BITTE SO SCHNELL SIE KÖNNEN. BITTE ZEIGEN SIE IHRE MAXIMAL MÖGLICHE LEISTUNG!,200,Go,go,4,1,0,0,0,1,,,,,42,1,127,0,,,,,,,,,,,,,1,365.1305258000002,None,365.1305258000002,None,,,201,211,364.26173990000007,364.76101689999996,364.76101689999996,364.86099530000047,4,1,0.3377583000001323,364.76101689999996,None,364.86099530000047,None,364.76101689999996,None,False,None,None,None,None,None,None,None,None,,,,,,,,,,,,,,,,,,,,,,,,,,,,AG4EN28,1,0x5FB8,D:\CoScience\Logfiles\,2022_May_27_1010,GoNoGo,2020.1.3,59.95732237796686,
DRÜCKEN SIE IM FOLGENDEN BITTE SO SCHNELL SIE KÖNNEN. BITTE ZEIGEN SIE IHRE MAXIMAL MÖGLICHE LEISTUNG!,200,Go,go,4,1,0,0,0,1,,,,,42,2,128,0,,,,,,,,,,,,,1,366.9812741000005,None,366.9812741000005,None,,,201,211,366.1449899999998,366.6443925000003,366.6443925000003,366.74433339999996,4,1,0.30636720000075,366.6443925000003,None,366.74433339999996,None,366.6443925000003,None,False,None,None,None,None,None,None,None,None,,,,,,,,,,,,,,,,,,,,,,,,,,,,AG4EN28,1,0x5FB8,D:\CoScience\Logfiles\,2022_May_27_1010,GoNoGo,2020.1.3,59.95732237796686,
DRÜCKEN SIE IM FOLGENDEN BITTE SO SCHNELL SIE KÖNNEN. BITTE ZEIGEN SIE IHRE MAXIMAL MÖGLICHE LEISTUNG!,200,Go,go,4,1,0,0,0,1,,,,,43,0,129,1,,,,,,,,,,,,,1,368.8151533,None,368.8151533,None,,,201,211,367.99509300000045,368.49430910000046,368.49430910000046,368.59442730000046,4,1,0.28943660000004456,368.49430910000046,None,368.59442730000046,None,368.49430910000046,None,False,None,None,None,None,None,None,None,None,,,,,,,,,,,,,,,,,,,,,,,,,,,,AG4EN28,1,0x5FB8,D:\CoScience\Logfiles\,2022_May_27_1010,GoNoGo,2020.1.3,59.95732237796686,
DRÜCKEN SIE IM FOLGENDEN BITTE SO SCHNELL SIE KÖNNEN. BITTE ZEIGEN SIE IHRE MAXIMAL MÖGLICHE LEISTUNG!,200,Go,go,4,1,0,0,0,1,,,,,43,1,130,1,,,,,,,,,,,,,1,370.6812598000006,None,370.6812598000006,None,,,201,211,369.82871650000016,370.34415869999975,370.3276901999998,370.4276484000002,4,1,0.3262229000001753,370.3276901999998,None,370.4276484000002,None,370.3276901999998,None,False,None,None,None,None,None,None,None,None,,,,,,,,,,,,,,,,,,,,,,,,,,,,AG4EN28,1,0x5FB8,D:\CoScience\Logfiles\,2022_May_27_1010,GoNoGo,2020.1.3,59.95732237796686,
DRÜCKEN SIE IM FOLGENDEN BITTE SO SCHNELL SIE KÖNNEN. BITTE ZEIGEN SIE IHRE MAXIMAL MÖGLICHE LEISTUNG!,200,NoGo,nogo,None,2,0,0,0,1,,,,,43,2,131,2,,,,,,,,,,,,,0.9,372.90925810000044,None,372.90925810000044,None,,,202,0,371.6995364000004,372.2109032999997,372.1939516000002,372.2943161000003,None,1,,372.1939516000002,None,372.2943161000003,None,372.1939516000002,None,False,None,None,None,None,None,None,None,None,,,,,,,,,,,,,,,,,,,,,,,,,,,,AG4EN28,1,0x5FB8,D:\CoScience\Logfiles\,2022_May_27_1010,GoNoGo,2020.1.3,59.95732237796686,
DRÜCKEN SIE IM FOLGENDEN BITTE SO SCHNELL SIE KÖNNEN. BITTE ZEIGEN SIE IHRE MAXIMAL MÖGLICHE LEISTUNG!,200,Go,go,4,1,0,0,0,1,,,,,44,0,132,1,,,,,,,,,,,,,1,374.6647926000005,None,374.6647926000005,None,,,201,211,373.8130318000003,374.3275652000002,374.31095300000015,374.4110120000005,4,1,0.3238393999999971,374.31095300000015,None,374.4110120000005,None,374.31095300000015,None,False,None,None,None,None,None,None,None,None,,,,,,,,,,,,,,,,,,,,,,,,,,,,AG4EN28,1,0x5FB8,D:\CoScience\Logfiles\,2022_May_27_1010,GoNoGo,2020.1.3,59.95732237796686,
DRÜCKEN SIE IM FOLGENDEN BITTE SO SCHNELL SIE KÖNNEN. BITTE ZEIGEN SIE IHRE MAXIMAL MÖGLICHE LEISTUNG!,200,Go,go,4,1,0,0,0,1,,,,,44,1,133,1,,,,,,,,,,,,,1,376.5811670000003,None,376.5811670000003,None,,,201,211,375.6921927000003,376.19421930000044,376.1776544000004,376.2776794000001,4,1,0.3804963999991742,376.1776544000004,None,376.2776794000001,None,376.1776544000004,None,False,None,None,None,None,None,None,None,None,,,,,,,,,,,,,,,,,,,,,,,,,,,,AG4EN28,1,0x5FB8,D:\CoScience\Logfiles\,2022_May_27_1010,GoNoGo,2020.1.3,59.95732237796686,
DRÜCKEN SIE IM FOLGENDEN BITTE SO SCHNELL SIE KÖNNEN. BITTE ZEIGEN SIE IHRE MAXIMAL MÖGLICHE LEISTUNG!,200,NoGo,nogo,None,2,0,0,0,1,,,,,44,2,134,2,,,,,,,,,,,,,0.9,378.8089437999997,None,378.8089437999997,None,,,202,0,377.59581440000056,378.1109028000001,378.0942162000001,378.1942036999999,None,1,,378.0942162000001,None,378.1942036999999,None,378.0942162000001,None,False,None,None,None,None,None,None,None,None,,,,,,,,,,,,,,,,,,,,,,,,,,,,AG4EN28,1,0x5FB8,D:\CoScience\Logfiles\,2022_May_27_1010,GoNoGo,2020.1.3,59.95732237796686,
DRÜCKEN SIE IM FOLGENDEN BITTE SO SCHNELL SIE KÖNNEN. BITTE ZEIGEN SIE IHRE MAXIMAL MÖGLICHE LEISTUNG!,200,NoGo,nogo,None,2,0,0,0,1,,,,,45,0,135,2,,,,,,,,,,,,,0.9,380.9129259000001,None,380.9129259000001,None,,,202,0,379.7117053000002,380.2109707999998,380.2109707999998,380.31095000000005,None,1,,380.2109707999998,None,380.31095000000005,None,380.2109707999998,None,False,None,None,None,None,None,None,None,None,,,,,,,,,,,,,,,,,,,,,,,,,,,,AG4EN28,1,0x5FB8,D:\CoScience\Logfiles\,2022_May_27_1010,GoNoGo,2020.1.3,59.95732237796686,
DRÜCKEN SIE IM FOLGENDEN BITTE SO SCHNELL SIE KÖNNEN. BITTE ZEIGEN SIE IHRE MAXIMAL MÖGLICHE LEISTUNG!,200,NoGo,nogo,None,2,0,0,0,1,,,,,45,1,136,2,,,,,,,,,,,,,0.9,383.04242130000057,None,383.04242130000057,None,,,202,0,381.84218090000013,382.3441606000006,382.32742860000053,382.4274561000002,None,1,,382.32742860000053,None,382.4274561000002,None,382.32742860000053,None,False,None,None,None,None,None,None,None,None,,,,,,,,,,,,,,,,,,,,,,,,,,,,AG4EN28,1,0x5FB8,D:\CoScience\Logfiles\,2022_May_27_1010,GoNoGo,2020.1.3,59.95732237796686,
DRÜCKEN SIE IM FOLGENDEN BITTE SO SCHNELL SIE KÖNNEN. BITTE ZEIGEN SIE IHRE MAXIMAL MÖGLICHE LEISTUNG!,200,NoGo,nogo,None,2,0,0,0,1,,,,,45,2,137,2,,,,,,,,,,,,,0.9,385.1593079000004,None,385.1593079000004,None,,,202,0,383.94505610000033,384.4443547000001,384.4443547000001,384.54428989999997,None,1,,384.4443547000001,None,384.54428989999997,None,384.4443547000001,None,False,None,None,None,None,None,None,None,None,,,,,,,,,,,,,,,,,,,,,,,,,,,,AG4EN28,1,0x5FB8,D:\CoScience\Logfiles\,2022_May_27_1010,GoNoGo,2020.1.3,59.95732237796686,
DRÜCKEN SIE IM FOLGENDEN BITTE SO SCHNELL SIE KÖNNEN. BITTE ZEIGEN SIE IHRE MAXIMAL MÖGLICHE LEISTUNG!,200,NoGo,nogo,None,2,0,0,0,1,,,,,46,0,138,2,,,,,,,,,,,,,0.9,387.27588639999976,None,387.27588639999976,None,,,202,0,386.06180200000017,386.5608505,386.5608505,386.66089809999994,None,1,,386.5608505,None,386.66089809999994,None,386.5608505,None,False,None,None,None,None,None,None,None,None,,,,,,,,,,,,,,,,,,,,,,,,,,,,AG4EN28,1,0x5FB8,D:\CoScience\Logfiles\,2022_May_27_1010,GoNoGo,2020.1.3,59.95732237796686,
DRÜCKEN SIE IM FOLGENDEN BITTE SO SCHNELL SIE KÖNNEN. BITTE ZEIGEN SIE IHRE MAXIMAL MÖGLICHE LEISTUNG!,200,Go,go,4,1,0,0,0,1,,,,,46,1,139,0,,,,,,,,,,,,,1,389.0989070000005,None,389.0989070000005,None,,,201,211,388.1790888000005,388.69426490000023,388.67762779999975,388.77762600000005,4,1,0.398175700000138,388.67762779999975,None,388.77762600000005,None,388.67762779999975,None,False,None,None,None,None,None,None,None,None,,,,,,,,,,,,,,,,,,,,,,,,,,,,AG4EN28,1,0x5FB8,D:\CoScience\Logfiles\,2022_May_27_1010,GoNoGo,2020.1.3,59.95732237796686,
DRÜCKEN SIE IM FOLGENDEN BITTE SO SCHNELL SIE KÖNNEN. BITTE ZEIGEN SIE IHRE MAXIMAL MÖGLICHE LEISTUNG!,200,Go,go,4,1,0,0,0,1,,,,,46,2,140,1,,,,,,,,,,,,,1,390.9479352999997,None,390.9479352999997,None,,,201,211,390.1255750999999,390.62754270000005,390.6108843000002,390.71093480000036,4,1,0.3058618999993996,390.6108843000002,None,390.71093480000036,None,390.6108843000002,None,False,None,None,None,None,None,None,None,None,,,,,,,,,,,,,,,,,,,,,,,,,,,,AG4EN28,1,0x5FB8,D:\CoScience\Logfiles\,2022_May_27_1010,GoNoGo,2020.1.3,59.95732237796686,
DRÜCKEN SIE IM FOLGENDEN BITTE SO SCHNELL SIE KÖNNEN. BITTE ZEIGEN SIE IHRE MAXIMAL MÖGLICHE LEISTUNG!,200,NoGo,nogo,None,2,0,0,0,1,,,,,47,0,141,2,,,,,,,,,,,,,0.9,393.1762090000002,None,393.1762090000002,None,,,202,0,391.9624408999998,392.4775066000002,392.46101330000056,392.56092830000034,None,1,,392.46101330000056,None,392.56092830000034,None,392.46101330000056,None,False,None,None,None,None,None,None,None,None,,,,,,,,,,,,,,,,,,,,,,,,,,,,AG4EN28,1,0x5FB8,D:\CoScience\Logfiles\,2022_May_27_1010,GoNoGo,2020.1.3,59.95732237796686,
DRÜCKEN SIE IM FOLGENDEN BITTE SO SCHNELL SIE KÖNNEN. BITTE ZEIGEN SIE IHRE MAXIMAL MÖGLICHE LEISTUNG!,200,Go,go,4,1,0,0,0,1,,,,,47,1,142,0,,,,,,,,,,,,,1,394.9645795000006,None,394.9645795000006,None,,,201,211,394.0792535999999,394.59417159999975,394.5776370000003,394.67758289999983,4,1,0.35609240000030695,394.5776370000003,None,394.67758289999983,None,394.5776370000003,None,False,None,None,None,None,None,None,None,None,,,,,,,,,,,,,,,,,,,,,,,,,,,,AG4EN28,1,0x5FB8,D:\CoScience\Logfiles\,2022_May_27_1010,GoNoGo,2020.1.3,59.95732237796686,
DRÜCKEN SIE IM FOLGENDEN BITTE SO SCHNELL SIE KÖNNEN. BITTE ZEIGEN SIE IHRE MAXIMAL MÖGLICHE LEISTUNG!,200,Go,go,4,1,0,0,0,1,,,,,47,2,143,0,,,,,,,,,,,,,1,396.8981015999998,None,396.8981015999998,None,,,201,211,395.99210270000003,396.49410799999987,396.4776536999998,396.5772317000001,4,1,0.3970727000005354,396.4776536999998,None,396.5772317000001,None,396.4776536999998,None,False,None,None,None,None,None,None,None,None,,,,,,,,,,,,,,,,,,,,,,,,,,,,AG4EN28,1,0x5FB8,D:\CoScience\Logfiles\,2022_May_27_1010,GoNoGo,2020.1.3,59.95732237796686,
DRÜCKEN SIE IM FOLGENDEN BITTE SO SCHNELL SIE KÖNNEN. BITTE ZEIGEN SIE IHRE MAXIMAL MÖGLICHE LEISTUNG!,200,Go,go,4,1,0,0,0,1,,,,,48,0,144,0,,,,,,,,,,,,,1,398.7812710999997,None,398.7812710999997,None,,,201,211,397.92535529999986,398.4270395000003,398.41046389999974,398.51096620000044,4,1,0.3402646000004097,398.41046389999974,None,398.51096620000044,None,398.41046389999974,None,False,None,None,None,None,None,None,None,None,,,,,,,,,,,,,,,,,,,,,,,,,,,,AG4EN28,1,0x5FB8,D:\CoScience\Logfiles\,2022_May_27_1010,GoNoGo,2020.1.3,59.95732237796686,
DRÜCKEN SIE IM FOLGENDEN BITTE SO SCHNELL SIE KÖNNEN. BITTE ZEIGEN SIE IHRE MAXIMAL MÖGLICHE LEISTUNG!,200,Go,go,4,1,0,0,0,1,,,,,48,1,145,0,,,,,,,,,,,,,1,400.61365769999975,None,400.61365769999975,None,,,201,211,399.79504259999976,400.29418410000017,400.29418410000017,400.3943344999998,4,1,0.2946280999994997,400.29418410000017,None,400.3943344999998,None,400.29418410000017,None,False,None,None,None,None,None,None,None,None,,,,,,,,,,,,,,,,,,,,,,,,,,,,AG4EN28,1,0x5FB8,D:\CoScience\Logfiles\,2022_May_27_1010,GoNoGo,2020.1.3,59.95732237796686,
DRÜCKEN SIE IM FOLGENDEN BITTE SO SCHNELL SIE KÖNNEN. BITTE ZEIGEN SIE IHRE MAXIMAL MÖGLICHE LEISTUNG!,200,Go,go,4,1,0,0,0,1,,,,,48,2,146,0,,,,,,,,,,,,,1,402.53136189999987,None,402.53136189999987,None,,,201,211,401.62835710000036,402.1275069000003,402.1275069000003,402.22749399999975,4,1,0.3804934999998295,402.1275069000003,None,402.22749399999975,None,402.1275069000003,None,False,None,None,None,None,None,None,None,None,,,,,,,,,,,,,,,,,,,,,,,,,,,,AG4EN28,1,0x5FB8,D:\CoScience\Logfiles\,2022_May_27_1010,GoNoGo,2020.1.3,59.95732237796686,
DRÜCKEN SIE IM FOLGENDEN BITTE SO SCHNELL SIE KÖNNEN. BITTE ZEIGEN SIE IHRE MAXIMAL MÖGLICHE LEISTUNG!,200,Go,go,4,1,0,0,0,1,,,,,49,0,147,1,,,,,,,,,,,,,1,404.36366160000034,None,404.36366160000034,None,,,201,211,403.55878850000045,404.06076159999975,404.04415770000014,404.14429440000004,4,1,0.288639599999442,404.04415770000014,None,404.14429440000004,None,404.04415770000014,None,False,None,None,None,None,None,None,None,None,,,,,,,,,,,,,,,,,,,,,,,,,,,,AG4EN28,1,0x5FB8,D:\CoScience\Logfiles\,2022_May_27_1010,GoNoGo,2020.1.3,59.95732237796686,
DRÜCKEN SIE IM FOLGENDEN BITTE SO SCHNELL SIE KÖNNEN. BITTE ZEIGEN SIE IHRE MAXIMAL MÖGLICHE LEISTUNG!,200,Go,go,4,1,0,0,0,1,,,,,49,1,148,0,,,,,,,,,,,,,1,406.2474282000003,None,406.2474282000003,None,,,201,211,405.3778463999997,405.8775357000004,405.8775357000004,405.9776146000004,4,1,0.351201200000105,405.8775357000004,None,405.9776146000004,None,405.8775357000004,None,False,None,None,None,None,None,None,None,None,,,,,,,,,,,,,,,,,,,,,,,,,,,,AG4EN28,1,0x5FB8,D:\CoScience\Logfiles\,2022_May_27_1010,GoNoGo,2020.1.3,59.95732237796686,
DRÜCKEN SIE IM FOLGENDEN BITTE SO SCHNELL SIE KÖNNEN. BITTE ZEIGEN SIE IHRE MAXIMAL MÖGLICHE LEISTUNG!,200,NoGo,nogo,None,2,0,0,0,1,,,,,49,2,149,2,,,,,,,,,,,,,0.9,408.4758231000005,None,408.4758231000005,None,,,202,0,407.26251740000043,407.7774500000005,407.76095090000035,407.8609813000003,None,1,,407.76095090000035,None,407.8609813000003,None,407.76095090000035,None,False,None,None,None,None,None,None,None,None,,,,,,,,,,,,,,,,,,,,,,,,,,,,AG4EN28,1,0x5FB8,D:\CoScience\Logfiles\,2022_May_27_1010,GoNoGo,2020.1.3,59.95732237796686,
DRÜCKEN SIE IM FOLGENDEN BITTE SO SCHNELL SIE KÖNNEN. BITTE ZEIGEN SIE IHRE MAXIMAL MÖGLICHE LEISTUNG!,200,Go,go,4,1,0,0,0,1,,,,,50,0,150,1,,,,,,,,,,,,,1,410.2302844000005,None,410.2302844000005,None,,,201,211,409.3791675000002,409.89419590000034,409.8775182999998,409.9775801000005,4,1,0.32279140000082407,409.8775182999998,None,409.9775801000005,None,409.8775182999998,None,False,None,None,None,None,None,None,None,None,,,,,,,,,,,,,,,,,,,,,,,,,,,,AG4EN28,1,0x5FB8,D:\CoScience\Logfiles\,2022_May_27_1010,GoNoGo,2020.1.3,59.95732237796686,
DRÜCKEN SIE IM FOLGENDEN BITTE SO SCHNELL SIE KÖNNEN. BITTE ZEIGEN SIE IHRE MAXIMAL MÖGLICHE LEISTUNG!,200,Go,go,4,1,0,0,0,1,,,,,50,1,151,1,,,,,,,,,,,,,1,412.11430310000014,None,412.11430310000014,None,,,201,211,411.2453234000004,411.7442507000005,411.7442507000005,411.84425550000014,4,1,0.34747150000021065,411.7442507000005,None,411.84425550000014,None,411.7442507000005,None,False,None,None,None,None,None,None,None,None,,,,,,,,,,,,,,,,,,,,,,,,,,,,AG4EN28,1,0x5FB8,D:\CoScience\Logfiles\,2022_May_27_1010,GoNoGo,2020.1.3,59.95732237796686,
DRÜCKEN SIE IM FOLGENDEN BITTE SO SCHNELL SIE KÖNNEN. BITTE ZEIGEN SIE IHRE MAXIMAL MÖGLICHE LEISTUNG!,200,Go,go,4,1,0,0,0,1,,,,,50,2,152,0,,,,,,,,,,,,,1,413.9648151000001,None,413.9648151000001,None,,,201,211,413.14196660000016,413.6441652000003,413.62760440000056,413.7275331999999,4,1,0.3134484000001976,413.62760440000056,None,413.7275331999999,None,413.62760440000056,None,False,None,None,None,None,None,None,None,None,,,,,,,,,,,,,,,,,,,,,,,,,,,,AG4EN28,1,0x5FB8,D:\CoScience\Logfiles\,2022_May_27_1010,GoNoGo,2020.1.3,59.95732237796686,
DRÜCKEN SIE IM FOLGENDEN BITTE SO SCHNELL SIE KÖNNEN. BITTE ZEIGEN SIE IHRE MAXIMAL MÖGLICHE LEISTUNG!,200,Go,go,4,1,0,0,0,1,,,,,51,0,153,1,,,,,,,,,,,,,1,415.7978376000001,None,415.7978376000001,None,,,201,211,414.9921353999998,415.4941888000003,415.47761210000044,415.577628,4,1,0.2910910000000513,415.47761210000044,None,415.577628,None,415.47761210000044,None,False,None,None,None,None,None,None,None,None,,,,,,,,,,,,,,,,,,,,,,,,,,,,AG4EN28,1,0x5FB8,D:\CoScience\Logfiles\,2022_May_27_1010,GoNoGo,2020.1.3,59.95732237796686,
DRÜCKEN SIE IM FOLGENDEN BITTE SO SCHNELL SIE KÖNNEN. BITTE ZEIGEN SIE IHRE MAXIMAL MÖGLICHE LEISTUNG!,200,Go,go,4,1,0,0,0,1,,,,,51,1,154,0,,,,,,,,,,,,,1,417.62944700000025,None,417.62944700000025,None,,,201,211,416.81170139999995,417.32750399999986,417.3101462000004,417.4109175000003,4,1,0.28658639999957813,417.3101462000004,None,417.4109175000003,None,417.3101462000004,None,False,None,None,None,None,None,None,None,None,,,,,,,,,,,,,,,,,,,,,,,,,,,,AG4EN28,1,0x5FB8,D:\CoScience\Logfiles\,2022_May_27_1010,GoNoGo,2020.1.3,59.95732237796686,
DRÜCKEN SIE IM FOLGENDEN BITTE SO SCHNELL SIE KÖNNEN. BITTE ZEIGEN SIE IHRE MAXIMAL MÖGLICHE LEISTUNG!,200,Go,go,4,1,0,0,0,1,,,,,51,2,155,1,,,,,,,,,,,,,1,419.44803649999994,None,419.44803649999994,None,,,201,211,418.65859160000036,419.16083679999974,419.1442996000005,419.2442277,4,1,0.28446290000010777,419.1442996000005,None,419.2442277,None,419.1442996000005,None,False,None,None,None,None,None,None,None,None,,,,,,,,,,,,,,,,,,,,,,,,,,,,AG4EN28,1,0x5FB8,D:\CoScience\Logfiles\,2022_May_27_1010,GoNoGo,2020.1.3,59.95732237796686,
DRÜCKEN SIE IM FOLGENDEN BITTE SO SCHNELL SIE KÖNNEN. BITTE ZEIGEN SIE IHRE MAXIMAL MÖGLICHE LEISTUNG!,200,Go,go,4,1,0,0,0,1,,,,,52,0,156,1,,,,,,,,,,,,,1,421.30097639999985,None,421.30097639999985,None,,,201,211,420.4754692000006,420.9774749999997,420.9609102000004,421.06091990000004,4,1,0.304826999999932,420.9609102000004,None,421.06091990000004,None,420.9609102000004,None,False,None,None,None,None,None,None,None,None,,,,,,,,,,,,,,,,,,,,,,,,,,,,AG4EN28,1,0x5FB8,D:\CoScience\Logfiles\,2022_May_27_1010,GoNoGo,2020.1.3,59.95732237796686,
DRÜCKEN SIE IM FOLGENDEN BITTE SO SCHNELL SIE KÖNNEN. BITTE ZEIGEN SIE IHRE MAXIMAL MÖGLICHE LEISTUNG!,200,Go,go,4,1,0,0,0,1,,,,,52,1,157,0,,,,,,,,,,,,,1,423.13098360000004,None,423.13098360000004,None,,,201,211,422.3117060000004,422.8271807000001,422.8104675000004,422.9109404000001,4,1,0.2992729000006875,422.8104675000004,None,422.9109404000001,None,422.8104675000004,None,False,None,None,None,None,None,None,None,None,,,,,,,,,,,,,,,,,,,,,,,,,,,,AG4EN28,1,0x5FB8,D:\CoScience\Logfiles\,2022_May_27_1010,GoNoGo,2020.1.3,59.95732237796686,
DRÜCKEN SIE IM FOLGENDEN BITTE SO SCHNELL SIE KÖNNEN. BITTE ZEIGEN SIE IHRE MAXIMAL MÖGLICHE LEISTUNG!,200,Go,go,4,1,0,0,0,1,,,,,52,2,158,1,,,,,,,,,,,,,1,424.94636249999985,None,424.94636249999985,None,,,201,211,424.1434347000004,424.64412770000035,424.62762380000004,424.72756000000027,4,1,0.2870869999997012,424.62762380000004,None,424.72756000000027,None,424.62762380000004,None,False,None,None,None,None,None,None,None,None,,,,,,,,,,,,,,,,,,,,,,,,,,,,AG4EN28,1,0x5FB8,D:\CoScience\Logfiles\,2022_May_27_1010,GoNoGo,2020.1.3,59.95732237796686,
DRÜCKEN SIE IM FOLGENDEN BITTE SO SCHNELL SIE KÖNNEN. BITTE ZEIGEN SIE IHRE MAXIMAL MÖGLICHE LEISTUNG!,200,Go,go,4,1,0,0,0,1,,,,,53,0,159,1,,,,,,,,,,,,,1,426.8485958000001,None,426.8485958000001,None,,,201,211,425.9754490000005,426.477441,426.46065590000035,426.5609006000004,4,1,0.3641735000001063,426.46065590000035,None,426.5609006000004,None,426.46065590000035,None,False,None,None,None,None,None,None,None,None,,,,,,,,,,,,,,,,,,,,,,,,,,,,AG4EN28,1,0x5FB8,D:\CoScience\Logfiles\,2022_May_27_1010,GoNoGo,2020.1.3,59.95732237796686,
DRÜCKEN SIE IM FOLGENDEN BITTE SO SCHNELL SIE KÖNNEN. BITTE ZEIGEN SIE IHRE MAXIMAL MÖGLICHE LEISTUNG!,200,NoGo,nogo,None,2,0,0,0,1,,,,,53,1,160,2,,,,,,,,,,,,,1,428.6979891000001,None,428.6979891000001,None,,,202,220,427.86243920000015,428.3773901000004,428.3609129000006,428.4609244000003,4,0,0.3172236000000339,428.3609129000006,None,428.4609244000003,None,428.3609129000006,None,False,None,None,None,None,None,None,None,None,,,,,,,,,,,,,,,,,,,,,,,,,,,,AG4EN28,1,0x5FB8,D:\CoScience\Logfiles\,2022_May_27_1010,GoNoGo,2020.1.3,59.95732237796686,
DRÜCKEN SIE IM FOLGENDEN BITTE SO SCHNELL SIE KÖNNEN. BITTE ZEIGEN SIE IHRE MAXIMAL MÖGLICHE LEISTUNG!,200,Go,go,4,1,0,0,0,1,,,,,53,2,161,0,,,,,,,,,,,,,1,430.4943967999998,None,430.4943967999998,None,,,201,211,429.7124109000006,430.2274776000004,430.21092320000025,430.3109247000002,4,1,0.25496099999963917,430.21092320000025,None,430.3109247000002,None,430.21092320000025,None,False,None,None,None,None,None,None,None,None,,,,,,,,,,,,,,,,,,,,,,,,,,,,AG4EN28,1,0x5FB8,D:\CoScience\Logfiles\,2022_May_27_1010,GoNoGo,2020.1.3,59.95732237796686,
DRÜCKEN SIE IM FOLGENDEN BITTE SO SCHNELL SIE KÖNNEN. BITTE ZEIGEN SIE IHRE MAXIMAL MÖGLICHE LEISTUNG!,200,NoGo,nogo,None,2,0,0,0,1,,,,,54,0,162,2,,,,,,,,,,,,,0.9,432.70930039999985,None,432.70930039999985,None,,,202,0,431.4957366999997,432.01045479999993,431.99417379999977,432.09416280000005,None,1,,431.99417379999977,None,432.09416280000005,None,431.99417379999977,None,False,None,None,None,None,None,None,None,None,,,,,,,,,,,,,,,,,,,,,,,,,,,,AG4EN28,1,0x5FB8,D:\CoScience\Logfiles\,2022_May_27_1010,GoNoGo,2020.1.3,59.95732237796686,
DRÜCKEN SIE IM FOLGENDEN BITTE SO SCHNELL SIE KÖNNEN. BITTE ZEIGEN SIE IHRE MAXIMAL MÖGLICHE LEISTUNG!,200,Go,go,4,1,0,0,0,1,,,,,54,1,163,1,,,,,,,,,,,,,1,434.4636343000002,None,434.4636343000002,None,,,201,211,433.61171019999983,434.1108380000005,434.1108380000005,434.21080020000045,4,1,0.31987389999994775,434.1108380000005,None,434.21080020000045,None,434.1108380000005,None,False,None,None,None,None,None,None,None,None,,,,,,,,,,,,,,,,,,,,,,,,,,,,AG4EN28,1,0x5FB8,D:\CoScience\Logfiles\,2022_May_27_1010,GoNoGo,2020.1.3,59.95732237796686,
DRÜCKEN SIE IM FOLGENDEN BITTE SO SCHNELL SIE KÖNNEN. BITTE ZEIGEN SIE IHRE MAXIMAL MÖGLICHE LEISTUNG!,200,Go,go,4,1,0,0,0,1,,,,,54,2,164,1,,,,,,,,,,,,,1,436.3649221000005,None,436.3649221000005,None,,,201,211,435.4920844999997,435.99414549999983,435.9775417999999,436.07755199999974,4,1,0.36433149999993475,435.9775417999999,None,436.07755199999974,None,435.9775417999999,None,False,None,None,None,None,None,None,None,None,,,,,,,,,,,,,,,,,,,,,,,,,,,,AG4EN28,1,0x5FB8,D:\CoScience\Logfiles\,2022_May_27_1010,GoNoGo,2020.1.3,59.95732237796686,
DRÜCKEN SIE IM FOLGENDEN BITTE SO SCHNELL SIE KÖNNEN. BITTE ZEIGEN SIE IHRE MAXIMAL MÖGLICHE LEISTUNG!,200,NoGo,nogo,None,2,0,0,0,1,,,,,55,0,165,2,,,,,,,,,,,,,0.9,438.59242710000035,None,438.59242710000035,None,,,202,0,437.3792634000001,437.89417570000023,437.8774642999997,437.97759289999976,None,1,,437.8774642999997,None,437.97759289999976,None,437.8774642999997,None,False,None,None,None,None,None,None,None,None,,,,,,,,,,,,,,,,,,,,,,,,,,,,AG4EN28,1,0x5FB8,D:\CoScience\Logfiles\,2022_May_27_1010,GoNoGo,2020.1.3,59.95732237796686,
DRÜCKEN SIE IM FOLGENDEN BITTE SO SCHNELL SIE KÖNNEN. BITTE ZEIGEN SIE IHRE MAXIMAL MÖGLICHE LEISTUNG!,200,NoGo,nogo,None,2,0,0,0,1,,,,,55,1,166,2,,,,,,,,,,,,,1,440.2979313000005,None,440.2979313000005,None,,,202,220,439.50868530000025,440.0107887000004,439.99419690000013,440.09422970000014,4,0,0.28256640000017796,439.99419690000013,None,440.09422970000014,None,439.99419690000013,None,False,None,None,None,None,None,None,None,None,,,,,,,,,,,,,,,,,,,,,,,,,,,,AG4EN28,1,0x5FB8,D:\CoScience\Logfiles\,2022_May_27_1010,GoNoGo,2020.1.3,59.95732237796686,
DRÜCKEN SIE IM FOLGENDEN BITTE SO SCHNELL SIE KÖNNEN. BITTE ZEIGEN SIE IHRE MAXIMAL MÖGLICHE LEISTUNG!,200,Go,go,4,1,0,0,0,1,,,,,55,2,167,1,,,,,,,,,,,,,1,442.1152011000004,None,442.1152011000004,None,,,201,211,441.3124485999997,441.82734729999993,441.8108364999998,441.91077490000043,4,1,0.282851899999514,441.8108364999998,None,441.91077490000043,None,441.8108364999998,None,False,None,None,None,None,None,None,None,None,,,,,,,,,,,,,,,,,,,,,,,,,,,,AG4EN28,1,0x5FB8,D:\CoScience\Logfiles\,2022_May_27_1010,GoNoGo,2020.1.3,59.95732237796686,
DRÜCKEN SIE IM FOLGENDEN BITTE SO SCHNELL SIE KÖNNEN. BITTE ZEIGEN SIE IHRE MAXIMAL MÖGLICHE LEISTUNG!,200,NoGo,nogo,None,2,0,0,0,1,,,,,56,0,168,2,,,,,,,,,,,,,0.9,444.33031440000013,None,444.33031440000013,None,,,202,0,443.1291001999998,443.64412530000027,443.6275740000001,443.7275313,None,1,,443.6275740000001,None,443.7275313,None,443.6275740000001,None,False,None,None,None,None,None,None,None,None,,,,,,,,,,,,,,,,,,,,,,,,,,,,AG4EN28,1,0x5FB8,D:\CoScience\Logfiles\,2022_May_27_1010,GoNoGo,2020.1.3,59.95732237796686,
