Flanker,FlankerAndTarget,Congruency,Target,Item,Anchors,NASA_Item,NASA_Anchor,Practiceloop.thisRepN,Practiceloop.thisTrialN,Practiceloop.thisN,Practiceloop.thisIndex,Conditions.thisRepN,Conditions.thisTrialN,Conditions.thisN,Conditions.thisIndex,TrialLoop.thisRepN,TrialLoop.thisTrialN,TrialLoop.thisN,TrialLoop.thisIndex,NASAtrials.thisRepN,NASAtrials.thisTrialN,NASAtrials.thisN,NASAtrials.thisIndex,OrderExperimenter,ResponseMapping,ITI_jitter,IntTrInt.started,IntTrInt.stopped,CorrAns,PracFlankers.started,PracFlankers.stopped,PracTarget.started,PracTarget.stopped,PracResp.keys,PracResp.corr,PracResp.rt,PracFeedbackSlide.started,PracFeedbackSlide.stopped,cutoff,cond_marker,Experimenter_Resp.keys,TargetTrigger,FlankerTrigger,ResponseTrigger,FlankerSlide.started,FlankerSlide.stopped,TargetSlide.started,TargetSlide.stopped,TargetResponse.keys,TargetResponse.corr,TargetResponse.rt,TargetResponse.started,TargetResponse.stopped,FeedbackSlide.started,FeedbackSlide.stopped,showReminder,ReminderErrors.started,ReminderErrors.stopped,key_resp_3.keys,key_resp_3.started,key_resp_3.stopped,break_slide.started,break_slide.stopped,break_resp.keys,break_resp.started,break_resp.stopped,text.started,text.stopped,break_resp.rt,ExperimenterPresence,SelfReport.started,SelfReport.stopped,anxious.response,anxious.rt,peppy.response,peppy.rt,peeved.response,peeved.rt,happy.response,happy.rt,tired.response,tired.rt,relaxed.response,relaxed.rt,sad.response,sad.rt,calm.response,calm.rt,exhausted.response,exhausted.rt,irritated.response,irritated.rt,ItemSlide.started,ItemSlide.stopped,rating.response,rating.rt,Experimenter_Resp.rt,participant,session,EEGPort,LogFilesFolder,date,expName,psychopyVersion,frameRate,
HHH HHH,HHHHHHH,30,H,,,,,0,0,0,12,,,,,,,,,,,,,NotPresent_First,S_blue,0.9766014785371067,77.61179619999893,None,2,76.79288209999868,76.89507739999863,76.87849169999936,77.07849910000004,2,1,0.7075115000006917,None,None,,,,,,,,,,,,,,,,,,,,,,,,,,,,,,,,,,,,,,,,,,,,,,,,,,,,,,,,,,,,AG05AS29,1,0x5FB8,D:\CoScience\Logfiles\,2022_Mar_17_1252,Flanker,2020.1.3,59.97710074312637,
HSS SSH,HSSSSSH,20,S,,,,,0,1,1,2,,,,,,,,,,,,,,,0.8133190776932544,79.26141920000009,None,4,78.60945170000014,78.71165099999962,78.69507609999891,78.89508810000007,4,1,0.5419947000009415,None,None,,,,,,,,,,,,,,,,,,,,,,,,,,,,,,,,,,,,,,,,,,,,,,,,,,,,,,,,,,,,AG05AS29,1,0x5FB8,D:\CoScience\Logfiles\,2022_Mar_17_1252,Flanker,2020.1.3,59.97710074312637,
SSS SSS,SSSSSSS,30,S,,,,,0,2,2,14,,,,,,,,,,,,,,,0.902850868790706,80.84469849999914,None,4,80.07957439999882,80.19505070000014,80.17841709999993,80.37851129999945,4,1,0.6355593999996927,None,None,,,,,,,,,,,,,,,,,,,,,,,,,,,,,,,,,,,,,,,,,,,,,,,,,,,,,,,,,,,,AG05AS29,1,0x5FB8,D:\CoScience\Logfiles\,2022_Mar_17_1252,Flanker,2020.1.3,59.97710074312637,
SSS SSS,SSSSSSS,30,S,,,,,0,3,3,4,,,,,,,,,,,,,,,0.829820792583458,82.26089789999969,None,4,81.76171479999903,81.86162799999875,81.84519269999873,82.04509809999945,4,1,0.3888310999991518,None,None,,,,,,,,,,,,,,,,,,,,,,,,,,,,,,,,,,,,,,,,,,,,,,,,,,,,,,,,,,,,AG05AS29,1,0x5FB8,D:\CoScience\Logfiles\,2022_Mar_17_1252,Flanker,2020.1.3,59.97710074312637,
SSH HSS,SSHHHSS,10,H,,,,,0,4,4,7,,,,,,,,,,,,,,,0.8204704594310251,83.57800739999948,None,2,83.09569269999884,83.19501649999984,83.19501649999984,83.3950649999988,2,1,0.36806199999955425,None,None,,,,,,,,,,,,,,,,,,,,,,,,,,,,,,,,,,,,,,,,,,,,,,,,,,,,,,,,,,,,AG05AS29,1,0x5FB8,D:\CoScience\Logfiles\,2022_Mar_17_1252,Flanker,2020.1.3,59.97710074312637,
HSS SSH,HSSSSSH,20,S,,,,,0,5,5,13,,,,,,,,,,,,,,,0.8008189374528738,85.01148419999845,None,4,84.41179190000003,84.51165039999978,84.49498510000012,84.69495920000008,4,1,0.4950052999993204,None,None,,,,,,,,,,,,,,,,,,,,,,,,,,,,,,,,,,,,,,,,,,,,,,,,,,,,,,,,,,,,AG05AS29,1,0x5FB8,D:\CoScience\Logfiles\,2022_Mar_17_1252,Flanker,2020.1.3,59.97710074312637,
HHH HHH,HHHHHHH,30,H,,,,,0,6,6,9,,,,,,,,,,,,,,,0.9914760616032452,86.42821819999881,None,2,85.81103169999915,85.91169689999879,85.89517829999932,86.09510450000016,2,1,0.5038913000007597,None,None,,,,,,,,,,,,,,,,,,,,,,,,,,,,,,,,,,,,,,,,,,,,,,,,,,,,,,,,,,,,AG05AS29,1,0x5FB8,D:\CoScience\Logfiles\,2022_Mar_17_1252,Flanker,2020.1.3,59.97710074312637,
SHH HHS,SHHHHHS,20,H,,,,,0,7,7,8,,,,,,,,,,,,,,,0.9592669762310818,87.91098169999896,None,2,87.42934029999924,87.54492690000006,87.52841889999945,87.72842449999916,2,1,0.35665100000005623,None,None,,,,,,,,,,,,,,,,,,,,,,,,,,,,,,,,,,,,,,,,,,,,,,,,,,,,,,,,,,,,AG05AS29,1,0x5FB8,D:\CoScience\Logfiles\,2022_Mar_17_1252,Flanker,2020.1.3,59.97710074312637,
HHH HHH,HHHHHHH,30,H,,,,,0,8,8,10,,,,,,,,,,,,,,,0.9939573908328684,89.42811230000007,None,2,88.87938529999883,88.9784538999993,88.9784538999993,89.17843249999896,2,1,0.4305772999996407,None,None,,,,,,,,,,,,,,,,,,,,,,,,,,,,,,,,,,,,,,,,,,,,,,,,,,,,,,,,,,,,AG05AS29,1,0x5FB8,D:\CoScience\Logfiles\,2022_Mar_17_1252,Flanker,2020.1.3,59.97710074312637,
SSS SSS,SSSHSSS,0,H,,,,,0,9,9,6,,,,,,,,,,,,,,,0.9345910664907554,91.02816729999904,None,2,90.42810899999859,90.5280617999997,90.5280617999997,90.72844859999896,2,1,0.4700407999989693,None,None,,,,,,,,,,,,,,,,,,,,,,,,,,,,,,,,,,,,,,,,,,,,,,,,,,,,,,,,,,,,AG05AS29,1,0x5FB8,D:\CoScience\Logfiles\,2022_Mar_17_1252,Flanker,2020.1.3,59.97710074312637,
HHH HHH,HHHHHHH,30,H,,,,,0,10,10,11,,,,,,,,,,,,,,,0.947428640446981,92.4616188,None,2,91.96214989999862,92.06170129999919,92.04510259999915,92.2451474999998,2,1,0.38588789999994333,None,None,,,,,,,,,,,,,,,,,,,,,,,,,,,,,,,,,,,,,,,,,,,,,,,,,,,,,,,,,,,,AG05AS29,1,0x5FB8,D:\CoScience\Logfiles\,2022_Mar_17_1252,Flanker,2020.1.3,59.97710074312637,
HHS SHH,HHSSSHH,10,S,,,,,0,11,11,1,,,,,,,,,,,,,,,0.8339262589606635,93.91154189999907,None,4,93.41372439999941,93.52833649999957,93.51177329999882,93.71169519999967,4,1,0.37423370000033174,None,None,,,,,,,,,,,,,,,,,,,,,,,,,,,,,,,,,,,,,,,,,,,,,,,,,,,,,,,,,,,,AG05AS29,1,0x5FB8,D:\CoScience\Logfiles\,2022_Mar_17_1252,Flanker,2020.1.3,59.97710074312637,
SSS SSS,SSSSSSS,30,S,,,,,0,12,12,3,,,,,,,,,,,,,,,0.7928148134755968,95.21142209999925,None,4,94.7459232000001,94.8450671999999,94.8450671999999,95.04509999999937,4,1,0.346089500000744,None,None,,,,,,,,,,,,,,,,,,,,,,,,,,,,,,,,,,,,,,,,,,,,,,,,,,,,,,,,,,,,AG05AS29,1,0x5FB8,D:\CoScience\Logfiles\,2022_Mar_17_1252,Flanker,2020.1.3,59.97710074312637,
HHH HHH,HHHSHHH,0,S,,,,,0,13,13,0,,,,,,,,,,,,,,,0.9466113478446434,96.54474680000021,None,4,96.01294459999917,96.12823500000013,96.11177809999936,96.31177299999945,4,1,0.40319479999925534,None,None,,,,,,,,,,,,,,,,,,,,,,,,,,,,,,,,,,,,,,,,,,,,,,,,,,,,,,,,,,,,AG05AS29,1,0x5FB8,D:\CoScience\Logfiles\,2022_Mar_17_1252,Flanker,2020.1.3,59.97710074312637,
SSS SSS,SSSSSSS,30,S,,,,,0,14,14,5,,,,,,,,,,,,,,,0.7519066483991856,97.96137559999988,None,4,97.4961577999984,97.6116766999985,97.59500449999905,97.7946725999991,4,1,0.34994539999934204,None,None,,,,,,,,,,,,,,,,,,,,,,,,,,,,,,,,,,,,,,,,,,,,,,,,,,,,,,,,,,,,AG05AS29,1,0x5FB8,D:\CoScience\Logfiles\,2022_Mar_17_1252,Flanker,2020.1.3,59.97710074312637,
HHH HHH,HHHSHHH,0,S,,,,,,,,,0,0,0,0,0,0,0,0,,,,,,,0.9065134662973185,107.06760269999904,None,4,,,,,,,,,,0.5115119695663453,100,None,104,100,107,106.47304199999962,106.57833299999947,106.5616828000002,106.76173689999996,4,1,0.48063120000006165,106.5616828000002,None,None,None,False,None,None,None,None,None,None,None,None,None,None,None,None,,,,,,,,,,,,,,,,,,,,,,,,,,,,,,AG05AS29,1,0x5FB8,D:\CoScience\Logfiles\,2022_Mar_17_1252,Flanker,2020.1.3,59.97710074312637,
SSS SSS,SSSSSSS,30,S,,,,,,,,,0,0,0,0,0,1,1,5,,,,,,,0.9390995498609991,108.41524639999989,None,4,,,,,,,,,,,,,134,130,137,107.9801095999992,108.09459859999879,108.07805219999864,108.27840619999915,4,1,0.31132889999935287,108.07805219999864,None,None,None,False,None,None,None,None,None,None,None,None,None,None,None,None,,,,,,,,,,,,,,,,,,,,,,,,,,,,,,AG05AS29,1,0x5FB8,D:\CoScience\Logfiles\,2022_Mar_17_1252,Flanker,2020.1.3,59.97710074312637,
SSS SSS,SSSSSSS,30,S,,,,,,,,,0,0,0,0,0,2,2,5,,,,,,,0.8507957783363103,109.79881559999922,None,4,,,,,,,,,,,,,134,130,137,109.36158889999933,109.46169550000013,109.4446455999987,109.64508299999943,4,1,0.3310818999998446,109.4446455999987,None,None,None,False,None,None,None,None,None,None,None,None,None,None,None,None,,,,,,,,,,,,,,,,,,,,,,,,,,,,,,AG05AS29,1,0x5FB8,D:\CoScience\Logfiles\,2022_Mar_17_1252,Flanker,2020.1.3,59.97710074312637,
SSS SSS,SSSSSSS,30,S,,,,,,,,,0,0,0,0,0,3,3,4,,,,,,,0.7715300725690041,111.08198749999974,None,4,,,,,,,,,,,,,134,130,137,110.66151910000008,110.76160840000011,110.74507449999874,110.94517029999952,4,1,0.3153879000001325,110.74507449999874,None,None,None,False,None,None,None,None,None,None,None,None,None,None,None,None,,,,,,,,,,,,,,,,,,,,,,,,,,,,,,AG05AS29,1,0x5FB8,D:\CoScience\Logfiles\,2022_Mar_17_1252,Flanker,2020.1.3,59.97710074312637,
SSS SSS,SSSSSSS,30,S,,,,,,,,,0,0,0,0,0,4,4,4,,,,,,,0.7672251870534292,112.29831209999975,None,4,,,,,,,,,,,,,134,130,137,111.86167559999922,111.96170619999975,111.94505149999895,112.14502589999938,4,1,0.33217770000010205,111.94505149999895,None,None,None,False,None,None,None,None,None,None,None,None,None,None,None,None,,,,,,,,,,,,,,,,,,,,,,,,,,,,,,AG05AS29,1,0x5FB8,D:\CoScience\Logfiles\,2022_Mar_17_1252,Flanker,2020.1.3,59.97710074312637,
SSS SSS,SSSSSSS,30,S,,,,,,,,,0,0,0,0,0,5,5,3,,,,,,,0.9289169907500103,113.53056959999958,None,4,,,,,,,,,,,,,134,130,137,113.07820759999959,113.17816379999931,113.16182399999889,113.36171490000015,4,1,0.34365319999960775,113.16182399999889,None,None,None,False,None,None,None,None,None,None,None,None,None,None,None,None,,,,,,,,,,,,,,,,,,,,,,,,,,,,,,AG05AS29,1,0x5FB8,D:\CoScience\Logfiles\,2022_Mar_17_1252,Flanker,2020.1.3,59.97710074312637,
SSS SSS,SSSSSSS,30,S,,,,,,,,,0,0,0,0,0,6,6,4,,,,,,,0.7719165527388283,114.89871409999978,None,4,,,,,,,,,,,,,134,130,137,114.46148269999867,114.55959419999999,114.54444389999844,114.74436590000005,4,1,0.3320956000006845,114.54444389999844,None,None,None,False,None,None,None,None,None,None,None,None,None,None,None,None,,,,,,,,,,,,,,,,,,,,,,,,,,,,,,AG05AS29,1,0x5FB8,D:\CoScience\Logfiles\,2022_Mar_17_1252,Flanker,2020.1.3,59.97710074312637,
SSS SSS,SSSHSSS,0,H,,,,,,,,,0,0,0,0,0,7,7,6,,,,,,,0.9558785382224584,116.26538169999912,None,2,,,,,,,,,,,,,104,100,107,115.67953109999871,115.79413479999857,115.76182819999849,115.96176899999955,2,1,0.47843379999903846,115.76182819999849,None,None,None,False,None,None,None,None,None,None,None,None,None,None,None,None,,,,,,,,,,,,,,,,,,,,,,,,,,,,,,AG05AS29,1,0x5FB8,D:\CoScience\Logfiles\,2022_Mar_17_1252,Flanker,2020.1.3,59.97710074312637,
HHH HHH,HHHHHHH,30,H,,,,,,,,,0,0,0,0,0,8,8,10,,,,,,,0.9846150128569274,117.68149409999933,None,2,,,,,,,,,,,,,134,130,137,117.22959609999998,117.34495719999904,117.32841599999847,117.52840419999848,2,1,0.3269595000001573,117.32841599999847,None,None,None,False,None,None,None,None,None,None,None,None,None,None,None,None,,,,,,,,,,,,,,,,,,,,,,,,,,,,,,AG05AS29,1,0x5FB8,D:\CoScience\Logfiles\,2022_Mar_17_1252,Flanker,2020.1.3,59.97710074312637,
SHH HHS,SHHHHHS,20,H,,,,,,,,,0,0,0,0,0,9,9,8,,,,,,,0.7716206699860715,119.08206699999937,None,2,,,,,,,,,,,,,124,120,127,118.67897119999907,118.77799039999991,118.77799039999991,118.97829759999877,2,1,0.2852710000006482,118.77799039999991,None,None,None,False,None,None,None,None,None,None,None,None,None,None,None,None,,,,,,,,,,,,,,,,,,,,,,,,,,,,,,AG05AS29,1,0x5FB8,D:\CoScience\Logfiles\,2022_Mar_17_1252,Flanker,2020.1.3,59.97710074312637,
HHH HHH,HHHHHHH,30,H,,,,,,,,,0,0,0,0,0,10,10,10,,,,,,,0.863731349261749,120.33196919999864,None,2,,,,,,,,,,,,,134,130,137,119.87611479999941,119.9781751999999,119.96170459999848,120.1613383999993,2,1,0.3375277000013739,119.96170459999848,None,None,None,False,None,None,None,None,None,None,None,None,None,None,None,None,,,,,,,,,,,,,,,,,,,,,,,,,,,,,,AG05AS29,1,0x5FB8,D:\CoScience\Logfiles\,2022_Mar_17_1252,Flanker,2020.1.3,59.97710074312637,
SHH HHS,SHHHHHS,20,H,,,,,,,,,0,0,0,0,0,11,11,8,,,,,,,0.8904104618490285,121.63126729999931,None,2,,,,,,,,,,,,,124,120,127,121.19682139999895,121.31122909999976,121.29511289999937,121.49505639999916,2,1,0.3081407000008767,121.29511289999937,None,None,None,False,None,None,None,None,None,None,None,None,None,None,None,None,,,,,,,,,,,,,,,,,,,,,,,,,,,,,,AG05AS29,1,0x5FB8,D:\CoScience\Logfiles\,2022_Mar_17_1252,Flanker,2020.1.3,59.97710074312637,
HHH HHH,HHHSHHH,0,S,,,,,,,,,0,0,0,0,1,0,12,0,,,,,,,0.8669329001774241,122.98136179999892,None,4,,,,,,,,,,,,,104,100,107,122.53043539999999,122.64501989999917,122.62837219999892,122.8283191999999,4,1,0.3304566999995586,122.62837219999892,None,None,None,False,None,None,None,None,None,None,None,None,None,None,None,None,,,,,,,,,,,,,,,,,,,,,,,,,,,,,,AG05AS29,1,0x5FB8,D:\CoScience\Logfiles\,2022_Mar_17_1252,Flanker,2020.1.3,59.97710074312637,
SSS SSS,SSSSSSS,30,S,,,,,,,,,0,0,0,0,1,1,13,5,,,,,,,0.9360560492328461,124.36521079999875,None,4,,,,,,,,,,,,,134,130,137,123.86289979999856,123.97825009999906,123.96164729999873,124.16168659999857,4,1,0.37560560000019905,123.96164729999873,None,None,None,False,None,None,None,None,None,None,None,None,None,None,None,None,,,,,,,,,,,,,,,,,,,,,,,,,,,,,,AG05AS29,1,0x5FB8,D:\CoScience\Logfiles\,2022_Mar_17_1252,Flanker,2020.1.3,59.97710074312637,
SSH HSS,SSHHHSS,10,H,,,,,,,,,0,0,0,0,1,2,14,7,,,,,,,0.9817408845300273,125.86518710000018,None,2,,,,,,,,,,,,,114,110,117,125.31361899999865,125.42818179999995,125.41171839999879,125.61173159999998,2,1,0.4225334999991901,125.41171839999879,None,None,None,False,None,None,None,None,None,None,None,None,None,None,None,None,,,,,,,,,,,,,,,,,,,,,,,,,,,,,,AG05AS29,1,0x5FB8,D:\CoScience\Logfiles\,2022_Mar_17_1252,Flanker,2020.1.3,59.97710074312637,
SSS SSS,SSSSSSS,30,S,,,,,,,,,0,0,0,0,1,3,15,5,,,,,,,0.8576733732514064,127.33136120000017,None,4,,,,,,,,,,,,,134,130,137,126.86363029999848,126.97819389999859,126.9617959999996,127.16169119999904,4,1,0.33555490000071586,126.9617959999996,None,None,None,False,None,None,None,None,None,None,None,None,None,None,None,None,,,,,,,,,,,,,,,,,,,,,,,,,,,,,,AG05AS29,1,0x5FB8,D:\CoScience\Logfiles\,2022_Mar_17_1252,Flanker,2020.1.3,59.97710074312637,
HHH HHH,HHHHHHH,30,H,,,,,,,,,0,0,0,0,1,4,16,9,,,,,,,0.8327232727785401,128.64805309999974,None,2,,,,,,,,,,,,,134,130,137,128.19591469999978,128.29506570000012,128.29506570000012,128.49509260000013,2,1,0.3262838999999076,128.29506570000012,None,None,None,False,None,None,None,None,None,None,None,None,None,None,None,None,,,,,,,,,,,,,,,,,,,,,,,,,,,,,,AG05AS29,1,0x5FB8,D:\CoScience\Logfiles\,2022_Mar_17_1252,Flanker,2020.1.3,59.97710074312637,
SSH HSS,SSHHHSS,10,H,,,,,,,,,0,0,0,0,1,5,17,7,,,,,,,0.8267665676459782,129.94696909999948,None,2,,,,,,,,,,,,,114,110,117,129.4970033999998,129.61160930000005,129.5950660999988,129.79504049999923,2,1,0.3243787000010343,129.5950660999988,None,None,None,False,None,None,None,None,None,None,None,None,None,None,None,None,,,,,,,,,,,,,,,,,,,,,,,,,,,,,,AG05AS29,1,0x5FB8,D:\CoScience\Logfiles\,2022_Mar_17_1252,Flanker,2020.1.3,59.97710074312637,
SSS SSS,SSSHSSS,0,H,,,,,,,,,0,0,0,0,1,6,18,6,,,,,,,0.8343812700790442,131.3653594999996,None,2,,,,,,,,,,,,,104,100,107,130.7796561999985,130.8949001000001,130.87828399999853,131.07832789999884,2,1,0.46397780000006605,130.87828399999853,None,None,None,False,None,None,None,None,None,None,None,None,None,None,None,None,,,,,,,,,,,,,,,,,,,,,,,,,,,,,,AG05AS29,1,0x5FB8,D:\CoScience\Logfiles\,2022_Mar_17_1252,Flanker,2020.1.3,59.97710074312637,
HHH HHH,HHHHHHH,30,H,,,,,,,,,0,0,0,0,1,7,19,10,,,,,,,0.9135159566790875,132.64855349999925,None,2,,,,,,,,,,,,,134,130,137,132.21256619999986,132.31171399999948,132.31171399999948,132.51171929999873,2,1,0.30550899999980174,132.31171399999948,None,None,None,False,None,None,None,None,None,None,None,None,None,None,None,None,,,,,,,,,,,,,,,,,,,,,,,,,,,,,,AG05AS29,1,0x5FB8,D:\CoScience\Logfiles\,2022_Mar_17_1252,Flanker,2020.1.3,59.97710074312637,
SHH HHS,SHHHHHS,20,H,,,,,,,,,0,0,0,0,1,8,20,8,,,,,,,0.9795760590575086,134.03234109999903,None,2,,,,,,,,,,,,,124,120,127,133.5636560999992,133.67827969999962,133.66168130000005,133.8614411999988,2,1,0.3515791000008903,133.66168130000005,None,None,None,False,None,None,None,None,None,None,None,None,None,None,None,None,,,,,,,,,,,,,,,,,,,,,,,,,,,,,,AG05AS29,1,0x5FB8,D:\CoScience\Logfiles\,2022_Mar_17_1252,Flanker,2020.1.3,59.97710074312637,
SSS SSS,SSSHSSS,0,H,,,,,,,,,0,0,0,0,1,9,21,6,,,,,,,0.8236702451901468,135.61477259999992,None,2,,,,,,,,,,,,,104,100,107,135.01264730000003,135.11168980000002,135.11168980000002,135.3116076999995,2,1,0.47563289999925473,135.11168980000002,None,None,None,False,None,None,None,None,None,None,None,None,None,None,None,None,,,,,,,,,,,,,,,,,,,,,,,,,,,,,,AG05AS29,1,0x5FB8,D:\CoScience\Logfiles\,2022_Mar_17_1252,Flanker,2020.1.3,59.97710074312637,
SSS SSS,SSSSSSS,30,S,,,,,,,,,0,0,0,0,1,10,22,4,,,,,,,0.9420953040477951,136.98225339999954,None,4,,,,,,,,,,,,,134,130,137,136.4458502999987,136.54493329999968,136.5283660999994,136.72838159999992,4,1,0.43286429999898246,136.5283660999994,None,None,None,False,None,None,None,None,None,None,None,None,None,None,None,None,,,,,,,,,,,,,,,,,,,,,,,,,,,,,,AG05AS29,1,0x5FB8,D:\CoScience\Logfiles\,2022_Mar_17_1252,Flanker,2020.1.3,59.97710074312637,
HSS SSH,HSSSSSH,20,S,,,,,,,,,0,0,0,0,1,11,23,2,,,,,,,0.7767182685129406,138.36537469999894,None,4,,,,,,,,,,,,,124,120,127,137.9303545999992,138.04486550000001,138.02838249999877,138.2283138999992,4,1,0.305066099999749,138.02838249999877,None,None,None,False,None,None,None,None,None,None,None,None,None,None,None,None,,,,,,,,,,,,,,,,,,,,,,,,,,,,,,AG05AS29,1,0x5FB8,D:\CoScience\Logfiles\,2022_Mar_17_1252,Flanker,2020.1.3,59.97710074312637,
HHH HHH,HHHHHHH,30,H,,,,,,,,,0,0,0,0,2,0,24,10,,,,,,,0.90657925708354,139.68171470000016,None,2,,,,,,,,,,,,,134,130,137,139.14617999999973,139.2616610999994,139.24509559999933,139.4450608999996,2,1,0.4052883999993355,139.24509559999933,None,None,None,False,None,None,None,None,None,None,None,None,None,None,None,None,,,,,,,,,,,,,,,,,,,,,,,,,,,,,,AG05AS29,1,0x5FB8,D:\CoScience\Logfiles\,2022_Mar_17_1252,Flanker,2020.1.3,59.97710074312637,
SSS SSS,SSSHSSS,0,H,,,,,,,,,0,0,0,0,2,1,25,6,,,,,,,0.8975042185298189,141.09847079999963,None,2,,,,,,,,,,,,,104,100,107,140.6093946000001,140.71157510000012,140.69500739999967,140.89499719999912,2,1,0.3731857000002492,140.69500739999967,None,None,None,False,None,None,None,None,None,None,None,None,None,None,None,None,,,,,,,,,,,,,,,,,,,,,,,,,,,,,,AG05AS29,1,0x5FB8,D:\CoScience\Logfiles\,2022_Mar_17_1252,Flanker,2020.1.3,59.97710074312637,
HHS SHH,HHSSSHH,10,S,,,,,,,,,0,0,0,0,2,2,26,1,,,,,,,0.9578997998159529,142.5319791999991,None,4,,,,,,,,,,,,,114,110,117,142.0119309999991,142.11162589999913,142.0949563999984,142.29498759999842,4,1,0.41541549999965355,142.0949563999984,None,None,None,False,None,None,None,None,None,None,None,None,None,None,None,None,,,,,,,,,,,,,,,,,,,,,,,,,,,,,,AG05AS29,1,0x5FB8,D:\CoScience\Logfiles\,2022_Mar_17_1252,Flanker,2020.1.3,59.97710074312637,
SSS SSS,SSSSSSS,30,S,,,,,,,,,0,0,0,0,2,3,27,4,,,,,,,0.991158448736785,143.9152402999989,None,4,,,,,,,,,,,,,134,130,137,143.49708509999982,143.61155119999967,143.5950054999994,143.7950235999997,4,1,0.3012352000005194,143.5950054999994,None,None,None,False,None,None,None,None,None,None,None,None,None,None,None,None,,,,,,,,,,,,,,,,,,,,,,,,,,,,,,AG05AS29,1,0x5FB8,D:\CoScience\Logfiles\,2022_Mar_17_1252,Flanker,2020.1.3,59.97710074312637,
SSS SSS,SSSSSSS,30,S,,,,,,,,,0,0,0,0,2,4,28,3,,,,,,,0.7660546497276232,145.36532309999893,None,4,,,,,,,,,,,,,134,130,137,144.91134259999853,145.0114606999996,144.9949431999994,145.19500030000017,4,1,0.3482743999993545,144.9949431999994,None,None,None,False,None,None,None,None,None,None,None,None,None,None,None,None,,,,,,,,,,,,,,,,,,,,,,,,,,,,,,AG05AS29,1,0x5FB8,D:\CoScience\Logfiles\,2022_Mar_17_1252,Flanker,2020.1.3,59.97710074312637,
SSS SSS,SSSSSSS,30,S,,,,,,,,,0,0,0,0,2,5,29,4,,,,,,,0.9655810712535224,148.24432709999928,None,4,,,,,,,,,,,,,134,130,0,146.14485409999907,146.24490559999867,146.22837509999954,146.42835639999976,None,0,,146.22837509999954,None,147.23259009999856,None,False,None,None,None,None,None,None,None,None,None,None,None,None,,,,,,,,,,,,,,,,,,,,,,,,,,,,,,AG05AS29,1,0x5FB8,D:\CoScience\Logfiles\,2022_Mar_17_1252,Flanker,2020.1.3,59.97710074312637,
SSS SSS,SSSSSSS,30,S,,,,,,,,,0,0,0,0,2,6,30,5,,,,,,,0.9473745921171005,149.69804680000016,None,4,,,,,,,,,,,,,134,130,137,149.21160249999957,149.3115686000001,149.29503899999872,149.49507369999992,4,1,0.3773137999996834,149.29503899999872,None,None,None,False,None,None,None,None,None,None,None,None,None,None,None,None,,,,,,,,,,,,,,,,,,,,,,,,,,,,,,AG05AS29,1,0x5FB8,D:\CoScience\Logfiles\,2022_Mar_17_1252,Flanker,2020.1.3,59.97710074312637,
SHH HHS,SHHHHHS,20,H,,,,,,,,,0,0,0,0,2,7,31,8,,,,,,,0.7927669048016681,151.1818862,None,2,,,,,,,,,,,,,124,120,127,150.6463506,150.7616197999996,150.74487969999973,150.94496359999903,2,1,0.4063475999992079,150.74487969999973,None,None,None,False,None,None,None,None,None,None,None,None,None,None,None,None,,,,,,,,,,,,,,,,,,,,,,,,,,,,,,AG05AS29,1,0x5FB8,D:\CoScience\Logfiles\,2022_Mar_17_1252,Flanker,2020.1.3,59.97710074312637,
HHH HHH,HHHHHHH,30,H,,,,,,,,,0,0,0,0,2,8,32,11,,,,,,,0.9142146517931411,152.4819794999985,None,2,,,,,,,,,,,,,134,130,137,151.9802254999995,152.0948875999984,152.0781978999985,152.2783331999999,2,1,0.37132329999985814,152.0781978999985,None,None,None,False,None,None,None,None,None,None,None,None,None,None,None,None,,,,,,,,,,,,,,,,,,,,,,,,,,,,,,AG05AS29,1,0x5FB8,D:\CoScience\Logfiles\,2022_Mar_17_1252,Flanker,2020.1.3,59.97710074312637,
SSS SSS,SSSSSSS,30,S,,,,,,,,,0,0,0,0,2,9,33,3,,,,,,,0.773696290068415,154.04860559999906,None,4,,,,,,,,,,,,,134,130,137,153.41379959999904,153.52827009999965,153.5116194000002,153.71163399999932,4,1,0.5078413999999611,153.5116194000002,None,None,None,False,None,None,None,None,None,None,None,None,None,None,None,None,,,,,,,,,,,,,,,,,,,,,,,,,,,,,,AG05AS29,1,0x5FB8,D:\CoScience\Logfiles\,2022_Mar_17_1252,Flanker,2020.1.3,59.97710074312637,
HHH HHH,HHHSHHH,0,S,,,,,,,,,0,0,0,0,2,10,34,0,,,,,,,0.8500443094483979,155.4153007999994,None,4,,,,,,,,,,,,,104,100,107,154.8290270999987,154.9284392999998,154.9284392999998,155.12836669999888,4,1,0.45375050000075134,154.9284392999998,None,None,None,False,None,None,None,None,None,None,None,None,None,None,None,None,,,,,,,,,,,,,,,,,,,,,,,,,,,,,,AG05AS29,1,0x5FB8,D:\CoScience\Logfiles\,2022_Mar_17_1252,Flanker,2020.1.3,59.97710074312637,
SSS SSS,SSSSSSS,30,S,,,,,,,,,0,0,0,0,2,11,35,5,,,,,,,0.8024163672202863,156.78177679999862,None,4,,,,,,,,,,,,,134,130,137,156.2794361999986,156.39496319999853,156.37837579999905,156.57833369999935,4,1,0.3808938999991369,156.37837579999905,None,None,None,False,None,None,None,None,None,None,None,None,None,None,None,None,,,,,,,,,,,,,,,,,,,,,,,,,,,,,,AG05AS29,1,0x5FB8,D:\CoScience\Logfiles\,2022_Mar_17_1252,Flanker,2020.1.3,59.97710074312637,
SSS SSS,SSSSSSS,30,S,,,,,,,,,0,0,0,0,3,0,36,4,,,,,,,0.8214545423820044,158.06537109999954,None,4,,,,,,,,,,,,,134,130,137,157.59482019999996,157.69490899999983,157.67834049999874,157.87826219999988,4,1,0.366082100001222,157.67834049999874,None,None,None,False,None,None,None,None,None,None,None,None,None,None,None,None,,,,,,,,,,,,,,,,,,,,,,,,,,,,,,AG05AS29,1,0x5FB8,D:\CoScience\Logfiles\,2022_Mar_17_1252,Flanker,2020.1.3,59.97710074312637,
SSH HSS,SSHHHSS,10,H,,,,,,,,,0,0,0,0,3,1,37,7,,,,,,,0.9080062971012706,159.38185089999934,None,2,,,,,,,,,,,,,114,110,117,158.89687609999964,159.0114883999995,158.99499429999923,159.19498349999958,2,1,0.36148449999927834,158.99499429999923,None,None,None,False,None,None,None,None,None,None,None,None,None,None,None,None,,,,,,,,,,,,,,,,,,,,,,,,,,,,,,AG05AS29,1,0x5FB8,D:\CoScience\Logfiles\,2022_Mar_17_1252,Flanker,2020.1.3,59.97710074312637,
HHH HHH,HHHHHHH,30,H,,,,,,,,,0,0,0,0,3,2,38,11,,,,,,,0.9782316965133265,160.73176869999952,None,2,,,,,,,,,,,,,134,130,137,160.29596969999875,160.39463160000014,160.39463160000014,160.59489059999942,2,1,0.3048740000012913,160.39463160000014,None,None,None,False,None,None,None,None,None,None,None,None,None,None,None,None,,,,,,,,,,,,,,,,,,,,,,,,,,,,,,AG05AS29,1,0x5FB8,D:\CoScience\Logfiles\,2022_Mar_17_1252,Flanker,2020.1.3,59.97710074312637,
HHH HHH,HHHHHHH,30,H,,,,,,,,,0,0,0,0,3,3,39,10,,,,,,,0.8463609356325054,162.13212719999865,None,2,,,,,,,,,,,,,134,130,137,161.7114490999993,161.81158439999854,161.79503379999915,161.99496699999872,2,1,0.3052869000002829,161.79503379999915,None,None,None,False,None,None,None,None,None,None,None,None,None,None,None,None,,,,,,,,,,,,,,,,,,,,,,,,,,,,,,AG05AS29,1,0x5FB8,D:\CoScience\Logfiles\,2022_Mar_17_1252,Flanker,2020.1.3,59.97710074312637,
HHH HHH,HHHHHHH,30,H,,,,,,,,,0,0,0,0,3,4,40,10,,,,,,,0.8697781894439114,163.38191519999964,None,2,,,,,,,,,,,,,134,130,137,162.9781755999993,163.0778152999992,163.06119799999942,163.26168509999843,2,1,0.2891012000000046,163.06119799999942,None,None,None,False,None,None,None,None,None,None,None,None,None,None,None,None,,,,,,,,,,,,,,,,,,,,,,,,,,,,,,AG05AS29,1,0x5FB8,D:\CoScience\Logfiles\,2022_Mar_17_1252,Flanker,2020.1.3,59.97710074312637,
HHH HHH,HHHHHHH,30,H,,,,,,,,,0,0,0,0,3,5,41,10,,,,,,,0.9891467684634988,164.66533359999994,None,2,,,,,,,,,,,,,134,130,137,164.26139299999886,164.36147729999902,164.34498969999913,164.5446835999992,2,1,0.29917399999976624,164.34498969999913,None,None,None,False,None,None,None,None,None,None,None,None,None,None,None,None,,,,,,,,,,,,,,,,,,,,,,,,,,,,,,AG05AS29,1,0x5FB8,D:\CoScience\Logfiles\,2022_Mar_17_1252,Flanker,2020.1.3,59.97710074312637,
SSS SSS,SSSSSSS,30,S,,,,,,,,,0,0,0,0,3,6,42,5,,,,,,,0.9943873054109911,166.0818352999995,None,4,,,,,,,,,,,,,134,130,137,165.66358479999872,165.77820839999913,165.76157929999863,165.96162079999885,4,1,0.2937429000012344,165.76157929999863,None,None,None,False,None,None,None,None,None,None,None,None,None,None,None,None,,,,,,,,,,,,,,,,,,,,,,,,,,,,,,AG05AS29,1,0x5FB8,D:\CoScience\Logfiles\,2022_Mar_17_1252,Flanker,2020.1.3,59.97710074312637,
SSH HSS,SSHHHSS,10,H,,,,,,,,,0,0,0,0,3,7,43,7,,,,,,,0.9748554190854336,167.54864649999945,None,2,,,,,,,,,,,,,114,110,117,167.0794406999994,167.17836559999887,167.17836559999887,167.37777180000012,2,1,0.3518852999986848,167.17836559999887,None,None,None,False,None,None,None,None,None,None,None,None,None,None,None,None,,,,,,,,,,,,,,,,,,,,,,,,,,,,,,AG05AS29,1,0x5FB8,D:\CoScience\Logfiles\,2022_Mar_17_1252,Flanker,2020.1.3,59.97710074312637,
HHS SHH,HHSSSHH,10,S,,,,,,,,,0,0,0,0,3,8,44,1,,,,,,,0.7932362037698816,169.04866559999937,None,4,,,,,,,,,,,,,114,110,117,168.52872149999894,168.6282511999998,168.6282511999998,168.8280223999991,4,1,0.39736049999919487,168.6282511999998,None,None,None,False,None,None,None,None,None,None,None,None,None,None,None,None,,,,,,,,,,,,,,,,,,,,,,,,,,,,,,AG05AS29,1,0x5FB8,D:\CoScience\Logfiles\,2022_Mar_17_1252,Flanker,2020.1.3,59.97710074312637,
SHH HHS,SHHHHHS,20,H,,,,,,,,,0,0,0,0,3,9,45,8,,,,,,,0.8152732563522636,170.33187240000007,None,2,,,,,,,,,,,,,124,120,127,169.84690729999966,169.96149699999842,169.9450356999987,170.14494099999865,2,1,0.36022480000065116,169.9450356999987,None,None,None,False,None,None,None,None,None,None,None,None,None,None,None,None,,,,,,,,,,,,,,,,,,,,,,,,,,,,,,AG05AS29,1,0x5FB8,D:\CoScience\Logfiles\,2022_Mar_17_1252,Flanker,2020.1.3,59.97710074312637,
HSS SSH,HSSSSSH,20,S,,,,,,,,,0,0,0,0,3,10,46,2,,,,,,,0.915907888872313,171.59828959999868,None,4,,,,,,,,,,,,,124,120,127,171.16368249999869,171.27821849999964,171.26165799999944,171.4616866999986,4,1,0.31393150000076275,171.26165799999944,None,None,None,False,None,None,None,None,None,None,None,None,None,None,None,None,,,,,,,,,,,,,,,,,,,,,,,,,,,,,,AG05AS29,1,0x5FB8,D:\CoScience\Logfiles\,2022_Mar_17_1252,Flanker,2020.1.3,59.97710074312637,
HHH HHH,HHHHHHH,30,H,,,,,,,,,0,0,0,0,3,11,47,10,,,,,,,0.8896440136254427,173.098534499999,None,2,,,,,,,,,,,,,134,130,137,172.5303241999991,172.64489519999916,172.62825650000013,172.82830250000006,2,1,0.43891379999877245,172.62825650000013,None,None,None,False,None,None,None,None,None,None,None,None,None,None,None,None,,,,,,,,,,,,,,,,,,,,,,,,,,,,,,AG05AS29,1,0x5FB8,D:\CoScience\Logfiles\,2022_Mar_17_1252,Flanker,2020.1.3,59.97710074312637,
HHS SHH,HHSSSHH,10,S,,,,,,,,,0,0,0,0,4,0,48,1,,,,,,,0.7767782371672299,174.4820069999987,None,4,,,,,,,,,,,,,114,110,117,173.9961586999998,174.1114437999986,174.09494799999993,174.2949813999985,4,1,0.36221539999860397,174.09494799999993,None,None,None,False,None,None,None,None,None,None,None,None,None,None,None,None,,,,,,,,,,,,,,,,,,,,,,,,,,,,,,AG05AS29,1,0x5FB8,D:\CoScience\Logfiles\,2022_Mar_17_1252,Flanker,2020.1.3,59.97710074312637,
HHS SHH,HHSSSHH,10,S,,,,,,,,,0,0,0,0,4,1,49,1,,,,,,,0.930260568793104,175.7316355999992,None,4,,,,,,,,,,,,,114,110,117,175.26148889999968,175.36152459999903,175.3449359999995,175.54492049999863,4,1,0.3622469000001729,175.3449359999995,None,None,None,False,None,None,None,None,None,None,None,None,None,None,None,None,,,,,,,,,,,,,,,,,,,,,,,,,,,,,,AG05AS29,1,0x5FB8,D:\CoScience\Logfiles\,2022_Mar_17_1252,Flanker,2020.1.3,59.97710074312637,
HHH HHH,HHHSHHH,0,S,,,,,,,,,0,0,0,0,4,2,50,0,,,,,,,0.8681021862662703,177.23199569999997,None,4,,,,,,,,,,,,,104,100,107,176.6626727999992,176.76172760000009,176.76172760000009,176.96166169999924,4,1,0.44690579999951296,176.76172760000009,None,None,None,False,None,None,None,None,None,None,None,None,None,None,None,None,,,,,,,,,,,,,,,,,,,,,,,,,,,,,,AG05AS29,1,0x5FB8,D:\CoScience\Logfiles\,2022_Mar_17_1252,Flanker,2020.1.3,59.97710074312637,
HHH HHH,HHHSHHH,0,S,,,,,,,,,0,0,0,0,4,3,51,0,,,,,,,0.845281573782234,178.54861939999864,None,4,,,,,,,,,,,,,104,100,107,178.11146439999902,178.21155699999872,178.1949671000002,178.3949933999993,4,1,0.3311872000012954,178.1949671000002,None,None,None,False,None,None,None,None,None,None,None,None,None,None,None,None,,,,,,,,,,,,,,,,,,,,,,,,,,,,,,AG05AS29,1,0x5FB8,D:\CoScience\Logfiles\,2022_Mar_17_1252,Flanker,2020.1.3,59.97710074312637,
SSH HSS,SSHHHSS,10,H,,,,,,,,,0,0,0,0,4,4,52,7,,,,,,,0.75384573320054,179.84824149999986,None,2,,,,,,,,,,,,,114,110,117,179.39695369999936,179.51150499999858,179.4949971999995,179.69456079999873,2,1,0.32229740000002494,179.4949971999995,None,None,None,False,None,None,None,None,None,None,None,None,None,None,None,None,,,,,,,,,,,,,,,,,,,,,,,,,,,,,,AG05AS29,1,0x5FB8,D:\CoScience\Logfiles\,2022_Mar_17_1252,Flanker,2020.1.3,59.97710074312637,
HHS SHH,HHSSSHH,10,S,,,,,,,,,0,0,0,0,4,5,53,1,,,,,,,0.8807998242426291,181.0317469999991,None,4,,,,,,,,,,,,,114,110,117,180.61263729999882,180.72776019999947,180.71162269999877,180.91160489999857,4,1,0.29258240000126534,180.71162269999877,None,None,None,False,None,None,None,None,None,None,None,None,None,None,None,None,,,,,,,,,,,,,,,,,,,,,,,,,,,,,,AG05AS29,1,0x5FB8,D:\CoScience\Logfiles\,2022_Mar_17_1252,Flanker,2020.1.3,59.97710074312637,
HHH HHH,HHHSHHH,0,S,,,,,,,,,0,0,0,0,4,6,54,0,,,,,,,0.8418772483699619,182.3983537999993,None,4,,,,,,,,,,,,,104,100,107,181.91295939999873,182.02807849999954,182.01167159999932,182.21155499999986,4,1,0.36247329999969224,182.01167159999932,None,None,None,False,None,None,None,None,None,None,None,None,None,None,None,None,,,,,,,,,,,,,,,,,,,,,,,,,,,,,,AG05AS29,1,0x5FB8,D:\CoScience\Logfiles\,2022_Mar_17_1252,Flanker,2020.1.3,59.97710074312637,
SSS SSS,SSSSSSS,30,S,,,,,,,,,0,0,0,0,4,7,55,3,,,,,,,0.7648280628510504,183.66534479999973,None,4,,,,,,,,,,,,,134,130,137,183.2459906999993,183.36151059999975,183.34484239999983,183.54499439999927,4,1,0.2993153000006714,183.34484239999983,None,None,None,False,None,None,None,None,None,None,None,None,None,None,None,None,,,,,,,,,,,,,,,,,,,,,,,,,,,,,,AG05AS29,1,0x5FB8,D:\CoScience\Logfiles\,2022_Mar_17_1252,Flanker,2020.1.3,59.97710074312637,
SSS SSS,SSSSSSS,30,S,,,,,,,,,0,0,0,0,4,8,56,3,,,,,,,0.8221567954808817,184.8650691999992,None,4,,,,,,,,,,,,,134,130,137,184.44472589999896,184.5447690000001,184.52827489999981,184.72822409999935,4,1,0.31001479999940784,184.52827489999981,None,None,None,False,None,None,None,None,None,None,None,None,None,None,None,None,,,,,,,,,,,,,,,,,,,,,,,,,,,,,,AG05AS29,1,0x5FB8,D:\CoScience\Logfiles\,2022_Mar_17_1252,Flanker,2020.1.3,59.97710074312637,
HHH HHH,HHHHHHH,30,H,,,,,,,,,0,0,0,0,4,9,57,9,,,,,,,0.8651518047510885,186.1818661999987,None,2,,,,,,,,,,,,,134,130,137,185.6968808999991,185.8108457999988,185.7941815999984,185.99499829999877,2,1,0.35816650000015215,185.7941815999984,None,None,None,False,None,None,None,None,None,None,None,None,None,None,None,None,,,,,,,,,,,,,,,,,,,,,,,,,,,,,,AG05AS29,1,0x5FB8,D:\CoScience\Logfiles\,2022_Mar_17_1252,Flanker,2020.1.3,59.97710074312637,
HHH HHH,HHHHHHH,30,H,,,,,,,,,0,0,0,0,4,10,58,10,,,,,,,0.8479733633199665,187.48180649999995,None,2,,,,,,,,,,,,,134,130,137,187.06144069999937,187.16151609999906,187.14504269999998,187.34496359999866,2,1,0.30211770000096294,187.14504269999998,None,None,None,False,None,None,None,None,None,None,None,None,None,None,None,None,,,,,,,,,,,,,,,,,,,,,,,,,,,,,,AG05AS29,1,0x5FB8,D:\CoScience\Logfiles\,2022_Mar_17_1252,Flanker,2020.1.3,59.97710074312637,
SHH HHS,SHHHHHS,20,H,,,,,,,,,0,0,0,0,4,11,59,8,,,,,,,0.9210075339556382,188.74853829999847,None,2,,,,,,,,,,,,,124,120,127,188.34607539999888,188.4615560000002,188.4448493,188.6448693000002,2,1,0.27346720000059577,188.4448493,None,None,None,False,None,None,None,None,None,None,None,None,None,None,None,None,,,,,,,,,,,,,,,,,,,,,,,,,,,,,,AG05AS29,1,0x5FB8,D:\CoScience\Logfiles\,2022_Mar_17_1252,Flanker,2020.1.3,59.97710074312637,
SHH HHS,SHHHHHS,20,H,,,,,,,,,0,0,0,0,5,0,60,8,,,,,,,0.8419848388432947,190.04849680000007,None,2,,,,,,,,,,,,,124,120,127,189.67813269999897,189.77809809999962,189.7616109999999,189.9615393999993,2,1,0.2586275999983627,189.7616109999999,None,None,None,False,None,None,None,None,None,None,None,None,None,None,None,None,,,,,,,,,,,,,,,,,,,,,,,,,,,,,,AG05AS29,1,0x5FB8,D:\CoScience\Logfiles\,2022_Mar_17_1252,Flanker,2020.1.3,59.97710074312637,
HSS SSH,HSSSSSH,20,S,,,,,,,,,0,0,0,0,5,1,61,2,,,,,,,0.8869641759956644,191.34812349999993,None,4,,,,,,,,,,,,,124,120,127,190.89669669999967,191.01159740000003,190.99494979999872,191.19502699999975,4,1,0.33344059999944875,190.99494979999872,None,None,None,False,None,None,None,None,None,None,None,None,None,None,None,None,,,,,,,,,,,,,,,,,,,,,,,,,,,,,,AG05AS29,1,0x5FB8,D:\CoScience\Logfiles\,2022_Mar_17_1252,Flanker,2020.1.3,59.97710074312637,
SSS SSS,SSSHSSS,0,H,,,,,,,,,0,0,0,0,5,2,62,6,,,,,,,0.8828570101723967,192.68185639999865,None,2,,,,,,,,,,,,,104,100,107,192.24593709999863,192.34494059999997,192.34494059999997,192.54492009999922,2,1,0.30723070000021835,192.34494059999997,None,None,None,False,None,None,None,None,None,None,None,None,None,None,None,None,,,,,,,,,,,,,,,,,,,,,,,,,,,,,,AG05AS29,1,0x5FB8,D:\CoScience\Logfiles\,2022_Mar_17_1252,Flanker,2020.1.3,59.97710074312637,
HHH HHH,HHHHHHH,30,H,,,,,,,,,0,0,0,0,5,3,63,11,,,,,,,0.8685227325506402,194.0150251999985,None,2,,,,,,,,,,,,,134,130,137,193.57936039999913,193.6947911999996,193.67823289999978,193.87828239999908,2,1,0.31609690000004775,193.67823289999978,None,None,None,False,None,None,None,None,None,None,None,None,None,None,None,None,,,,,,,,,,,,,,,,,,,,,,,,,,,,,,AG05AS29,1,0x5FB8,D:\CoScience\Logfiles\,2022_Mar_17_1252,Flanker,2020.1.3,59.97710074312637,
HHH HHH,HHHSHHH,0,S,,,,,,,,,0,0,0,0,5,4,64,0,,,,,,,0.8564299443310508,195.41523289999895,None,4,,,,,,,,,,,,,104,100,107,194.8957515000002,194.9949459999989,194.9949459999989,195.1949096999997,4,1,0.39327010000124574,194.9949459999989,None,None,None,False,None,None,None,None,None,None,None,None,None,None,None,None,,,,,,,,,,,,,,,,,,,,,,,,,,,,,,AG05AS29,1,0x5FB8,D:\CoScience\Logfiles\,2022_Mar_17_1252,Flanker,2020.1.3,59.97710074312637,
SSS SSS,SSSSSSS,30,S,,,,,,,,,0,0,0,0,5,5,65,4,,,,,,,0.8104041720565611,196.76518729999952,None,4,,,,,,,,,,,,,134,130,137,196.2786202999996,196.37809519999973,196.36155340000005,196.56158119999964,4,1,0.3695764000003692,196.36155340000005,None,None,None,False,None,None,None,None,None,None,None,None,None,None,None,None,,,,,,,,,,,,,,,,,,,,,,,,,,,,,,AG05AS29,1,0x5FB8,D:\CoScience\Logfiles\,2022_Mar_17_1252,Flanker,2020.1.3,59.97710074312637,
HHS SHH,HHSSSHH,10,S,,,,,,,,,0,0,0,0,5,6,66,1,,,,,,,0.8745668268597133,198.0145980999987,None,4,,,,,,,,,,,,,114,110,117,197.57876579999902,197.67811679999977,197.66159819999848,197.8615919999993,4,1,0.3246761999998853,197.66159819999848,None,None,None,False,None,None,None,None,None,None,None,None,None,None,None,None,,,,,,,,,,,,,,,,,,,,,,,,,,,,,,AG05AS29,1,0x5FB8,D:\CoScience\Logfiles\,2022_Mar_17_1252,Flanker,2020.1.3,59.97710074312637,
SSH HSS,SSHHHSS,10,H,,,,,,,,,0,0,0,0,5,7,67,7,,,,,,,0.9026629534989608,199.31510960000014,None,2,,,,,,,,,,,,,114,110,117,198.89694859999872,199.0111227999987,198.99435399999857,199.19481689999884,2,1,0.299770499999795,198.99435399999857,None,None,None,False,None,None,None,None,None,None,None,None,None,None,None,None,,,,,,,,,,,,,,,,,,,,,,,,,,,,,,AG05AS29,1,0x5FB8,D:\CoScience\Logfiles\,2022_Mar_17_1252,Flanker,2020.1.3,59.97710074312637,
HHS SHH,HHSSSHH,10,S,,,,,,,,,0,0,0,0,5,8,68,1,,,,,,,0.8704480824826106,200.68265599999904,None,4,,,,,,,,,,,,,114,110,117,200.24268949999896,200.34489289999874,200.32825199999934,200.52828039999986,4,1,0.33399439999993774,200.32825199999934,None,None,None,False,None,None,None,None,None,None,None,None,None,None,None,None,,,,,,,,,,,,,,,,,,,,,,,,,,,,,,AG05AS29,1,0x5FB8,D:\CoScience\Logfiles\,2022_Mar_17_1252,Flanker,2020.1.3,59.97710074312637,
SSS SSS,SSSSSSS,30,S,,,,,,,,,0,0,0,0,5,9,69,4,,,,,,,0.7922030002986469,201.96513199999936,None,4,,,,,,,,,,,,,134,130,137,201.56174509999983,201.66141789999892,201.64487219999864,201.84484519999933,4,1,0.28625109999848064,201.64487219999864,None,None,None,False,None,None,None,None,None,None,None,None,None,None,None,None,,,,,,,,,,,,,,,,,,,,,,,,,,,,,,AG05AS29,1,0x5FB8,D:\CoScience\Logfiles\,2022_Mar_17_1252,Flanker,2020.1.3,59.97710074312637,
SHH HHS,SHHHHHS,20,H,,,,,,,,,0,0,0,0,5,10,70,8,,,,,,,0.7504314178599157,203.2151389999999,None,2,,,,,,,,,,,,,124,120,127,202.7619440999988,202.8615725999989,202.84489810000014,203.0448665999993,2,1,0.3454841000002489,202.84489810000014,None,None,None,False,None,None,None,None,None,None,None,None,None,None,None,None,,,,,,,,,,,,,,,,,,,,,,,,,,,,,,AG05AS29,1,0x5FB8,D:\CoScience\Logfiles\,2022_Mar_17_1252,Flanker,2020.1.3,59.97710074312637,
HHH HHH,HHHHHHH,30,H,,,,,,,,,0,0,0,0,5,11,71,9,,,,,,,0.9296040892570198,204.46450989999903,None,2,,,,,,,,,,,,,134,130,137,203.97934649999843,204.09470409999994,204.07817299999988,204.27814599999874,2,1,0.36194760000034876,204.07817299999988,None,None,None,False,None,None,None,None,None,None,None,None,None,None,None,None,,,,,,,,,,,,,,,,,,,,,,,,,,,,,,AG05AS29,1,0x5FB8,D:\CoScience\Logfiles\,2022_Mar_17_1252,Flanker,2020.1.3,59.97710074312637,
SSS SSS,SSSSSSS,30,S,,,,,,,,,0,0,0,0,6,0,72,5,,,,,,,0.9879794413205432,205.88195799999994,None,4,,,,,,,,,,,,,134,130,137,205.3956896999989,205.49487469999985,205.49487469999985,205.69487859999936,4,1,0.3543308000007528,205.49487469999985,None,None,None,False,None,None,None,None,None,None,None,None,None,None,None,None,,,,,,,,,,,,,,,,,,,,,,,,,,,,,,AG05AS29,1,0x5FB8,D:\CoScience\Logfiles\,2022_Mar_17_1252,Flanker,2020.1.3,59.97710074312637,
HHH HHH,HHHHHHH,30,H,,,,,,,,,0,0,0,0,6,1,73,9,,,,,,,0.969048481121551,207.36513509999895,None,2,,,,,,,,,,,,,134,130,137,206.87867939999887,206.97819479999998,206.96156679999876,207.16158240000004,2,1,0.3785342999999557,206.96156679999876,None,None,None,False,None,None,None,None,None,None,None,None,None,None,None,None,,,,,,,,,,,,,,,,,,,,,,,,,,,,,,AG05AS29,1,0x5FB8,D:\CoScience\Logfiles\,2022_Mar_17_1252,Flanker,2020.1.3,59.97710074312637,
SSS SSS,SSSSSSS,30,S,,,,,,,,,0,0,0,0,6,2,74,3,,,,,,,0.9332025961891103,208.86502010000004,None,4,,,,,,,,,,,,,134,130,137,208.34640239999862,208.4613094999986,208.4449850000001,208.64489849999882,4,1,0.3942047000000457,208.4449850000001,None,None,None,False,None,None,None,None,None,None,None,None,None,None,None,None,,,,,,,,,,,,,,,,,,,,,,,,,,,,,,AG05AS29,1,0x5FB8,D:\CoScience\Logfiles\,2022_Mar_17_1252,Flanker,2020.1.3,59.97710074312637,
HHS SHH,HHSSSHH,10,S,,,,,,,,,0,0,0,0,6,3,75,1,,,,,,,0.8373088519939116,210.2645808999987,None,4,,,,,,,,,,,,,114,110,117,209.81314799999927,209.92818669999906,209.91163309999865,210.11150889999954,4,1,0.3226629000000685,209.91163309999865,None,None,None,False,None,None,None,None,None,None,None,None,None,None,None,None,,,,,,,,,,,,,,,,,,,,,,,,,,,,,,AG05AS29,1,0x5FB8,D:\CoScience\Logfiles\,2022_Mar_17_1252,Flanker,2020.1.3,59.97710074312637,
HHH HHH,HHHSHHH,0,S,,,,,,,,,0,0,0,0,6,4,76,0,,,,,,,0.8586388189272699,211.53202559999954,None,4,,,,,,,,,,,,,104,100,109,211.11241879999943,211.21161699999902,211.21161699999902,211.41164579999895,2,0,0.2875114999988,211.21161699999902,None,None,None,False,None,None,None,None,None,None,None,None,None,None,None,None,,,,,,,,,,,,,,,,,,,,,,,,,,,,,,AG05AS29,1,0x5FB8,D:\CoScience\Logfiles\,2022_Mar_17_1252,Flanker,2020.1.3,59.97710074312637,
HSS SSH,HSSSSSH,20,S,,,,,,,,,0,0,0,0,6,5,77,2,,,,,,,0.9518054529567561,214.09416249999958,None,4,,,,,,,,,,,,,124,120,126,212.39597559999856,212.5113954999997,212.49488459999884,212.69489029999932,4,1,0.5613615000002028,212.49488459999884,None,213.08507199999985,None,False,None,None,None,None,None,None,None,None,None,None,None,None,,,,,,,,,,,,,,,,,,,,,,,,,,,,,,AG05AS29,1,0x5FB8,D:\CoScience\Logfiles\,2022_Mar_17_1252,Flanker,2020.1.3,59.97710074312637,
SSS SSS,SSSSSSS,30,S,,,,,,,,,0,0,0,0,6,6,78,5,,,,,,,0.8716102790879393,215.4818925999989,None,4,,,,,,,,,,,,,134,130,137,215.07611339999858,215.17813260000003,215.16164769999887,215.36156329999903,4,1,0.28844719999869994,215.16164769999887,None,None,None,False,None,None,None,None,None,None,None,None,None,None,None,None,,,,,,,,,,,,,,,,,,,,,,,,,,,,,,AG05AS29,1,0x5FB8,D:\CoScience\Logfiles\,2022_Mar_17_1252,Flanker,2020.1.3,59.97710074312637,
SSH HSS,SSHHHSS,10,H,,,,,,,,,0,0,0,0,6,7,79,7,,,,,,,0.9745304566609749,216.74818849999974,None,2,,,,,,,,,,,,,114,110,119,216.36270879999938,216.47813119999955,216.461505199999,216.66157879999992,4,0,0.25454589999935706,216.461505199999,None,None,None,False,None,None,None,None,None,None,None,None,None,None,None,None,,,,,,,,,,,,,,,,,,,,,,,,,,,,,,AG05AS29,1,0x5FB8,D:\CoScience\Logfiles\,2022_Mar_17_1252,Flanker,2020.1.3,59.97710074312637,
SSS SSS,SSSHSSS,0,H,,,,,,,,,0,0,0,0,6,8,80,6,,,,,,,0.9349490661875107,218.0985475999987,None,2,,,,,,,,,,,,,104,100,109,217.7278538999999,217.82815990000017,217.81157709999934,218.0114692999996,4,0,0.2645246000010957,217.81157709999934,None,None,None,False,None,None,None,None,None,None,None,None,None,None,None,None,,,,,,,,,,,,,,,,,,,,,,,,,,,,,,AG05AS29,1,0x5FB8,D:\CoScience\Logfiles\,2022_Mar_17_1252,Flanker,2020.1.3,59.97710074312637,
HHS SHH,HHSSSHH,10,S,,,,,,,,,0,0,0,0,6,9,81,1,,,,,,,0.9926017101300373,220.71090139999978,None,4,,,,,,,,,,,,,114,110,116,219.0465164999987,219.16147519999868,219.14493419999962,219.34493689999908,4,1,0.5281880000002275,219.14493419999962,None,219.7008926999988,None,False,None,None,None,None,None,None,None,None,None,None,None,None,,,,,,,,,,,,,,,,,,,,,,,,,,,,,,AG05AS29,1,0x5FB8,D:\CoScience\Logfiles\,2022_Mar_17_1252,Flanker,2020.1.3,59.97710074312637,
HSS SSH,HSSSSSH,20,S,,,,,,,,,0,0,0,0,6,10,82,2,,,,,,,0.8152721918827464,222.14852959999916,None,4,,,,,,,,,,,,,124,120,127,221.71351700000014,221.82814580000013,221.81152159999874,222.01155729999846,4,1,0.31455779999851075,221.81152159999874,None,None,None,False,None,None,None,None,None,None,None,None,None,None,None,None,,,,,,,,,,,,,,,,,,,,,,,,,,,,,,AG05AS29,1,0x5FB8,D:\CoScience\Logfiles\,2022_Mar_17_1252,Flanker,2020.1.3,59.97710074312637,
SSS SSS,SSSSSSS,30,S,,,,,,,,,0,0,0,0,6,11,83,5,,,,,,,0.9390909512664671,223.41506069999923,None,4,,,,,,,,,,,,,134,130,137,222.97900239999944,223.09435979999944,223.07784209999954,223.2782215999996,4,1,0.3113188999996055,223.07784209999954,None,None,None,False,None,None,None,None,None,None,None,None,None,None,None,None,,,,,,,,,,,,,,,,,,,,,,,,,,,,,,AG05AS29,1,0x5FB8,D:\CoScience\Logfiles\,2022_Mar_17_1252,Flanker,2020.1.3,59.97710074312637,
SSS SSS,SSSSSSS,30,S,,,,,,,,,0,0,0,0,7,0,84,4,,,,,,,0.9435173572427396,224.781487799999,None,4,,,,,,,,,,,,,134,130,137,224.3613332999994,224.46146699999917,224.44479709999905,224.6447816,4,1,0.3122964000012871,224.44479709999905,None,None,None,False,None,None,None,None,None,None,None,None,None,None,None,None,,,,,,,,,,,,,,,,,,,,,,,,,,,,,,AG05AS29,1,0x5FB8,D:\CoScience\Logfiles\,2022_Mar_17_1252,Flanker,2020.1.3,59.97710074312637,
SSH HSS,SSHHHSS,10,H,,,,,,,,,0,0,0,0,7,1,85,7,,,,,,,0.8913786202437218,226.28190089999953,None,2,,,,,,,,,,,,,114,110,117,225.72934079999868,225.8448073999989,225.82818659999975,226.02817499999946,2,1,0.4280046999992919,225.82818659999975,None,None,None,False,None,None,None,None,None,None,None,None,None,None,None,None,,,,,,,,,,,,,,,,,,,,,,,,,,,,,,AG05AS29,1,0x5FB8,D:\CoScience\Logfiles\,2022_Mar_17_1252,Flanker,2020.1.3,59.97710074312637,
HHH HHH,HHHHHHH,30,H,,,,,,,,,0,0,0,0,7,2,86,9,,,,,,,0.8092499215021993,227.63168739999855,None,2,,,,,,,,,,,,,134,130,137,227.17940649999946,227.29477609999958,227.27824119999968,227.47814279999875,2,1,0.33295989999896847,227.27824119999968,None,None,None,False,None,None,None,None,None,None,None,None,None,None,None,None,,,,,,,,,,,,,,,,,,,,,,,,,,,,,,AG05AS29,1,0x5FB8,D:\CoScience\Logfiles\,2022_Mar_17_1252,Flanker,2020.1.3,59.97710074312637,
SSS SSS,SSSHSSS,0,H,,,,,,,,,0,0,0,0,7,3,87,6,,,,,,,0.7840134159794987,230.09403959999872,None,2,,,,,,,,,,,,,104,100,106,228.4461214999992,228.56140849999974,228.54487419999896,228.74441709999883,2,1,0.5115306999996392,228.54487419999896,None,229.0842002999998,None,False,None,None,None,None,None,None,None,None,None,None,None,None,,,,,,,,,,,,,,,,,,,,,,,,,,,,,,AG05AS29,1,0x5FB8,D:\CoScience\Logfiles\,2022_Mar_17_1252,Flanker,2020.1.3,59.97710074312637,
SSS SSS,SSSHSSS,0,H,,,,,,,,,0,0,0,0,7,4,88,6,,,,,,,0.9688890925304499,231.34802599999966,None,2,,,,,,,,,,,,,104,100,107,230.8780053999999,230.9771012000001,230.960823899999,231.1614998999994,2,1,0.3555603000004339,230.960823899999,None,None,None,False,None,None,None,None,None,None,None,None,None,None,None,None,,,,,,,,,,,,,,,,,,,,,,,,,,,,,,AG05AS29,1,0x5FB8,D:\CoScience\Logfiles\,2022_Mar_17_1252,Flanker,2020.1.3,59.97710074312637,
SSS SSS,SSSSSSS,30,S,,,,,,,,,0,0,0,0,7,5,89,5,,,,,,,0.989820951251225,232.73184089999995,None,4,,,,,,,,,,,,,134,130,137,232.32875859999876,232.4280663999998,232.41161739999916,232.61154069999975,4,1,0.29155010000067705,232.41161739999916,None,None,None,False,None,None,None,None,None,None,None,None,None,None,None,None,,,,,,,,,,,,,,,,,,,,,,,,,,,,,,AG05AS29,1,0x5FB8,D:\CoScience\Logfiles\,2022_Mar_17_1252,Flanker,2020.1.3,59.97710074312637,
HHH HHH,HHHHHHH,30,H,,,,,,,,,0,0,0,0,7,6,90,9,,,,,,,0.9435352742981578,234.2484827999997,None,2,,,,,,,,,,,,,134,130,137,233.72925079999914,233.84480780000013,233.82816029999958,234.02782729999853,2,1,0.3909176999986812,233.82816029999958,None,None,None,False,None,None,None,None,None,None,None,None,None,None,None,None,,,,,,,,,,,,,,,,,,,,,,,,,,,,,,AG05AS29,1,0x5FB8,D:\CoScience\Logfiles\,2022_Mar_17_1252,Flanker,2020.1.3,59.97710074312637,
HHH HHH,HHHHHHH,30,H,,,,,,,,,0,0,0,0,7,7,91,10,,,,,,,0.8429065548739056,235.68175100000008,None,2,,,,,,,,,,,,,134,130,137,235.19469779999963,235.29387339999994,235.27825799999846,235.47781749999922,2,1,0.3805346000008285,235.27825799999846,None,None,None,False,None,None,None,None,None,None,None,None,None,None,None,None,,,,,,,,,,,,,,,,,,,,,,,,,,,,,,AG05AS29,1,0x5FB8,D:\CoScience\Logfiles\,2022_Mar_17_1252,Flanker,2020.1.3,59.97710074312637,
SSS SSS,SSSHSSS,0,H,,,,,,,,,0,0,0,0,7,8,92,6,,,,,,,0.9422487625622896,236.94828400000006,None,2,,,,,,,,,,,,,104,100,107,236.52925479999976,236.6447064999993,236.62804829999914,236.82822769999984,2,1,0.29209439999976894,236.62804829999914,None,None,None,False,None,None,None,None,None,None,None,None,None,None,None,None,,,,,,,,,,,,,,,,,,,,,,,,,,,,,,AG05AS29,1,0x5FB8,D:\CoScience\Logfiles\,2022_Mar_17_1252,Flanker,2020.1.3,59.97710074312637,
SHH HHS,SHHHHHS,20,H,,,,,,,,,0,0,0,0,7,9,93,8,,,,,,,0.9317994832249146,238.29871920000005,None,2,,,,,,,,,,,,,124,120,127,237.89603649999844,238.0114582999995,237.99479209999845,238.19483769999897,2,1,0.27327080000031856,237.99479209999845,None,None,None,False,None,None,None,None,None,None,None,None,None,None,None,None,,,,,,,,,,,,,,,,,,,,,,,,,,,,,,AG05AS29,1,0x5FB8,D:\CoScience\Logfiles\,2022_Mar_17_1252,Flanker,2020.1.3,59.97710074312637,
SSS SSS,SSSHSSS,0,H,,,,,,,,,0,0,0,0,7,10,94,6,,,,,,,0.8878530499243071,239.7147733999991,None,2,,,,,,,,,,,,,104,100,107,239.2460708999988,239.36144909999894,239.34495799999968,239.5447777999998,2,1,0.3504470999996556,239.34495799999968,None,None,None,False,None,None,None,None,None,None,None,None,None,None,None,None,,,,,,,,,,,,,,,,,,,,,,,,,,,,,,AG05AS29,1,0x5FB8,D:\CoScience\Logfiles\,2022_Mar_17_1252,Flanker,2020.1.3,59.97710074312637,
SSS SSS,SSSSSSS,30,S,,,,,,,,,0,0,0,0,7,11,95,3,,,,,,,0.9061640913408311,289.27815929999997,None,4,,,,,,,,,,,,,134,130,137,240.6124295999998,240.71144339999955,240.69484639999973,240.89489159999903,4,1,0.3505506000001333,240.69484639999973,None,None,None,False,None,None,None,None,None,241.07025579999936,None,space,243.06159279999883,None,289.17889229999855,None,46.10055680000005,,,,,,,,,,,,,,,,,,,,,,,,,,,,,AG05AS29,1,0x5FB8,D:\CoScience\Logfiles\,2022_Mar_17_1252,Flanker,2020.1.3,59.97710074312637,
HSS SSH,HSSSSSH,20,S,,,,,,,,,0,0,0,0,8,0,96,2,,,,,,,0.8925845017689937,290.66466839999885,None,4,,,,,,,,,,,,,124,120,129,290.1960801999994,290.3110265999985,290.2948519999991,290.49427809999906,2,0,0.3502988000000187,290.2948519999991,None,None,None,False,None,None,None,None,None,None,None,None,None,None,None,None,,,,,,,,,,,,,,,,,,,,,,,,,,,,,,AG05AS29,1,0x5FB8,D:\CoScience\Logfiles\,2022_Mar_17_1252,Flanker,2020.1.3,59.97710074312637,
SHH HHS,SHHHHHS,20,H,,,,,,,,,0,0,0,0,8,1,97,8,,,,,,,0.9062925123808832,292.04489509999985,None,2,,,,,,,,,,,,,124,120,129,291.5626967999997,291.6781347999986,291.66148129999965,291.8615403999993,4,0,0.35569350000150735,291.66148129999965,None,None,None,False,None,None,None,None,None,None,None,None,None,None,None,None,,,,,,,,,,,,,,,,,,,,,,,,,,,,,,AG05AS29,1,0x5FB8,D:\CoScience\Logfiles\,2022_Mar_17_1252,Flanker,2020.1.3,59.97710074312637,
HHS SHH,HHSSSHH,10,S,,,,,,,,,0,0,0,0,8,2,98,1,,,,,,,0.7621204128464629,293.43212700000004,None,4,,,,,,,,,,,,,114,110,117,292.96161839999877,293.0613646999991,293.0448211999992,293.24480140000014,4,1,0.36711950000062643,293.0448211999992,None,None,None,False,None,None,None,None,None,None,None,None,None,None,None,None,,,,,,,,,,,,,,,,,,,,,,,,,,,,,,AG05AS29,1,0x5FB8,D:\CoScience\Logfiles\,2022_Mar_17_1252,Flanker,2020.1.3,59.97710074312637,
HHH HHH,HHHHHHH,30,H,,,,,,,,,0,0,0,0,8,3,99,11,,,,,,,0.7514820425456294,294.6113792999986,None,2,,,,,,,,,,,,,134,130,137,294.19566569999915,294.29486949999955,294.29486949999955,294.49478069999896,2,1,0.2860829000001104,294.29486949999955,None,None,None,False,None,None,None,None,None,None,None,None,None,None,None,None,,,,,,,,,,,,,,,,,,,,,,,,,,,,,,AG05AS29,1,0x5FB8,D:\CoScience\Logfiles\,2022_Mar_17_1252,Flanker,2020.1.3,59.97710074312637,
SSS SSS,SSSSSSS,30,S,,,,,,,,,0,0,0,0,8,4,100,3,,,,,,,0.8425380858186939,295.8816775999985,None,4,,,,,,,,,,,,,134,130,137,295.37891820000004,295.4780985999987,295.4780985999987,295.6780237999992,4,1,0.38105109999924025,295.4780985999987,None,None,None,False,None,None,None,None,None,None,None,None,None,None,None,None,,,,,,,,,,,,,,,,,,,,,,,,,,,,,,AG05AS29,1,0x5FB8,D:\CoScience\Logfiles\,2022_Mar_17_1252,Flanker,2020.1.3,59.97710074312637,
HSS SSH,HSSSSSH,20,S,,,,,,,,,0,0,0,0,8,5,101,2,,,,,,,0.9308210154069174,297.13101800000004,None,4,,,,,,,,,,,,,124,120,127,296.7290987999986,296.8280109999996,296.8280109999996,297.02799739999864,4,1,0.278064699999959,296.8280109999996,None,None,None,False,None,None,None,None,None,None,None,None,None,None,None,None,,,,,,,,,,,,,,,,,,,,,,,,,,,,,,AG05AS29,1,0x5FB8,D:\CoScience\Logfiles\,2022_Mar_17_1252,Flanker,2020.1.3,59.97710074312637,
HHH HHH,HHHSHHH,0,S,,,,,,,,,0,0,0,0,8,6,102,0,,,,,,,0.9593370518696307,298.4981394999995,None,4,,,,,,,,,,,,,104,100,107,298.0624033999993,298.1779357999985,298.1615108999995,298.36143209999864,4,1,0.31057660000078613,298.1615108999995,None,None,None,False,None,None,None,None,None,None,None,None,None,None,None,None,,,,,,,,,,,,,,,,,,,,,,,,,,,,,,AG05AS29,1,0x5FB8,D:\CoScience\Logfiles\,2022_Mar_17_1252,Flanker,2020.1.3,59.97710074312637,
HHS SHH,HHSSSHH,10,S,,,,,,,,,0,0,0,0,8,7,103,1,,,,,,,0.8694356281040281,299.8983245999989,None,4,,,,,,,,,,,,,114,110,117,299.4626176999991,299.5779894999996,299.5613650999985,299.7614801999989,4,1,0.30461749999994936,299.5613650999985,None,None,None,False,None,None,None,None,None,None,None,None,None,None,None,None,,,,,,,,,,,,,,,,,,,,,,,,,,,,,,AG05AS29,1,0x5FB8,D:\CoScience\Logfiles\,2022_Mar_17_1252,Flanker,2020.1.3,59.97710074312637,
SSS SSS,SSSSSSS,30,S,,,,,,,,,0,0,0,0,8,8,104,3,,,,,,,0.8787699876641991,301.2149550999984,None,4,,,,,,,,,,,,,134,130,137,300.7797645999999,300.8947075999986,300.87817189999987,301.0779891000002,4,1,0.3088630000002013,300.87817189999987,None,None,None,False,None,None,None,None,None,None,None,None,None,None,None,None,,,,,,,,,,,,,,,,,,,,,,,,,,,,,,AG05AS29,1,0x5FB8,D:\CoScience\Logfiles\,2022_Mar_17_1252,Flanker,2020.1.3,59.97710074312637,
HSS SSH,HSSSSSH,20,S,,,,,,,,,0,0,0,0,8,9,105,2,,,,,,,0.7668423221930084,302.5981622999989,None,4,,,,,,,,,,,,,124,120,127,302.09680990000015,302.2113273999985,302.19482309999876,302.3947583999998,4,1,0.3683187000006001,302.19482309999876,None,None,None,False,None,None,None,None,None,None,None,None,None,None,None,None,,,,,,,,,,,,,,,,,,,,,,,,,,,,,,AG05AS29,1,0x5FB8,D:\CoScience\Logfiles\,2022_Mar_17_1252,Flanker,2020.1.3,59.97710074312637,
SHH HHS,SHHHHHS,20,H,,,,,,,,,0,0,0,0,8,10,106,8,,,,,,,0.8859848009113442,303.84800519999953,None,2,,,,,,,,,,,,,124,120,127,303.38014719999956,303.4946826999985,303.4780850999996,303.67807099999845,2,1,0.3499779000012495,303.4780850999996,None,None,None,False,None,None,None,None,None,None,None,None,None,None,None,None,,,,,,,,,,,,,,,,,,,,,,,,,,,,,,AG05AS29,1,0x5FB8,D:\CoScience\Logfiles\,2022_Mar_17_1252,Flanker,2020.1.3,59.97710074312637,
SSS SSS,SSSSSSS,30,S,,,,,,,,,0,0,0,0,8,11,107,4,,,,,,,0.8476159114517567,305.1649192999994,None,4,,,,,,,,,,,,,134,130,137,304.74550909999925,304.8447417999996,304.8447417999996,305.04462710000007,4,1,0.28877169999941543,304.8447417999996,None,None,None,False,None,None,None,None,None,None,None,None,None,None,None,None,,,,,,,,,,,,,,,,,,,,,,,,,,,,,,AG05AS29,1,0x5FB8,D:\CoScience\Logfiles\,2022_Mar_17_1252,Flanker,2020.1.3,59.97710074312637,
HHH HHH,HHHHHHH,30,H,,,,,,,,,0,0,0,0,9,0,108,11,,,,,,,0.7509343361264573,306.46499779999976,None,2,,,,,,,,,,,,,134,130,137,306.0288978999997,306.12815259999843,306.12815259999843,306.32802719999927,2,1,0.3139792000001762,306.12815259999843,None,None,None,False,None,None,None,None,None,None,None,None,None,None,None,None,,,,,,,,,,,,,,,,,,,,,,,,,,,,,,AG05AS29,1,0x5FB8,D:\CoScience\Logfiles\,2022_Mar_17_1252,Flanker,2020.1.3,59.97710074312637,
SSS SSS,SSSSSSS,30,S,,,,,,,,,0,0,0,0,9,1,109,5,,,,,,,0.8327233898334551,307.6819502999988,None,4,,,,,,,,,,,,,134,130,137,307.2284131999986,307.3280989999985,307.3280989999985,307.5280772999995,4,1,0.3288718000003428,307.3280989999985,None,None,None,False,None,None,None,None,None,None,None,None,None,None,None,None,,,,,,,,,,,,,,,,,,,,,,,,,,,,,,AG05AS29,1,0x5FB8,D:\CoScience\Logfiles\,2022_Mar_17_1252,Flanker,2020.1.3,59.97710074312637,
SSH HSS,SSHHHSS,10,H,,,,,,,,,0,0,0,0,9,2,110,7,,,,,,,0.9011444512966169,308.9482322999993,None,2,,,,,,,,,,,,,114,110,117,308.5288712999991,308.6280998000002,308.6280998000002,308.82809449999877,2,1,0.2980176000000938,308.6280998000002,None,None,None,False,None,None,None,None,None,None,None,None,None,None,None,None,,,,,,,,,,,,,,,,,,,,,,,,,,,,,,AG05AS29,1,0x5FB8,D:\CoScience\Logfiles\,2022_Mar_17_1252,Flanker,2020.1.3,59.97710074312637,
HHS SHH,HHSSSHH,10,S,,,,,,,,,0,0,0,0,9,3,111,1,,,,,,,0.9934454873462188,310.2979482999999,None,4,,,,,,,,,,,,,114,110,117,309.8634148000001,309.9779798999989,309.9614461000001,310.1614386000001,4,1,0.30372580000039306,309.9614461000001,None,None,None,False,None,None,None,None,None,None,None,None,None,None,None,None,,,,,,,,,,,,,,,,,,,,,,,,,,,,,,AG05AS29,1,0x5FB8,D:\CoScience\Logfiles\,2022_Mar_17_1252,Flanker,2020.1.3,59.97710074312637,
HHH HHH,HHHHHHH,30,H,,,,,,,,,0,0,0,0,9,4,112,9,,,,,,,0.9608341465738206,311.69766269999855,None,2,,,,,,,,,,,,,134,130,137,311.295822099999,311.39480899999944,311.39480899999944,311.5946865999995,2,1,0.28132299999924726,311.39480899999944,None,None,None,False,None,None,None,None,None,None,None,None,None,None,None,None,,,,,,,,,,,,,,,,,,,,,,,,,,,,,,AG05AS29,1,0x5FB8,D:\CoScience\Logfiles\,2022_Mar_17_1252,Flanker,2020.1.3,59.97710074312637,
HSS SSH,HSSSSSH,20,S,,,,,,,,,0,0,0,0,9,5,113,2,,,,,,,0.7868941568667014,313.04834369999844,None,4,,,,,,,,,,,,,124,120,127,312.66252910000003,312.77795069999956,312.7610143999991,312.9615528999984,4,1,0.26212459999987914,312.7610143999991,None,None,None,False,None,None,None,None,None,None,None,None,None,None,None,None,,,,,,,,,,,,,,,,,,,,,,,,,,,,,,AG05AS29,1,0x5FB8,D:\CoScience\Logfiles\,2022_Mar_17_1252,Flanker,2020.1.3,59.97710074312637,
HHH HHH,HHHSHHH,0,S,,,,,,,,,0,0,0,0,9,6,114,0,,,,,,,0.8993562390888463,314.4318777999997,None,4,,,,,,,,,,,,,104,100,107,313.84694969999873,313.96132489999945,313.9447205999986,314.1447974999992,4,1,0.45545060000040394,313.9447205999986,None,None,None,False,None,None,None,None,None,None,None,None,None,None,None,None,,,,,,,,,,,,,,,,,,,,,,,,,,,,,,AG05AS29,1,0x5FB8,D:\CoScience\Logfiles\,2022_Mar_17_1252,Flanker,2020.1.3,59.97710074312637,
HHH HHH,HHHSHHH,0,S,,,,,,,,,0,0,0,0,9,7,115,0,,,,,,,0.9953495400526642,315.7641499000001,None,4,,,,,,,,,,,,,104,100,107,315.34448650000013,315.4445786999986,315.4280988999999,315.6279722999989,4,1,0.3160576999998739,315.4280988999999,None,None,None,False,None,None,None,None,None,None,None,None,None,None,None,None,,,,,,,,,,,,,,,,,,,,,,,,,,,,,,AG05AS29,1,0x5FB8,D:\CoScience\Logfiles\,2022_Mar_17_1252,Flanker,2020.1.3,59.97710074312637,
HHS SHH,HHSSSHH,10,S,,,,,,,,,0,0,0,0,9,8,116,1,,,,,,,0.7798420771609202,317.2477154999997,None,4,,,,,,,,,,,,,114,110,117,316.7625689999986,316.8778562999996,316.8614600000001,317.0614071,4,1,0.3675249999996595,316.8614600000001,None,None,None,False,None,None,None,None,None,None,None,None,None,None,None,None,,,,,,,,,,,,,,,,,,,,,,,,,,,,,,AG05AS29,1,0x5FB8,D:\CoScience\Logfiles\,2022_Mar_17_1252,Flanker,2020.1.3,59.97710074312637,
SSH HSS,SSHHHSS,10,H,,,,,,,,,0,0,0,0,9,9,117,7,,,,,,,0.9740242662842289,318.4817265999991,None,2,,,,,,,,,,,,,114,110,117,318.0288031,318.1281399999989,318.1281399999989,318.3280504999984,2,1,0.32277220000105444,318.1281399999989,None,None,None,False,None,None,None,None,None,None,None,None,None,None,None,None,,,,,,,,,,,,,,,,,,,,,,,,,,,,,,AG05AS29,1,0x5FB8,D:\CoScience\Logfiles\,2022_Mar_17_1252,Flanker,2020.1.3,59.97710074312637,
HHH HHH,HHHSHHH,0,S,,,,,,,,,0,0,0,0,9,10,118,0,,,,,,,0.8367230145682031,320.0149356999991,None,4,,,,,,,,,,,,,104,100,107,319.46344809999937,319.57800959999986,319.5614822999996,319.7780699999985,4,1,0.4255496999994648,319.5614822999996,None,None,None,False,None,None,None,None,None,None,None,None,None,None,None,None,,,,,,,,,,,,,,,,,,,,,,,,,,,,,,AG05AS29,1,0x5FB8,D:\CoScience\Logfiles\,2022_Mar_17_1252,Flanker,2020.1.3,59.97710074312637,
HHH HHH,HHHHHHH,30,H,,,,,,,,,0,0,0,0,9,11,119,10,,,,,,,0.755888668309048,321.34811759999866,None,2,,,,,,,,,,,,,134,130,137,320.86135419999846,320.96132599999873,320.9447077999994,321.1447690999994,2,1,0.3692498999989766,320.9447077999994,None,None,None,False,None,None,None,None,None,None,None,None,None,None,None,None,,,,,,,,,,,,,,,,,,,,,,,,,,,,,,AG05AS29,1,0x5FB8,D:\CoScience\Logfiles\,2022_Mar_17_1252,Flanker,2020.1.3,59.97710074312637,
SSS SSS,SSSHSSS,0,H,,,,,,,,,0,0,0,0,10,0,120,6,,,,,,,0.811424230983252,322.63150739999946,None,2,,,,,,,,,,,,,104,100,107,322.11257579999983,322.2279989999988,322.2114041999994,322.41103479999947,2,1,0.3924896999997145,322.2114041999994,None,None,None,False,None,None,None,None,None,None,None,None,None,None,None,None,,,,,,,,,,,,,,,,,,,,,,,,,,,,,,AG05AS29,1,0x5FB8,D:\CoScience\Logfiles\,2022_Mar_17_1252,Flanker,2020.1.3,59.97710074312637,
HHH HHH,HHHHHHH,30,H,,,,,,,,,0,0,0,0,10,1,121,9,,,,,,,0.8456509308845583,323.8814508999985,None,2,,,,,,,,,,,,,134,130,137,323.4467801999999,323.56130719999965,323.54463140000007,323.74465210000017,2,1,0.30857130000003963,323.54463140000007,None,None,None,False,None,None,None,None,None,None,None,None,None,None,None,None,,,,,,,,,,,,,,,,,,,,,,,,,,,,,,AG05AS29,1,0x5FB8,D:\CoScience\Logfiles\,2022_Mar_17_1252,Flanker,2020.1.3,59.97710074312637,
SSH HSS,SSHHHSS,10,H,,,,,,,,,0,0,0,0,10,2,122,7,,,,,,,0.960832593831602,325.23153679999996,None,2,,,,,,,,,,,,,114,110,117,324.7291153999995,324.8445985999988,324.8280330999987,325.02799760000016,2,1,0.37090969999917434,324.8280330999987,None,None,None,False,None,None,None,None,None,None,None,None,None,None,None,None,,,,,,,,,,,,,,,,,,,,,,,,,,,,,,AG05AS29,1,0x5FB8,D:\CoScience\Logfiles\,2022_Mar_17_1252,Flanker,2020.1.3,59.97710074312637,
HHS SHH,HHSSSHH,10,S,,,,,,,,,0,0,0,0,10,3,123,1,,,,,,,0.8299713225685705,326.63179709999895,None,4,,,,,,,,,,,,,114,110,117,326.19587219999994,326.31124999999884,326.2947217000001,326.49471469999844,4,1,0.3124046000011731,326.2947217000001,None,None,None,False,None,None,None,None,None,None,None,None,None,None,None,None,,,,,,,,,,,,,,,,,,,,,,,,,,,,,,AG05AS29,1,0x5FB8,D:\CoScience\Logfiles\,2022_Mar_17_1252,Flanker,2020.1.3,59.97710074312637,
HHS SHH,HHSSSHH,10,S,,,,,,,,,0,0,0,0,10,4,124,1,,,,,,,0.7759544485938893,327.881625,None,4,,,,,,,,,,,,,114,110,117,327.4612270999987,327.56130069999926,327.5445347999994,327.74470909999945,4,1,0.31239499999901454,327.5445347999994,None,None,None,False,None,None,None,None,None,None,None,None,None,None,None,None,,,,,,,,,,,,,,,,,,,,,,,,,,,,,,AG05AS29,1,0x5FB8,D:\CoScience\Logfiles\,2022_Mar_17_1252,Flanker,2020.1.3,59.97710074312637,
SSS SSS,SSSSSSS,30,S,,,,,,,,,0,0,0,0,10,5,125,5,,,,,,,0.9847024133620197,329.1980088,None,4,,,,,,,,,,,,,134,130,137,328.66186279999965,328.76123689999986,328.74470289999954,328.94438759999866,4,1,0.42819740000049933,328.74470289999954,None,None,None,False,None,None,None,None,None,None,None,None,None,None,None,None,,,,,,,,,,,,,,,,,,,,,,,,,,,,,,AG05AS29,1,0x5FB8,D:\CoScience\Logfiles\,2022_Mar_17_1252,Flanker,2020.1.3,59.97710074312637,
HHS SHH,HHSSSHH,10,S,,,,,,,,,0,0,0,0,10,6,126,1,,,,,,,0.7659031491521502,330.7150255999986,None,4,,,,,,,,,,,,,114,110,117,330.19682099999955,330.3113134999985,330.29474069999924,330.4947209000002,4,1,0.39716220000082103,330.29474069999924,None,None,None,False,None,None,None,None,None,None,None,None,None,None,None,None,,,,,,,,,,,,,,,,,,,,,,,,,,,,,,AG05AS29,1,0x5FB8,D:\CoScience\Logfiles\,2022_Mar_17_1252,Flanker,2020.1.3,59.97710074312637,
SHH HHS,SHHHHHS,20,H,,,,,,,,,0,0,0,0,10,7,127,8,,,,,,,0.9801119217830296,331.96457389999887,None,2,,,,,,,,,,,,,124,120,127,331.49601540000003,331.61131119999845,331.59475419999944,331.7947809999987,2,1,0.33916619999945397,331.59475419999944,None,None,None,False,None,None,None,None,None,None,None,None,None,None,None,None,,,,,,,,,,,,,,,,,,,,,,,,,,,,,,AG05AS29,1,0x5FB8,D:\CoScience\Logfiles\,2022_Mar_17_1252,Flanker,2020.1.3,59.97710074312637,
SSS SSS,SSSSSSS,30,S,,,,,,,,,0,0,0,0,10,8,128,3,,,,,,,0.9507703815482479,333.36503099999936,None,4,,,,,,,,,,,,,134,130,137,332.94603019999886,333.06134869999914,333.0447401000001,333.2447753999986,4,1,0.29919889999837324,333.0447401000001,None,None,None,False,None,None,None,None,None,None,None,None,None,None,None,None,,,,,,,,,,,,,,,,,,,,,,,,,,,,,,AG05AS29,1,0x5FB8,D:\CoScience\Logfiles\,2022_Mar_17_1252,Flanker,2020.1.3,59.97710074312637,
HSS SSH,HSSSSSH,20,S,,,,,,,,,0,0,0,0,10,9,129,2,,,,,,,0.7881619247655486,334.7313654999998,None,4,,,,,,,,,,,,,124,120,127,334.3299002999993,334.44452249999995,334.4281328999987,334.6277438999987,4,1,0.27879030000076455,334.4281328999987,None,None,None,False,None,None,None,None,None,None,None,None,None,None,None,None,,,,,,,,,,,,,,,,,,,,,,,,,,,,,,AG05AS29,1,0x5FB8,D:\CoScience\Logfiles\,2022_Mar_17_1252,Flanker,2020.1.3,59.97710074312637,
HHH HHH,HHHHHHH,30,H,,,,,,,,,0,0,0,0,10,10,130,9,,,,,,,0.8892386021119361,336.0643466999991,None,2,,,,,,,,,,,,,134,130,137,335.52910659999907,335.62805229999867,335.62805229999867,335.8280286999998,2,1,0.4089598999998998,335.62805229999867,None,None,None,False,None,None,None,None,None,None,None,None,None,None,None,None,,,,,,,,,,,,,,,,,,,,,,,,,,,,,,AG05AS29,1,0x5FB8,D:\CoScience\Logfiles\,2022_Mar_17_1252,Flanker,2020.1.3,59.97710074312637,
HHH HHH,HHHHHHH,30,H,,,,,,,,,0,0,0,0,10,11,131,10,,,,,,,0.9819670049470758,337.3649400999984,None,2,,,,,,,,,,,,,134,130,137,336.96122579999974,337.0612255999986,337.0447071999988,337.2446149999996,2,1,0.2852028999986942,337.0447071999988,None,None,None,False,None,None,None,None,None,None,None,None,None,None,None,None,,,,,,,,,,,,,,,,,,,,,,,,,,,,,,AG05AS29,1,0x5FB8,D:\CoScience\Logfiles\,2022_Mar_17_1252,Flanker,2020.1.3,59.97710074312637,
SSS SSS,SSSHSSS,0,H,,,,,,,,,0,0,0,0,11,0,132,6,,,,,,,0.7716082038383717,338.9441835999987,None,2,,,,,,,,,,,,,104,100,107,338.36247899999944,338.4779592999985,338.4613905999995,338.6613535999986,2,1,0.457280599999649,338.4613905999995,None,None,None,False,None,None,None,None,None,None,None,None,None,None,None,None,,,,,,,,,,,,,,,,,,,,,,,,,,,,,,AG05AS29,1,0x5FB8,D:\CoScience\Logfiles\,2022_Mar_17_1252,Flanker,2020.1.3,59.97710074312637,
SSS SSS,SSSSSSS,30,S,,,,,,,,,0,0,0,0,11,1,133,4,,,,,,,0.8779914585889657,340.1965732999997,None,4,,,,,,,,,,,,,134,130,137,339.72824539999965,339.8272191999986,339.8110878999996,340.01132789999974,4,1,0.3648345000001427,339.8110878999996,None,None,None,False,None,None,None,None,None,None,None,None,None,None,None,None,,,,,,,,,,,,,,,,,,,,,,,,,,,,,,AG05AS29,1,0x5FB8,D:\CoScience\Logfiles\,2022_Mar_17_1252,Flanker,2020.1.3,59.97710074312637,
HHH HHH,HHHHHHH,30,H,,,,,,,,,0,0,0,0,11,2,134,9,,,,,,,0.8057452688692229,341.615021399999,None,2,,,,,,,,,,,,,134,130,137,341.07913069999995,341.19461599999886,341.17807339999854,341.3780444999993,2,1,0.41182800000024145,341.17807339999854,None,None,None,False,None,None,None,None,None,None,None,None,None,None,None,None,,,,,,,,,,,,,,,,,,,,,,,,,,,,,,AG05AS29,1,0x5FB8,D:\CoScience\Logfiles\,2022_Mar_17_1252,Flanker,2020.1.3,59.97710074312637,
HHH HHH,HHHSHHH,0,S,,,,,,,,,0,0,0,0,11,3,135,0,,,,,,,0.9593262112463462,342.9482960999994,None,4,,,,,,,,,,,,,104,100,107,342.4290836,342.54459999999926,342.52810059999865,342.728024,4,1,0.3987842000005912,342.52810059999865,None,None,None,False,None,None,None,None,None,None,None,None,None,None,None,None,,,,,,,,,,,,,,,,,,,,,,,,,,,,,,AG05AS29,1,0x5FB8,D:\CoScience\Logfiles\,2022_Mar_17_1252,Flanker,2020.1.3,59.97710074312637,
HHH HHH,HHHHHHH,30,H,,,,,,,,,0,0,0,0,11,4,136,10,,,,,,,0.763212735085891,344.2314252999986,None,2,,,,,,,,,,,,,134,130,137,343.9119061000001,344.0112552999999,343.99463169999945,344.19458229999873,2,1,0.2093992000009166,343.99463169999945,None,None,None,False,None,None,None,None,None,None,None,None,None,None,None,None,,,,,,,,,,,,,,,,,,,,,,,,,,,,,,AG05AS29,1,0x5FB8,D:\CoScience\Logfiles\,2022_Mar_17_1252,Flanker,2020.1.3,59.97710074312637,
HHH HHH,HHHSHHH,0,S,,,,,,,,,0,0,0,0,11,5,137,0,,,,,,,0.893832712642453,345.4983265999999,None,4,,,,,,,,,,,,,104,100,107,344.99576960000013,345.1111971999999,345.09461379999993,345.2945617999994,4,1,0.38227609999921697,345.09461379999993,None,None,None,False,None,None,None,None,None,None,None,None,None,None,None,None,,,,,,,,,,,,,,,,,,,,,,,,,,,,,,AG05AS29,1,0x5FB8,D:\CoScience\Logfiles\,2022_Mar_17_1252,Flanker,2020.1.3,59.97710074312637,
HHH HHH,HHHHHHH,30,H,,,,,,,,,0,0,0,0,11,6,138,11,,,,,,,0.8602842199303999,346.84825779999846,None,2,,,,,,,,,,,,,134,130,137,346.3955514999998,346.4945420999993,346.4781192999999,346.678039299999,2,1,0.338069399998858,346.4781192999999,None,None,None,False,None,None,None,None,None,None,None,None,None,None,None,None,,,,,,,,,,,,,,,,,,,,,,,,,,,,,,AG05AS29,1,0x5FB8,D:\CoScience\Logfiles\,2022_Mar_17_1252,Flanker,2020.1.3,59.97710074312637,
SSS SSS,SSSSSSS,30,S,,,,,,,,,0,0,0,0,11,7,139,3,,,,,,,0.9256661309426842,348.1481788000001,None,4,,,,,,,,,,,,,134,130,137,347.7125501999999,347.82749929999954,347.81138959999953,348.0113000000001,4,1,0.3175386000002618,347.81138959999953,None,None,None,False,None,None,None,None,None,None,None,None,None,None,None,None,,,,,,,,,,,,,,,,,,,,,,,,,,,,,,AG05AS29,1,0x5FB8,D:\CoScience\Logfiles\,2022_Mar_17_1252,Flanker,2020.1.3,59.97710074312637,
HSS SSH,HSSSSSH,20,S,,,,,,,,,0,0,0,0,11,8,140,2,,,,,,,0.9280719750724219,349.63152959999934,None,4,,,,,,,,,,,,,124,120,127,349.0791685999993,349.1946321999985,349.1780512999994,349.3779992999989,4,1,0.4220423999995546,349.1780512999994,None,None,None,False,None,None,None,None,None,None,None,None,None,None,None,None,,,,,,,,,,,,,,,,,,,,,,,,,,,,,,AG05AS29,1,0x5FB8,D:\CoScience\Logfiles\,2022_Mar_17_1252,Flanker,2020.1.3,59.97710074312637,
SSS SSS,SSSSSSS,30,S,,,,,,,,,0,0,0,0,11,9,141,3,,,,,,,0.7758649783966067,351.0816724999986,None,4,,,,,,,,,,,,,134,130,137,350.56255819999933,350.6779444999993,350.66142129999935,350.8613755999995,4,1,0.38866239999879326,350.66142129999935,None,None,None,False,None,None,None,None,None,None,None,None,None,None,None,None,,,,,,,,,,,,,,,,,,,,,,,,,,,,,,AG05AS29,1,0x5FB8,D:\CoScience\Logfiles\,2022_Mar_17_1252,Flanker,2020.1.3,59.97710074312637,
HSS SSH,HSSSSSH,20,S,,,,,,,,,0,0,0,0,11,10,142,2,,,,,,,0.8476640228902889,352.3644052999989,None,4,,,,,,,,,,,,,124,120,127,351.86273660000006,351.97796389999894,351.9614894999995,352.1613781999986,4,1,0.3685758000010537,351.9614894999995,None,None,None,False,None,None,None,None,None,None,None,None,None,None,None,None,,,,,,,,,,,,,,,,,,,,,,,,,,,,,,AG05AS29,1,0x5FB8,D:\CoScience\Logfiles\,2022_Mar_17_1252,Flanker,2020.1.3,59.97710074312637,
SSS SSS,SSSSSSS,30,S,,,,,,,,,0,0,0,0,11,11,143,5,,,,,,,0.9985841977802479,353.6307179999985,None,4,,,,,,,,,,,,,134,130,137,353.21275419999984,353.32791559999896,353.31140499999856,353.51131089999944,4,1,0.291577199999665,353.31140499999856,None,None,None,False,None,None,None,None,None,None,None,None,None,None,None,None,,,,,,,,,,,,,,,,,,,,,,,,,,,,,,AG05AS29,1,0x5FB8,D:\CoScience\Logfiles\,2022_Mar_17_1252,Flanker,2020.1.3,59.97710074312637,
SSH HSS,SSHHHSS,10,H,,,,,,,,,0,0,0,0,12,0,144,7,,,,,,,0.966383379447634,355.13165579999986,None,2,,,,,,,,,,,,,114,110,117,354.6438939999989,354.74452669999846,354.728051099999,354.92801249999866,2,1,0.37584480000077747,354.728051099999,None,None,None,False,None,None,None,None,None,None,None,None,None,None,None,None,,,,,,,,,,,,,,,,,,,,,,,,,,,,,,AG05AS29,1,0x5FB8,D:\CoScience\Logfiles\,2022_Mar_17_1252,Flanker,2020.1.3,59.97710074312637,
HHS SHH,HHSSSHH,10,S,,,,,,,,,0,0,0,0,12,1,145,1,,,,,,,0.7657717741382112,356.5643231999984,None,4,,,,,,,,,,,,,114,110,117,356.1124241999987,356.21137439999984,356.21137439999984,356.41136409999854,4,1,0.3317460999987816,356.21137439999984,None,None,None,False,None,None,None,None,None,None,None,None,None,None,None,None,,,,,,,,,,,,,,,,,,,,,,,,,,,,,,AG05AS29,1,0x5FB8,D:\CoScience\Logfiles\,2022_Mar_17_1252,Flanker,2020.1.3,59.97710074312637,
SSS SSS,SSSHSSS,0,H,,,,,,,,,0,0,0,0,12,2,146,6,,,,,,,0.9239836593135692,357.86497569999847,None,2,,,,,,,,,,,,,104,100,107,357.3457623999984,357.46127369999886,357.44468640000014,357.6443055999989,2,1,0.3887176999996882,357.44468640000014,None,None,None,False,None,None,None,None,None,None,None,None,None,None,None,None,,,,,,,,,,,,,,,,,,,,,,,,,,,,,,AG05AS29,1,0x5FB8,D:\CoScience\Logfiles\,2022_Mar_17_1252,Flanker,2020.1.3,59.97710074312637,
SHH HHS,SHHHHHS,20,H,,,,,,,,,0,0,0,0,12,3,147,8,,,,,,,0.7508309247264694,359.31474739999976,None,2,,,,,,,,,,,,,124,120,127,358.7957700999996,358.9112875999999,358.8945851999997,359.0945417999992,2,1,0.40055970000139496,358.8945851999997,None,None,None,False,None,None,None,None,None,None,None,None,None,None,None,None,,,,,,,,,,,,,,,,,,,,,,,,,,,,,,AG05AS29,1,0x5FB8,D:\CoScience\Logfiles\,2022_Mar_17_1252,Flanker,2020.1.3,59.97710074312637,
SSS SSS,SSSHSSS,0,H,,,,,,,,,0,0,0,0,12,4,148,6,,,,,,,0.9317274423681489,360.61489639999854,None,2,,,,,,,,,,,,,104,100,107,360.0799655999999,360.1946063999985,360.1780490000001,360.3779754999996,2,1,0.402827800000523,360.1780490000001,None,None,None,False,None,None,None,None,None,None,None,None,None,None,None,None,,,,,,,,,,,,,,,,,,,,,,,,,,,,,,AG05AS29,1,0x5FB8,D:\CoScience\Logfiles\,2022_Mar_17_1252,Flanker,2020.1.3,59.97710074312637,
HHH HHH,HHHSHHH,0,S,,,,,,,,,0,0,0,0,12,5,149,0,,,,,,,0.9263411055595911,362.0643521000002,None,4,,,,,,,,,,,,,104,100,107,361.5625618999984,361.67788389999987,361.6613120999991,361.86073659999965,4,1,0.3696767000001273,361.6613120999991,None,None,None,False,None,None,None,None,None,None,None,None,None,None,None,None,,,,,,,,,,,,,,,,,,,,,,,,,,,,,,AG05AS29,1,0x5FB8,D:\CoScience\Logfiles\,2022_Mar_17_1252,Flanker,2020.1.3,59.97710074312637,
HSS SSH,HSSSSSH,20,S,,,,,,,,,0,0,0,0,12,6,150,2,,,,,,,0.88931045921839,363.41487119999874,None,4,,,,,,,,,,,,,124,120,127,362.9957291999999,363.11086259999865,363.09417380000014,363.29456169999867,4,1,0.2927818999996816,363.09417380000014,None,None,None,False,None,None,None,None,None,None,None,None,None,None,None,None,,,,,,,,,,,,,,,,,,,,,,,,,,,,,,AG05AS29,1,0x5FB8,D:\CoScience\Logfiles\,2022_Mar_17_1252,Flanker,2020.1.3,59.97710074312637,
HHH HHH,HHHHHHH,30,H,,,,,,,,,0,0,0,0,12,7,151,11,,,,,,,0.9692630684473684,364.76544549999926,None,2,,,,,,,,,,,,,134,130,137,364.3116295,364.4114394999997,364.4114394999997,364.61127529999976,2,1,0.3294107999990956,364.4114394999997,None,None,None,False,None,None,None,None,None,None,None,None,None,None,None,None,,,,,,,,,,,,,,,,,,,,,,,,,,,,,,AG05AS29,1,0x5FB8,D:\CoScience\Logfiles\,2022_Mar_17_1252,Flanker,2020.1.3,59.97710074312637,
HHH HHH,HHHHHHH,30,H,,,,,,,,,0,0,0,0,12,8,152,9,,,,,,,0.7779027629850731,366.19773559999885,None,2,,,,,,,,,,,,,134,130,137,365.76129599999877,365.86124179999933,365.8446447999995,366.0446465999994,2,1,0.31852360000084445,365.8446447999995,None,None,None,False,None,None,None,None,None,None,None,None,None,None,None,None,,,,,,,,,,,,,,,,,,,,,,,,,,,,,,AG05AS29,1,0x5FB8,D:\CoScience\Logfiles\,2022_Mar_17_1252,Flanker,2020.1.3,59.97710074312637,
SSH HSS,SSHHHSS,10,H,,,,,,,,,0,0,0,0,12,9,153,7,,,,,,,0.7528709128798527,367.4482565999988,None,2,,,,,,,,,,,,,114,110,117,366.97821659999863,367.0779877999994,367.0779877999994,367.2779956999984,2,1,0.3430164000001241,367.0779877999994,None,None,None,False,None,None,None,None,None,None,None,None,None,None,None,None,,,,,,,,,,,,,,,,,,,,,,,,,,,,,,AG05AS29,1,0x5FB8,D:\CoScience\Logfiles\,2022_Mar_17_1252,Flanker,2020.1.3,59.97710074312637,
SSH HSS,SSHHHSS,10,H,,,,,,,,,0,0,0,0,12,10,154,7,,,,,,,0.7834277668661342,368.64774509999916,None,2,,,,,,,,,,,,,114,110,117,368.2111692999988,368.31084809999993,368.2946480999999,368.494773299999,2,1,0.3292090000013559,368.2946480999999,None,None,None,False,None,None,None,None,None,None,None,None,None,None,None,None,,,,,,,,,,,,,,,,,,,,,,,,,,,,,,AG05AS29,1,0x5FB8,D:\CoScience\Logfiles\,2022_Mar_17_1252,Flanker,2020.1.3,59.97710074312637,
SSS SSS,SSSSSSS,30,S,,,,,,,,,0,0,0,0,12,11,155,4,,,,,,,0.9899213110236854,369.86475139999857,None,4,,,,,,,,,,,,,134,130,137,369.4467270999994,369.56126349999977,369.5446243999995,369.7446930999995,4,1,0.2992140999995172,369.5446243999995,None,None,None,False,None,None,None,None,None,None,None,None,None,None,None,None,,,,,,,,,,,,,,,,,,,,,,,,,,,,,,AG05AS29,1,0x5FB8,D:\CoScience\Logfiles\,2022_Mar_17_1252,Flanker,2020.1.3,59.97710074312637,
SSS SSS,SSSSSSS,30,S,,,,,,,,,0,0,0,0,13,0,156,4,,,,,,,0.7593983067209602,371.29817809999986,None,4,,,,,,,,,,,,,134,130,137,370.86106739999923,370.96124619999864,370.94465089999903,371.1446468999984,4,1,0.3292105000000447,370.94465089999903,None,None,None,False,None,None,None,None,None,None,None,None,None,None,None,None,,,,,,,,,,,,,,,,,,,,,,,,,,,,,,AG05AS29,1,0x5FB8,D:\CoScience\Logfiles\,2022_Mar_17_1252,Flanker,2020.1.3,59.97710074312637,
HHH HHH,HHHHHHH,30,H,,,,,,,,,0,0,0,0,13,1,157,10,,,,,,,0.991780254366561,372.5314665999995,None,2,,,,,,,,,,,,,134,130,137,372.06277079999927,372.17787059999864,372.1612728,372.36139430000003,2,1,0.34168859999954293,372.1612728,None,None,None,False,None,None,None,None,None,None,None,None,None,None,None,None,,,,,,,,,,,,,,,,,,,,,,,,,,,,,,AG05AS29,1,0x5FB8,D:\CoScience\Logfiles\,2022_Mar_17_1252,Flanker,2020.1.3,59.97710074312637,
HHH HHH,HHHHHHH,30,H,,,,,,,,,0,0,0,0,13,2,158,11,,,,,,,0.9811198873686401,373.94820230000005,None,2,,,,,,,,,,,,,134,130,137,373.5278187999993,373.62788179999916,373.6113190999986,373.8113193999998,2,1,0.3065652000004775,373.6113190999986,None,None,None,False,None,None,None,None,None,None,None,None,None,None,None,None,,,,,,,,,,,,,,,,,,,,,,,,,,,,,,AG05AS29,1,0x5FB8,D:\CoScience\Logfiles\,2022_Mar_17_1252,Flanker,2020.1.3,59.97710074312637,
SSS SSS,SSSHSSS,0,H,,,,,,,,,0,0,0,0,13,3,159,6,,,,,,,0.8296293189167235,375.4982179999988,None,2,,,,,,,,,,,,,104,100,107,374.9590217999994,375.0612867999989,375.04469939999944,375.2447373999985,2,1,0.4183954000000085,375.04469939999944,None,None,None,False,None,None,None,None,None,None,None,None,None,None,None,None,,,,,,,,,,,,,,,,,,,,,,,,,,,,,,AG05AS29,1,0x5FB8,D:\CoScience\Logfiles\,2022_Mar_17_1252,Flanker,2020.1.3,59.97710074312637,
HHH HHH,HHHHHHH,30,H,,,,,,,,,0,0,0,0,13,4,160,11,,,,,,,0.7709244625336478,376.79743809999854,None,2,,,,,,,,,,,,,134,130,137,376.3285651999995,376.4278876999997,376.4113684999993,376.6113069999992,2,1,0.3524890000007872,376.4113684999993,None,None,None,False,None,None,None,None,None,None,None,None,None,None,None,None,,,,,,,,,,,,,,,,,,,,,,,,,,,,,,AG05AS29,1,0x5FB8,D:\CoScience\Logfiles\,2022_Mar_17_1252,Flanker,2020.1.3,59.97710074312637,
HHH HHH,HHHSHHH,0,S,,,,,,,,,0,0,0,0,13,5,161,0,,,,,,,0.9277459121299918,378.08163369999966,None,4,,,,,,,,,,,,,104,100,107,377.5790868999993,377.6949518000001,377.66135119999853,377.8613347999999,4,1,0.3905408000009629,377.66135119999853,None,None,None,False,None,None,None,None,None,None,None,None,None,None,None,None,,,,,,,,,,,,,,,,,,,,,,,,,,,,,,AG05AS29,1,0x5FB8,D:\CoScience\Logfiles\,2022_Mar_17_1252,Flanker,2020.1.3,59.97710074312637,
HHH HHH,HHHHHHH,30,H,,,,,,,,,0,0,0,0,13,6,162,10,,,,,,,0.8872296298280051,379.49798310000006,None,2,,,,,,,,,,,,,134,130,137,379.0258606999996,379.1281517999996,379.0946473999993,379.294713199999,2,1,0.3702272999998968,379.0946473999993,None,None,None,False,None,None,None,None,None,None,None,None,None,None,None,None,,,,,,,,,,,,,,,,,,,,,,,,,,,,,,AG05AS29,1,0x5FB8,D:\CoScience\Logfiles\,2022_Mar_17_1252,Flanker,2020.1.3,59.97710074312637,
SSS SSS,SSSSSSS,30,S,,,,,,,,,0,0,0,0,13,7,163,5,,,,,,,0.9616487522379851,382.51066869999886,None,4,,,,,,,,,,,,,134,130,0,380.3967868999989,380.51128939999944,380.4946251000001,380.69470849999925,None,0,,380.4946251000001,None,381.49787319999996,None,False,None,None,None,None,None,None,None,None,None,None,None,None,,,,,,,,,,,,,,,,,,,,,,,,,,,,,,AG05AS29,1,0x5FB8,D:\CoScience\Logfiles\,2022_Mar_17_1252,Flanker,2020.1.3,59.97710074312637,
HHH HHH,HHHHHHH,30,H,,,,,,,,,0,0,0,0,13,8,164,11,,,,,,,0.7994836077123877,383.9142570999993,None,2,,,,,,,,,,,,,134,130,137,383.47956410000006,383.5945469999988,383.57792770000015,383.77754749999986,2,1,0.31591780000053404,383.57792770000015,None,None,None,False,None,None,None,None,None,None,None,None,None,None,None,None,,,,,,,,,,,,,,,,,,,,,,,,,,,,,,AG05AS29,1,0x5FB8,D:\CoScience\Logfiles\,2022_Mar_17_1252,Flanker,2020.1.3,59.97710074312637,
HSS SSH,HSSSSSH,20,S,,,,,,,,,0,0,0,0,13,9,165,2,,,,,,,0.9112051753868081,385.14812339999844,None,4,,,,,,,,,,,,,124,120,129,384.72907159999886,384.8444451999985,384.82782309999857,385.0277787999985,2,0,0.29406290000042645,384.82782309999857,None,None,None,False,None,None,None,None,None,None,None,None,None,None,None,None,,,,,,,,,,,,,,,,,,,,,,,,,,,,,,AG05AS29,1,0x5FB8,D:\CoScience\Logfiles\,2022_Mar_17_1252,Flanker,2020.1.3,59.97710074312637,
SSS SSS,SSSSSSS,30,S,,,,,,,,,0,0,0,0,13,10,166,4,,,,,,,0.9638729985486439,386.63166679999995,None,4,,,,,,,,,,,,,134,130,137,386.06212659999983,386.1613949999992,386.1613949999992,386.3612983999992,4,1,0.4496457000004739,386.1613949999992,None,None,None,False,None,None,None,None,None,None,None,None,None,None,None,None,,,,,,,,,,,,,,,,,,,,,,,,,,,,,,AG05AS29,1,0x5FB8,D:\CoScience\Logfiles\,2022_Mar_17_1252,Flanker,2020.1.3,59.97710074312637,
HSS SSH,HSSSSSH,20,S,,,,,,,,,0,0,0,0,13,11,167,2,,,,,,,0.8449904072414041,387.9983278999989,None,4,,,,,,,,,,,,,124,120,127,387.5965827,387.71075819999896,387.6946545999999,387.8942388999985,4,1,0.2783420000014303,387.6946545999999,None,None,None,False,None,None,None,None,None,None,None,None,None,None,None,None,,,,,,,,,,,,,,,,,,,,,,,,,,,,,,AG05AS29,1,0x5FB8,D:\CoScience\Logfiles\,2022_Mar_17_1252,Flanker,2020.1.3,59.97710074312637,
HHH HHH,HHHSHHH,0,S,,,,,,,,,0,0,0,0,14,0,168,0,,,,,,,0.9743422968500399,389.3150958999995,None,4,,,,,,,,,,,,,104,100,107,388.84579099999974,388.9612283999995,388.9446656,389.1446486999994,4,1,0.3461375999995653,388.9446656,None,None,None,False,None,None,None,None,None,None,None,None,None,None,None,None,,,,,,,,,,,,,,,,,,,,,,,,,,,,,,AG05AS29,1,0x5FB8,D:\CoScience\Logfiles\,2022_Mar_17_1252,Flanker,2020.1.3,59.97710074312637,
SHH HHS,SHHHHHS,20,H,,,,,,,,,0,0,0,0,14,1,169,8,,,,,,,0.7523781035508288,390.8151906999992,None,2,,,,,,,,,,,,,124,120,127,390.294480999999,390.39457029999903,390.3777855999997,390.57756809999955,2,1,0.4142224000006536,390.3777855999997,None,None,None,False,None,None,None,None,None,None,None,None,None,None,None,None,,,,,,,,,,,,,,,,,,,,,,,,,,,,,,AG05AS29,1,0x5FB8,D:\CoScience\Logfiles\,2022_Mar_17_1252,Flanker,2020.1.3,59.97710074312637,
HHH HHH,HHHHHHH,30,H,,,,,,,,,0,0,0,0,14,2,170,11,,,,,,,0.7691620557372519,391.9982788999987,None,2,,,,,,,,,,,,,134,130,137,391.57919219999894,391.6941974000001,391.67760689999886,391.8780117999995,2,1,0.2953618000010465,391.67760689999886,None,None,None,False,None,None,None,None,None,None,None,None,None,None,None,None,,,,,,,,,,,,,,,,,,,,,,,,,,,,,,AG05AS29,1,0x5FB8,D:\CoScience\Logfiles\,2022_Mar_17_1252,Flanker,2020.1.3,59.97710074312637,
SSH HSS,SSHHHSS,10,H,,,,,,,,,0,0,0,0,14,3,171,7,,,,,,,0.8270084687116152,393.26485969999885,None,2,,,,,,,,,,,,,114,110,117,392.78014359999906,392.8944193999996,392.87800309999875,393.0780030999995,2,1,0.3658303000011074,392.87800309999875,None,None,None,False,None,None,None,None,None,None,None,None,None,None,None,None,,,,,,,,,,,,,,,,,,,,,,,,,,,,,,AG05AS29,1,0x5FB8,D:\CoScience\Logfiles\,2022_Mar_17_1252,Flanker,2020.1.3,59.97710074312637,
SHH HHS,SHHHHHS,20,H,,,,,,,,,0,0,0,0,14,4,172,8,,,,,,,0.8689183582936846,394.49769129999913,None,2,,,,,,,,,,,,,124,120,127,394.0956993999989,394.21112939999875,394.19463369999903,394.3947001999986,2,1,0.27217039999959525,394.19463369999903,None,None,None,False,None,None,None,None,None,None,None,None,None,None,None,None,,,,,,,,,,,,,,,,,,,,,,,,,,,,,,AG05AS29,1,0x5FB8,D:\CoScience\Logfiles\,2022_Mar_17_1252,Flanker,2020.1.3,59.97710074312637,
HSS SSH,HSSSSSH,20,S,,,,,,,,,0,0,0,0,14,5,173,2,,,,,,,0.7659774704033648,395.81718179999916,None,4,,,,,,,,,,,,,124,120,127,395.37990679999893,395.49407749999955,395.4771858999993,395.6779611999991,4,1,0.3180735999994795,395.4771858999993,None,None,None,False,None,None,None,None,None,None,None,None,None,None,None,None,,,,,,,,,,,,,,,,,,,,,,,,,,,,,,AG05AS29,1,0x5FB8,D:\CoScience\Logfiles\,2022_Mar_17_1252,Flanker,2020.1.3,59.97710074312637,
SSS SSS,SSSSSSS,30,S,,,,,,,,,0,0,0,0,14,6,174,5,,,,,,,0.8833056942504024,397.16482089999954,None,4,,,,,,,,,,,,,134,130,137,396.5964933999985,396.7112283999995,396.69449339999846,396.8945995999984,4,1,0.4503727000010258,396.69449339999846,None,None,None,False,None,None,None,None,None,None,None,None,None,None,None,None,,,,,,,,,,,,,,,,,,,,,,,,,,,,,,AG05AS29,1,0x5FB8,D:\CoScience\Logfiles\,2022_Mar_17_1252,Flanker,2020.1.3,59.97710074312637,
HSS SSH,HSSSSSH,20,S,,,,,,,,,0,0,0,0,14,7,175,2,,,,,,,0.9290845624460182,398.48175339999943,None,4,,,,,,,,,,,,,124,120,127,398.06328869999925,398.177748099999,398.16134710000006,398.3613460999986,4,1,0.29740789999959816,398.16134710000006,None,None,None,False,None,None,None,None,None,None,None,None,None,None,None,None,,,,,,,,,,,,,,,,,,,,,,,,,,,,,,AG05AS29,1,0x5FB8,D:\CoScience\Logfiles\,2022_Mar_17_1252,Flanker,2020.1.3,59.97710074312637,
HHS SHH,HHSSSHH,10,S,,,,,,,,,0,0,0,0,14,8,176,1,,,,,,,0.9451621689224653,399.83139219999975,None,4,,,,,,,,,,,,,114,110,117,399.4132783999994,399.52781849999883,399.51133049999953,399.71089589999974,4,1,0.2854996000005485,399.51133049999953,None,None,None,False,None,None,None,None,None,None,None,None,None,None,None,None,,,,,,,,,,,,,,,,,,,,,,,,,,,,,,AG05AS29,1,0x5FB8,D:\CoScience\Logfiles\,2022_Mar_17_1252,Flanker,2020.1.3,59.97710074312637,
HHH HHH,HHHHHHH,30,H,,,,,,,,,0,0,0,0,14,9,177,9,,,,,,,0.8856205703252745,401.2808077999998,None,2,,,,,,,,,,,,,134,130,137,400.77902919999906,400.8940516999992,400.8776079999989,401.07757479999964,2,1,0.3794393999996828,400.8776079999989,None,None,None,False,None,None,None,None,None,None,None,None,None,None,None,None,,,,,,,,,,,,,,,,,,,,,,,,,,,,,,AG05AS29,1,0x5FB8,D:\CoScience\Logfiles\,2022_Mar_17_1252,Flanker,2020.1.3,59.97710074312637,
HHH HHH,HHHHHHH,30,H,,,,,,,,,0,0,0,0,14,10,178,10,,,,,,,0.9980333008388984,402.5647850999994,None,2,,,,,,,,,,,,,134,130,137,402.17780800000037,402.2769503999989,402.2603788999986,402.4609290999979,2,1,0.2785096000006888,402.2603788999986,None,None,None,False,None,None,None,None,None,None,None,None,None,None,None,None,,,,,,,,,,,,,,,,,,,,,,,,,,,,,,AG05AS29,1,0x5FB8,D:\CoScience\Logfiles\,2022_Mar_17_1252,Flanker,2020.1.3,59.97710074312637,
HHH HHH,HHHHHHH,30,H,,,,,,,,,0,0,0,0,14,11,179,9,,,,,,,0.9161171536130546,403.9642117000003,None,2,,,,,,,,,,,,,134,130,137,403.5778231999975,403.67787119999775,403.6607602999975,403.8613034000009,2,1,0.2783165000000736,403.6607602999975,None,None,None,False,None,None,None,None,None,None,None,None,None,None,None,None,,,,,,,,,,,,,,,,,,,,,,,,,,,,,,AG05AS29,1,0x5FB8,D:\CoScience\Logfiles\,2022_Mar_17_1252,Flanker,2020.1.3,59.97710074312637,
SSS SSS,SSSSSSS,30,S,,,,,,,,,0,0,0,0,15,0,180,5,,,,,,,0.884021366270213,405.2808441999987,None,4,,,,,,,,,,,,,134,130,137,404.89551270000084,404.9944909000005,404.9944909000005,405.1945541999994,4,1,0.26633380000203033,404.9944909000005,None,None,None,False,None,None,None,None,None,None,None,None,None,None,None,None,,,,,,,,,,,,,,,,,,,,,,,,,,,,,,AG05AS29,1,0x5FB8,D:\CoScience\Logfiles\,2022_Mar_17_1252,Flanker,2020.1.3,59.97710074312637,
HHH HHH,HHHHHHH,30,H,,,,,,,,,0,0,0,0,15,1,181,10,,,,,,,0.8453080416613724,406.64827180000066,None,2,,,,,,,,,,,,,134,130,137,406.1789820999984,406.2779217999996,406.2779217999996,406.47796870000093,2,1,0.3388589000023785,406.2779217999996,None,None,None,False,None,None,None,None,None,None,None,None,None,None,None,None,,,,,,,,,,,,,,,,,,,,,,,,,,,,,,AG05AS29,1,0x5FB8,D:\CoScience\Logfiles\,2022_Mar_17_1252,Flanker,2020.1.3,59.97710074312637,
HHH HHH,HHHHHHH,30,H,,,,,,,,,0,0,0,0,15,2,182,11,,,,,,,0.9899671016979127,407.89808020000055,None,2,,,,,,,,,,,,,134,130,137,407.49429210000017,407.5945028999995,407.5778430999999,407.7779561999996,2,1,0.2942189999994298,407.5778430999999,None,None,None,False,None,None,None,None,None,None,None,None,None,None,None,None,,,,,,,,,,,,,,,,,,,,,,,,,,,,,,AG05AS29,1,0x5FB8,D:\CoScience\Logfiles\,2022_Mar_17_1252,Flanker,2020.1.3,59.97710074312637,
SSS SSS,SSSSSSS,30,S,,,,,,,,,0,0,0,0,15,3,183,5,,,,,,,0.966609422485034,409.31467039999916,None,4,,,,,,,,,,,,,134,130,137,408.89584249999825,409.011129399998,408.99458179999783,409.1945917999983,4,1,0.3005656999994244,408.99458179999783,None,None,None,False,None,None,None,None,None,None,None,None,None,None,None,None,,,,,,,,,,,,,,,,,,,,,,,,,,,,,,AG05AS29,1,0x5FB8,D:\CoScience\Logfiles\,2022_Mar_17_1252,Flanker,2020.1.3,59.97710074312637,
HHH HHH,HHHHHHH,30,H,,,,,,,,,0,0,0,0,15,4,184,9,,,,,,,0.8812029488840326,410.68145599999843,None,2,,,,,,,,,,,,,134,130,137,410.2960443000011,410.41118690000076,410.3945251999976,410.59458299999824,2,1,0.25463690000106,410.3945251999976,None,None,None,False,None,None,None,None,None,None,None,None,None,None,None,None,,,,,,,,,,,,,,,,,,,,,,,,,,,,,,AG05AS29,1,0x5FB8,D:\CoScience\Logfiles\,2022_Mar_17_1252,Flanker,2020.1.3,59.97710074312637,
HHH HHH,HHHHHHH,30,H,,,,,,,,,0,0,0,0,15,5,185,10,,,,,,,0.9499145856824232,411.9982407999996,None,2,,,,,,,,,,,,,134,130,137,411.5775974999997,411.67789899999843,411.6611993000006,411.86127289999786,2,1,0.3176117000002705,411.6611993000006,None,None,None,False,None,None,None,None,None,None,None,None,None,None,None,None,,,,,,,,,,,,,,,,,,,,,,,,,,,,,,AG05AS29,1,0x5FB8,D:\CoScience\Logfiles\,2022_Mar_17_1252,Flanker,2020.1.3,59.97710074312637,
SSH HSS,SSHHHSS,10,H,,,,,,,,,0,0,0,0,15,6,186,7,,,,,,,0.9572737137601053,413.3978153999997,None,2,,,,,,,,,,,,,114,110,117,412.9635211999994,413.0778107999977,413.061260399998,413.26123129999905,2,1,0.31670110000050045,413.061260399998,None,None,None,False,None,None,None,None,None,None,None,None,None,None,None,None,,,,,,,,,,,,,,,,,,,,,,,,,,,,,,AG05AS29,1,0x5FB8,D:\CoScience\Logfiles\,2022_Mar_17_1252,Flanker,2020.1.3,59.97710074312637,
HHH HHH,HHHSHHH,0,S,,,,,,,,,0,0,0,0,15,7,187,0,,,,,,,0.9015846434923209,414.83137759999954,None,4,,,,,,,,,,,,,104,100,107,414.36227660000077,414.4777995000004,414.4612448000007,414.677929999998,4,1,0.33582019999812474,414.4612448000007,None,None,None,False,None,None,None,None,None,None,None,None,None,None,None,None,,,,,,,,,,,,,,,,,,,,,,,,,,,,,,AG05AS29,1,0x5FB8,D:\CoScience\Logfiles\,2022_Mar_17_1252,Flanker,2020.1.3,59.97710074312637,
SSS SSS,SSSSSSS,30,S,,,,,,,,,0,0,0,0,15,8,188,4,,,,,,,0.9880490199457256,416.16494989999774,None,4,,,,,,,,,,,,,134,130,137,415.7454988999998,415.8445627000001,415.8445627000001,416.04456039999786,4,1,0.295228800001496,415.8445627000001,None,None,None,False,None,None,None,None,None,None,None,None,None,None,None,None,,,,,,,,,,,,,,,,,,,,,,,,,,,,,,AG05AS29,1,0x5FB8,D:\CoScience\Logfiles\,2022_Mar_17_1252,Flanker,2020.1.3,59.97710074312637,
SSH HSS,SSHHHSS,10,H,,,,,,,,,0,0,0,0,15,9,189,7,,,,,,,0.9666049457419996,417.5473897000011,None,2,,,,,,,,,,,,,114,110,119,417.1621966999992,417.27784299999985,417.261176,417.4613529999988,4,0,0.25498959999822546,417.261176,None,None,None,False,None,None,None,None,None,None,None,None,None,None,None,None,,,,,,,,,,,,,,,,,,,,,,,,,,,,,,AG05AS29,1,0x5FB8,D:\CoScience\Logfiles\,2022_Mar_17_1252,Flanker,2020.1.3,59.97710074312637,
SSS SSS,SSSSSSS,30,S,,,,,,,,,0,0,0,0,15,10,190,4,,,,,,,0.9671563229385877,418.93139249999876,None,4,,,,,,,,,,,,,134,130,137,418.5291651999978,418.6444014000008,418.6279407000002,418.8279346999989,4,1,0.2780538000006345,418.6279407000002,None,None,None,False,None,None,None,None,None,None,None,None,None,None,None,None,,,,,,,,,,,,,,,,,,,,,,,,,,,,,,AG05AS29,1,0x5FB8,D:\CoScience\Logfiles\,2022_Mar_17_1252,Flanker,2020.1.3,59.97710074312637,
HHH HHH,HHHHHHH,30,H,,,,,,,,,0,0,0,0,15,11,191,9,,,,,,,0.8225970354795069,459.46120750000046,None,2,,,,,,,,,,,,,134,130,137,419.9123899999977,420.0278369999978,420.01117689999955,420.2111272000002,2,1,0.2387791000001016,420.01117689999955,None,None,None,False,None,None,None,None,None,420.28529680000065,None,space,422.277823299999,None,459.3619884,None,37.0681676000022,,,,,,,,,,,,,,,,,,,,,,,,,,,,,AG05AS29,1,0x5FB8,D:\CoScience\Logfiles\,2022_Mar_17_1252,Flanker,2020.1.3,59.97710074312637,
HHH HHH,HHHHHHH,30,H,,,,,,,,,0,0,0,0,16,0,192,10,,,,,,,0.8312979052868454,460.7479577999984,None,2,,,,,,,,,,,,,134,130,137,460.2944313000007,460.394411199999,460.37787390000085,460.57775709999987,2,1,0.33483090000299853,460.37787390000085,None,None,None,False,None,None,None,None,None,None,None,None,None,None,None,None,,,,,,,,,,,,,,,,,,,,,,,,,,,,,,AG05AS29,1,0x5FB8,D:\CoScience\Logfiles\,2022_Mar_17_1252,Flanker,2020.1.3,59.97710074312637,
HHH HHH,HHHHHHH,30,H,,,,,,,,,0,0,0,0,16,1,193,10,,,,,,,0.9096568580708283,462.014181999999,None,2,,,,,,,,,,,,,134,130,137,461.5943621000006,461.69405370000095,461.6773652000011,461.8778392999993,2,1,0.3084338000007847,461.6773652000011,None,None,None,False,None,None,None,None,None,None,None,None,None,None,None,None,,,,,,,,,,,,,,,,,,,,,,,,,,,,,,AG05AS29,1,0x5FB8,D:\CoScience\Logfiles\,2022_Mar_17_1252,Flanker,2020.1.3,59.97710074312637,
SSS SSS,SSSSSSS,30,S,,,,,,,,,0,0,0,0,16,2,194,4,,,,,,,0.9419090138841693,463.3308818999976,None,4,,,,,,,,,,,,,134,130,137,462.9297155999993,463.04441790000055,463.0278107999984,463.2274834999989,4,1,0.27816859999802546,463.0278107999984,None,None,None,False,None,None,None,None,None,None,None,None,None,None,None,None,,,,,,,,,,,,,,,,,,,,,,,,,,,,,,AG05AS29,1,0x5FB8,D:\CoScience\Logfiles\,2022_Mar_17_1252,Flanker,2020.1.3,59.97710074312637,
HHH HHH,HHHHHHH,30,H,,,,,,,,,0,0,0,0,16,3,195,9,,,,,,,0.8807005367276757,464.6307529000005,None,2,,,,,,,,,,,,,134,130,137,464.27955250000014,464.39442789999885,464.3778428000005,464.5777616999985,2,1,0.23183649999918998,464.3778428000005,None,None,None,False,None,None,None,None,None,None,None,None,None,None,None,None,,,,,,,,,,,,,,,,,,,,,,,,,,,,,,AG05AS29,1,0x5FB8,D:\CoScience\Logfiles\,2022_Mar_17_1252,Flanker,2020.1.3,59.97710074312637,
HHH HHH,HHHSHHH,0,S,,,,,,,,,0,0,0,0,16,4,196,0,,,,,,,0.7730608348165905,466.01484150000033,None,4,,,,,,,,,,,,,104,100,107,465.5127399999983,465.6268870999993,465.5944082999995,465.7944853000008,4,1,0.39030020000063814,465.5944082999995,None,None,None,False,None,None,None,None,None,None,None,None,None,None,None,None,,,,,,,,,,,,,,,,,,,,,,,,,,,,,,AG05AS29,1,0x5FB8,D:\CoScience\Logfiles\,2022_Mar_17_1252,Flanker,2020.1.3,59.97710074312637,
HHH HHH,HHHSHHH,0,S,,,,,,,,,0,0,0,0,16,5,197,0,,,,,,,0.8511695334230438,467.24805209999977,None,4,,,,,,,,,,,,,104,100,107,466.79439920000004,466.8944365999996,466.8778440999995,467.0777849999977,4,1,0.34785529999862774,466.8778440999995,None,None,None,False,None,None,None,None,None,None,None,None,None,None,None,None,,,,,,,,,,,,,,,,,,,,,,,,,,,,,,AG05AS29,1,0x5FB8,D:\CoScience\Logfiles\,2022_Mar_17_1252,Flanker,2020.1.3,59.97710074312637,
HHH HHH,HHHHHHH,30,H,,,,,,,,,0,0,0,0,16,6,198,10,,,,,,,0.9621939294408705,468.4980862000011,None,2,,,,,,,,,,,,,134,130,137,468.1116571999992,468.2110732000001,468.2110732000001,468.41112299999804,2,1,0.2586443000000145,468.2110732000001,None,None,None,False,None,None,None,None,None,None,None,None,None,None,None,None,,,,,,,,,,,,,,,,,,,,,,,,,,,,,,AG05AS29,1,0x5FB8,D:\CoScience\Logfiles\,2022_Mar_17_1252,Flanker,2020.1.3,59.97710074312637,
HHH HHH,HHHHHHH,30,H,,,,,,,,,0,0,0,0,16,7,199,9,,,,,,,0.7722732189114794,469.84804059999806,None,2,,,,,,,,,,,,,134,130,137,469.4607493000003,469.56109279999873,469.5444400999986,469.74449919999824,2,1,0.28146080000078655,469.5444400999986,None,None,None,False,None,None,None,None,None,None,None,None,None,None,None,None,,,,,,,,,,,,,,,,,,,,,,,,,,,,,,AG05AS29,1,0x5FB8,D:\CoScience\Logfiles\,2022_Mar_17_1252,Flanker,2020.1.3,59.97710074312637,
HSS SSH,HSSSSSH,20,S,,,,,,,,,0,0,0,0,16,8,200,2,,,,,,,0.7554146911729139,471.0647919000003,None,4,,,,,,,,,,,,,124,120,127,470.62969059999887,470.74424250000084,470.7278081999975,470.9278895999996,4,1,0.3118830999992497,470.7278081999975,None,None,None,False,None,None,None,None,None,None,None,None,None,None,None,None,,,,,,,,,,,,,,,,,,,,,,,,,,,,,,AG05AS29,1,0x5FB8,D:\CoScience\Logfiles\,2022_Mar_17_1252,Flanker,2020.1.3,59.97710074312637,
SSS SSS,SSSHSSS,0,H,,,,,,,,,0,0,0,0,16,9,201,6,,,,,,,0.8443241956230196,472.2981484000011,None,2,,,,,,,,,,,,,104,100,107,471.8298075999992,471.94445859999905,471.9277684999979,472.12791039999865,2,1,0.3520502999999735,471.9277684999979,None,None,None,False,None,None,None,None,None,None,None,None,None,None,None,None,,,,,,,,,,,,,,,,,,,,,,,,,,,,,,AG05AS29,1,0x5FB8,D:\CoScience\Logfiles\,2022_Mar_17_1252,Flanker,2020.1.3,59.97710074312637,
SHH HHS,SHHHHHS,20,H,,,,,,,,,0,0,0,0,16,10,202,8,,,,,,,0.8997735184521478,473.5981049000002,None,2,,,,,,,,,,,,,124,120,127,473.14658489999783,473.2610879999993,473.2445289999996,473.44414459999825,2,1,0.3341660000005504,473.2445289999996,None,None,None,False,None,None,None,None,None,None,None,None,None,None,None,None,,,,,,,,,,,,,,,,,,,,,,,,,,,,,,AG05AS29,1,0x5FB8,D:\CoScience\Logfiles\,2022_Mar_17_1252,Flanker,2020.1.3,59.97710074312637,
HHH HHH,HHHHHHH,30,H,,,,,,,,,0,0,0,0,16,11,203,11,,,,,,,0.8848972420734379,474.8814100999989,None,2,,,,,,,,,,,,,134,130,137,474.5123416999995,474.62659469999926,474.61110909999843,474.81106419999924,2,1,0.24755480000021635,474.61110909999843,None,None,None,False,None,None,None,None,None,None,None,None,None,None,None,None,,,,,,,,,,,,,,,,,,,,,,,,,,,,,,AG05AS29,1,0x5FB8,D:\CoScience\Logfiles\,2022_Mar_17_1252,Flanker,2020.1.3,59.97710074312637,
SSS SSS,SSSHSSS,0,H,,,,,,,,,0,0,0,0,17,0,204,6,,,,,,,0.8111642625461041,476.181560099998,None,2,,,,,,,,,,,,,104,100,109,475.7786434000009,475.87783339999805,475.87783339999805,476.07785349999904,4,0,0.2820840999993379,475.87783339999805,None,None,None,False,None,None,None,None,None,None,None,None,None,None,None,None,,,,,,,,,,,,,,,,,,,,,,,,,,,,,,AG05AS29,1,0x5FB8,D:\CoScience\Logfiles\,2022_Mar_17_1252,Flanker,2020.1.3,59.97710074312637,
HHH HHH,HHHHHHH,30,H,,,,,,,,,0,0,0,0,17,1,205,9,,,,,,,0.877292633292577,477.4146823999981,None,2,,,,,,,,,,,,,134,130,137,476.9965340999988,477.1109261999991,477.0946350999984,477.29446579999785,2,1,0.28805410000131815,477.0946350999984,None,None,None,False,None,None,None,None,None,None,None,None,None,None,None,None,,,,,,,,,,,,,,,,,,,,,,,,,,,,,,AG05AS29,1,0x5FB8,D:\CoScience\Logfiles\,2022_Mar_17_1252,Flanker,2020.1.3,59.97710074312637,
HHH HHH,HHHSHHH,0,S,,,,,,,,,0,0,0,0,17,2,206,0,,,,,,,0.9098621612291642,478.74808219999977,None,4,,,,,,,,,,,,,104,100,107,478.2952899999982,478.39441409999927,478.37772069999846,478.5778234999998,4,1,0.34743779999917024,478.37772069999846,None,None,None,False,None,None,None,None,None,None,None,None,None,None,None,None,,,,,,,,,,,,,,,,,,,,,,,,,,,,,,AG05AS29,1,0x5FB8,D:\CoScience\Logfiles\,2022_Mar_17_1252,Flanker,2020.1.3,59.97710074312637,
HHS SHH,HHSSSHH,10,S,,,,,,,,,0,0,0,0,17,3,207,1,,,,,,,0.8255270653578313,480.0978097999978,None,4,,,,,,,,,,,,,114,110,117,479.662261999998,479.77768859999924,479.7611773999997,479.96077030000015,4,1,0.3116000999980315,479.7611773999997,None,None,None,False,None,None,None,None,None,None,None,None,None,None,None,None,,,,,,,,,,,,,,,,,,,,,,,,,,,,,,AG05AS29,1,0x5FB8,D:\CoScience\Logfiles\,2022_Mar_17_1252,Flanker,2020.1.3,59.97710074312637,
SHH HHS,SHHHHHS,20,H,,,,,,,,,0,0,0,0,17,4,208,8,,,,,,,0.9058868876093361,481.39798209999935,None,2,,,,,,,,,,,,,124,120,127,480.9288029999989,481.0443732999993,481.02780820000044,481.2278187999982,2,1,0.33905890000096406,481.02780820000044,None,None,None,False,None,None,None,None,None,None,None,None,None,None,None,None,,,,,,,,,,,,,,,,,,,,,,,,,,,,,,AG05AS29,1,0x5FB8,D:\CoScience\Logfiles\,2022_Mar_17_1252,Flanker,2020.1.3,59.97710074312637,
SHH HHS,SHHHHHS,20,H,,,,,,,,,0,0,0,0,17,5,209,8,,,,,,,0.8258637638140106,482.7144924999993,None,2,,,,,,,,,,,,,124,120,127,482.3108992999987,482.41096280000056,482.3944494999996,482.5945049000002,2,1,0.2984446000009484,482.3944494999996,None,None,None,False,None,None,None,None,None,None,None,None,None,None,None,None,,,,,,,,,,,,,,,,,,,,,,,,,,,,,,AG05AS29,1,0x5FB8,D:\CoScience\Logfiles\,2022_Mar_17_1252,Flanker,2020.1.3,59.97710074312637,
