"Onset","Duration","Participant","date_time","Order_Experimenter","Response_Mapping","Running","Trial","Event","ExperimenterPresence","Congruency","Target","Response","Accuracy","RT","RT_Condition","Post_Trial","Cutoff","TaskPerf"
76.7928820999987,0.1,"AG05AS29","2022_Mar_17_1252","NotPresent_First","S_blue","Practice",0,"PracFlankers",NA,1,"H","2",1,0.707511500000692,NA,NA,NA,89.2361111111111
76.8784916999994,0.2,"AG05AS29","2022_Mar_17_1252","NotPresent_First","S_blue","Practice",0,"PracTarget",NA,1,"H","2",1,0.707511500000692,NA,NA,NA,89.2361111111111
77.5860032000001,0,"AG05AS29","2022_Mar_17_1252","NotPresent_First","S_blue","Practice",0,"PracResponse",NA,1,"H","2",1,0.707511500000692,NA,NA,NA,89.2361111111111
78.6094517000001,0.1,"AG05AS29","2022_Mar_17_1252","NotPresent_First","S_blue","Practice",1,"PracFlankers",NA,0.66,"S","4",1,0.541994700000942,NA,NA,NA,89.2361111111111
78.6950760999989,0.2,"AG05AS29","2022_Mar_17_1252","NotPresent_First","S_blue","Practice",1,"PracTarget",NA,0.66,"S","4",1,0.541994700000942,NA,NA,NA,89.2361111111111
79.2370707999999,0,"AG05AS29","2022_Mar_17_1252","NotPresent_First","S_blue","Practice",1,"PracResponse",NA,0.66,"S","4",1,0.541994700000942,NA,NA,NA,89.2361111111111
80.0795743999988,0.1,"AG05AS29","2022_Mar_17_1252","NotPresent_First","S_blue","Practice",2,"PracFlankers",NA,1,"S","4",1,0.635559399999693,NA,NA,NA,89.2361111111111
80.1784170999999,0.2,"AG05AS29","2022_Mar_17_1252","NotPresent_First","S_blue","Practice",2,"PracTarget",NA,1,"S","4",1,0.635559399999693,NA,NA,NA,89.2361111111111
80.8139764999996,0,"AG05AS29","2022_Mar_17_1252","NotPresent_First","S_blue","Practice",2,"PracResponse",NA,1,"S","4",1,0.635559399999693,NA,NA,NA,89.2361111111111
81.761714799999,0.1,"AG05AS29","2022_Mar_17_1252","NotPresent_First","S_blue","Practice",3,"PracFlankers",NA,1,"S","4",1,0.388831099999152,NA,NA,NA,89.2361111111111
81.8451926999987,0.2,"AG05AS29","2022_Mar_17_1252","NotPresent_First","S_blue","Practice",3,"PracTarget",NA,1,"S","4",1,0.388831099999152,NA,NA,NA,89.2361111111111
82.2340237999979,0,"AG05AS29","2022_Mar_17_1252","NotPresent_First","S_blue","Practice",3,"PracResponse",NA,1,"S","4",1,0.388831099999152,NA,NA,NA,89.2361111111111
83.0956926999988,0.1,"AG05AS29","2022_Mar_17_1252","NotPresent_First","S_blue","Practice",4,"PracFlankers",NA,0.33,"H","2",1,0.368061999999554,NA,NA,NA,89.2361111111111
83.1950164999998,0.2,"AG05AS29","2022_Mar_17_1252","NotPresent_First","S_blue","Practice",4,"PracTarget",NA,0.33,"H","2",1,0.368061999999554,NA,NA,NA,89.2361111111111
83.5630784999994,0,"AG05AS29","2022_Mar_17_1252","NotPresent_First","S_blue","Practice",4,"PracResponse",NA,0.33,"H","2",1,0.368061999999554,NA,NA,NA,89.2361111111111
84.4117919,0.1,"AG05AS29","2022_Mar_17_1252","NotPresent_First","S_blue","Practice",5,"PracFlankers",NA,0.66,"S","4",1,0.49500529999932,NA,NA,NA,89.2361111111111
84.4949851000001,0.2,"AG05AS29","2022_Mar_17_1252","NotPresent_First","S_blue","Practice",5,"PracTarget",NA,0.66,"S","4",1,0.49500529999932,NA,NA,NA,89.2361111111111
84.9899903999994,0,"AG05AS29","2022_Mar_17_1252","NotPresent_First","S_blue","Practice",5,"PracResponse",NA,0.66,"S","4",1,0.49500529999932,NA,NA,NA,89.2361111111111
85.8110316999991,0.1,"AG05AS29","2022_Mar_17_1252","NotPresent_First","S_blue","Practice",6,"PracFlankers",NA,1,"H","2",1,0.50389130000076,NA,NA,NA,89.2361111111111
85.8951782999993,0.2,"AG05AS29","2022_Mar_17_1252","NotPresent_First","S_blue","Practice",6,"PracTarget",NA,1,"H","2",1,0.50389130000076,NA,NA,NA,89.2361111111111
86.3990696000001,0,"AG05AS29","2022_Mar_17_1252","NotPresent_First","S_blue","Practice",6,"PracResponse",NA,1,"H","2",1,0.50389130000076,NA,NA,NA,89.2361111111111
87.4293402999992,0.1,"AG05AS29","2022_Mar_17_1252","NotPresent_First","S_blue","Practice",7,"PracFlankers",NA,0.66,"H","2",1,0.356651000000056,NA,NA,NA,89.2361111111111
87.5284188999995,0.2,"AG05AS29","2022_Mar_17_1252","NotPresent_First","S_blue","Practice",7,"PracTarget",NA,0.66,"H","2",1,0.356651000000056,NA,NA,NA,89.2361111111111
87.8850698999995,0,"AG05AS29","2022_Mar_17_1252","NotPresent_First","S_blue","Practice",7,"PracResponse",NA,0.66,"H","2",1,0.356651000000056,NA,NA,NA,89.2361111111111
88.8793852999988,0.1,"AG05AS29","2022_Mar_17_1252","NotPresent_First","S_blue","Practice",8,"PracFlankers",NA,1,"H","2",1,0.430577299999641,NA,NA,NA,89.2361111111111
88.9784538999993,0.2,"AG05AS29","2022_Mar_17_1252","NotPresent_First","S_blue","Practice",8,"PracTarget",NA,1,"H","2",1,0.430577299999641,NA,NA,NA,89.2361111111111
89.4090311999989,0,"AG05AS29","2022_Mar_17_1252","NotPresent_First","S_blue","Practice",8,"PracResponse",NA,1,"H","2",1,0.430577299999641,NA,NA,NA,89.2361111111111
90.4281089999986,0.1,"AG05AS29","2022_Mar_17_1252","NotPresent_First","S_blue","Practice",9,"PracFlankers",NA,0,"H","2",1,0.470040799998969,NA,NA,NA,89.2361111111111
90.5280617999997,0.2,"AG05AS29","2022_Mar_17_1252","NotPresent_First","S_blue","Practice",9,"PracTarget",NA,0,"H","2",1,0.470040799998969,NA,NA,NA,89.2361111111111
90.9981025999987,0,"AG05AS29","2022_Mar_17_1252","NotPresent_First","S_blue","Practice",9,"PracResponse",NA,0,"H","2",1,0.470040799998969,NA,NA,NA,89.2361111111111
91.9621498999986,0.1,"AG05AS29","2022_Mar_17_1252","NotPresent_First","S_blue","Practice",10,"PracFlankers",NA,1,"H","2",1,0.385887899999943,NA,NA,NA,89.2361111111111
92.0451025999992,0.2,"AG05AS29","2022_Mar_17_1252","NotPresent_First","S_blue","Practice",10,"PracTarget",NA,1,"H","2",1,0.385887899999943,NA,NA,NA,89.2361111111111
92.4309904999991,0,"AG05AS29","2022_Mar_17_1252","NotPresent_First","S_blue","Practice",10,"PracResponse",NA,1,"H","2",1,0.385887899999943,NA,NA,NA,89.2361111111111
93.4137243999994,0.1,"AG05AS29","2022_Mar_17_1252","NotPresent_First","S_blue","Practice",11,"PracFlankers",NA,0.33,"S","4",1,0.374233700000332,NA,NA,NA,89.2361111111111
93.5117732999988,0.2,"AG05AS29","2022_Mar_17_1252","NotPresent_First","S_blue","Practice",11,"PracTarget",NA,0.33,"S","4",1,0.374233700000332,NA,NA,NA,89.2361111111111
93.8860069999992,0,"AG05AS29","2022_Mar_17_1252","NotPresent_First","S_blue","Practice",11,"PracResponse",NA,0.33,"S","4",1,0.374233700000332,NA,NA,NA,89.2361111111111
94.7459232000001,0.1,"AG05AS29","2022_Mar_17_1252","NotPresent_First","S_blue","Practice",12,"PracFlankers",NA,1,"S","4",1,0.346089500000744,NA,NA,NA,89.2361111111111
94.8450671999999,0.2,"AG05AS29","2022_Mar_17_1252","NotPresent_First","S_blue","Practice",12,"PracTarget",NA,1,"S","4",1,0.346089500000744,NA,NA,NA,89.2361111111111
95.1911567000006,0,"AG05AS29","2022_Mar_17_1252","NotPresent_First","S_blue","Practice",12,"PracResponse",NA,1,"S","4",1,0.346089500000744,NA,NA,NA,89.2361111111111
96.0129445999992,0.1,"AG05AS29","2022_Mar_17_1252","NotPresent_First","S_blue","Practice",13,"PracFlankers",NA,0,"S","4",1,0.403194799999255,NA,NA,NA,89.2361111111111
96.1117780999994,0.2,"AG05AS29","2022_Mar_17_1252","NotPresent_First","S_blue","Practice",13,"PracTarget",NA,0,"S","4",1,0.403194799999255,NA,NA,NA,89.2361111111111
96.5149728999986,0,"AG05AS29","2022_Mar_17_1252","NotPresent_First","S_blue","Practice",13,"PracResponse",NA,0,"S","4",1,0.403194799999255,NA,NA,NA,89.2361111111111
97.4961577999984,0.1,"AG05AS29","2022_Mar_17_1252","NotPresent_First","S_blue","Practice",14,"PracFlankers",NA,1,"S","4",1,0.349945399999342,NA,NA,NA,89.2361111111111
97.595004499999,0.2,"AG05AS29","2022_Mar_17_1252","NotPresent_First","S_blue","Practice",14,"PracTarget",NA,1,"S","4",1,0.349945399999342,NA,NA,NA,89.2361111111111
97.9449498999984,0,"AG05AS29","2022_Mar_17_1252","NotPresent_First","S_blue","Practice",14,"PracResponse",NA,1,"S","4",1,0.349945399999342,NA,NA,NA,89.2361111111111
106.473042,0.1,"AG05AS29","2022_Mar_17_1252","NotPresent_First","S_blue","MainTask",0,"Flanker","absent",0,"S","4",1,0.480631200000062,"fast",NA,0.511511969566345,89.2361111111111
106.5616828,0.2,"AG05AS29","2022_Mar_17_1252","NotPresent_First","S_blue","MainTask",0,"Target","absent",0,"S","4",1,0.480631200000062,"fast",NA,0.511511969566345,89.2361111111111
107.042314,0,"AG05AS29","2022_Mar_17_1252","NotPresent_First","S_blue","MainTask",0,"Response","absent",0,"S","4",1,0.480631200000062,"fast",NA,0.511511969566345,89.2361111111111
107.980109599999,0.1,"AG05AS29","2022_Mar_17_1252","NotPresent_First","S_blue","MainTask",1,"Flanker","absent",1,"S","4",1,0.311328899999353,"fast","post_correct",0.511511969566345,89.2361111111111
108.078052199999,0.2,"AG05AS29","2022_Mar_17_1252","NotPresent_First","S_blue","MainTask",1,"Target","absent",1,"S","4",1,0.311328899999353,"fast","post_correct",0.511511969566345,89.2361111111111
108.389381099998,0,"AG05AS29","2022_Mar_17_1252","NotPresent_First","S_blue","MainTask",1,"Response","absent",1,"S","4",1,0.311328899999353,"fast","post_correct",0.511511969566345,89.2361111111111
109.361588899999,0.1,"AG05AS29","2022_Mar_17_1252","NotPresent_First","S_blue","MainTask",2,"Flanker","absent",1,"S","4",1,0.331081899999845,"fast","post_correct",0.511511969566345,89.2361111111111
109.444645599999,0.2,"AG05AS29","2022_Mar_17_1252","NotPresent_First","S_blue","MainTask",2,"Target","absent",1,"S","4",1,0.331081899999845,"fast","post_correct",0.511511969566345,89.2361111111111
109.775727499999,0,"AG05AS29","2022_Mar_17_1252","NotPresent_First","S_blue","MainTask",2,"Response","absent",1,"S","4",1,0.331081899999845,"fast","post_correct",0.511511969566345,89.2361111111111
110.6615191,0.1,"AG05AS29","2022_Mar_17_1252","NotPresent_First","S_blue","MainTask",3,"Flanker","absent",1,"S","4",1,0.315387900000133,"fast","post_correct",0.511511969566345,89.2361111111111
110.745074499999,0.2,"AG05AS29","2022_Mar_17_1252","NotPresent_First","S_blue","MainTask",3,"Target","absent",1,"S","4",1,0.315387900000133,"fast","post_correct",0.511511969566345,89.2361111111111
111.060462399999,0,"AG05AS29","2022_Mar_17_1252","NotPresent_First","S_blue","MainTask",3,"Response","absent",1,"S","4",1,0.315387900000133,"fast","post_correct",0.511511969566345,89.2361111111111
111.861675599999,0.1,"AG05AS29","2022_Mar_17_1252","NotPresent_First","S_blue","MainTask",4,"Flanker","absent",1,"S","4",1,0.332177700000102,"fast","post_correct",0.511511969566345,89.2361111111111
111.945051499999,0.2,"AG05AS29","2022_Mar_17_1252","NotPresent_First","S_blue","MainTask",4,"Target","absent",1,"S","4",1,0.332177700000102,"fast","post_correct",0.511511969566345,89.2361111111111
112.277229199999,0,"AG05AS29","2022_Mar_17_1252","NotPresent_First","S_blue","MainTask",4,"Response","absent",1,"S","4",1,0.332177700000102,"fast","post_correct",0.511511969566345,89.2361111111111
113.0782076,0.1,"AG05AS29","2022_Mar_17_1252","NotPresent_First","S_blue","MainTask",5,"Flanker","absent",1,"S","4",1,0.343653199999608,"fast","post_correct",0.511511969566345,89.2361111111111
113.161823999999,0.2,"AG05AS29","2022_Mar_17_1252","NotPresent_First","S_blue","MainTask",5,"Target","absent",1,"S","4",1,0.343653199999608,"fast","post_correct",0.511511969566345,89.2361111111111
113.505477199998,0,"AG05AS29","2022_Mar_17_1252","NotPresent_First","S_blue","MainTask",5,"Response","absent",1,"S","4",1,0.343653199999608,"fast","post_correct",0.511511969566345,89.2361111111111
114.461482699999,0.1,"AG05AS29","2022_Mar_17_1252","NotPresent_First","S_blue","MainTask",6,"Flanker","absent",1,"S","4",1,0.332095600000684,"fast","post_correct",0.511511969566345,89.2361111111111
114.544443899998,0.2,"AG05AS29","2022_Mar_17_1252","NotPresent_First","S_blue","MainTask",6,"Target","absent",1,"S","4",1,0.332095600000684,"fast","post_correct",0.511511969566345,89.2361111111111
114.876539499999,0,"AG05AS29","2022_Mar_17_1252","NotPresent_First","S_blue","MainTask",6,"Response","absent",1,"S","4",1,0.332095600000684,"fast","post_correct",0.511511969566345,89.2361111111111
115.679531099999,0.1,"AG05AS29","2022_Mar_17_1252","NotPresent_First","S_blue","MainTask",7,"Flanker","absent",0,"H","2",1,0.478433799999038,"fast","post_correct",0.511511969566345,89.2361111111111
115.761828199998,0.2,"AG05AS29","2022_Mar_17_1252","NotPresent_First","S_blue","MainTask",7,"Target","absent",0,"H","2",1,0.478433799999038,"fast","post_correct",0.511511969566345,89.2361111111111
116.240261999998,0,"AG05AS29","2022_Mar_17_1252","NotPresent_First","S_blue","MainTask",7,"Response","absent",0,"H","2",1,0.478433799999038,"fast","post_correct",0.511511969566345,89.2361111111111
117.2295961,0.1,"AG05AS29","2022_Mar_17_1252","NotPresent_First","S_blue","MainTask",8,"Flanker","absent",1,"H","2",1,0.326959500000157,"fast","post_correct",0.511511969566345,89.2361111111111
117.328415999998,0.2,"AG05AS29","2022_Mar_17_1252","NotPresent_First","S_blue","MainTask",8,"Target","absent",1,"H","2",1,0.326959500000157,"fast","post_correct",0.511511969566345,89.2361111111111
117.655375499999,0,"AG05AS29","2022_Mar_17_1252","NotPresent_First","S_blue","MainTask",8,"Response","absent",1,"H","2",1,0.326959500000157,"fast","post_correct",0.511511969566345,89.2361111111111
118.678971199999,0.1,"AG05AS29","2022_Mar_17_1252","NotPresent_First","S_blue","MainTask",9,"Flanker","absent",0.66,"H","2",1,0.285271000000648,"fast","post_correct",0.511511969566345,89.2361111111111
118.7779904,0.2,"AG05AS29","2022_Mar_17_1252","NotPresent_First","S_blue","MainTask",9,"Target","absent",0.66,"H","2",1,0.285271000000648,"fast","post_correct",0.511511969566345,89.2361111111111
119.063261400001,0,"AG05AS29","2022_Mar_17_1252","NotPresent_First","S_blue","MainTask",9,"Response","absent",0.66,"H","2",1,0.285271000000648,"fast","post_correct",0.511511969566345,89.2361111111111
119.876114799999,0.1,"AG05AS29","2022_Mar_17_1252","NotPresent_First","S_blue","MainTask",10,"Flanker","absent",1,"H","2",1,0.337527700001374,"fast","post_correct",0.511511969566345,89.2361111111111
119.961704599998,0.2,"AG05AS29","2022_Mar_17_1252","NotPresent_First","S_blue","MainTask",10,"Target","absent",1,"H","2",1,0.337527700001374,"fast","post_correct",0.511511969566345,89.2361111111111
120.2992323,0,"AG05AS29","2022_Mar_17_1252","NotPresent_First","S_blue","MainTask",10,"Response","absent",1,"H","2",1,0.337527700001374,"fast","post_correct",0.511511969566345,89.2361111111111
121.196821399999,0.1,"AG05AS29","2022_Mar_17_1252","NotPresent_First","S_blue","MainTask",11,"Flanker","absent",0.66,"H","2",1,0.308140700000877,"fast","post_correct",0.511511969566345,89.2361111111111
121.295112899999,0.2,"AG05AS29","2022_Mar_17_1252","NotPresent_First","S_blue","MainTask",11,"Target","absent",0.66,"H","2",1,0.308140700000877,"fast","post_correct",0.511511969566345,89.2361111111111
121.6032536,0,"AG05AS29","2022_Mar_17_1252","NotPresent_First","S_blue","MainTask",11,"Response","absent",0.66,"H","2",1,0.308140700000877,"fast","post_correct",0.511511969566345,89.2361111111111
122.5304354,0.1,"AG05AS29","2022_Mar_17_1252","NotPresent_First","S_blue","MainTask",12,"Flanker","absent",0,"S","4",1,0.330456699999559,"fast","post_correct",0.511511969566345,89.2361111111111
122.628372199999,0.2,"AG05AS29","2022_Mar_17_1252","NotPresent_First","S_blue","MainTask",12,"Target","absent",0,"S","4",1,0.330456699999559,"fast","post_correct",0.511511969566345,89.2361111111111
122.958828899998,0,"AG05AS29","2022_Mar_17_1252","NotPresent_First","S_blue","MainTask",12,"Response","absent",0,"S","4",1,0.330456699999559,"fast","post_correct",0.511511969566345,89.2361111111111
123.862899799999,0.1,"AG05AS29","2022_Mar_17_1252","NotPresent_First","S_blue","MainTask",13,"Flanker","absent",1,"S","4",1,0.375605600000199,"fast","post_correct",0.511511969566345,89.2361111111111
123.961647299999,0.2,"AG05AS29","2022_Mar_17_1252","NotPresent_First","S_blue","MainTask",13,"Target","absent",1,"S","4",1,0.375605600000199,"fast","post_correct",0.511511969566345,89.2361111111111
124.337252899999,0,"AG05AS29","2022_Mar_17_1252","NotPresent_First","S_blue","MainTask",13,"Response","absent",1,"S","4",1,0.375605600000199,"fast","post_correct",0.511511969566345,89.2361111111111
125.313618999999,0.1,"AG05AS29","2022_Mar_17_1252","NotPresent_First","S_blue","MainTask",14,"Flanker","absent",0.33,"H","2",1,0.42253349999919,"fast","post_correct",0.511511969566345,89.2361111111111
125.411718399999,0.2,"AG05AS29","2022_Mar_17_1252","NotPresent_First","S_blue","MainTask",14,"Target","absent",0.33,"H","2",1,0.42253349999919,"fast","post_correct",0.511511969566345,89.2361111111111
125.834251899998,0,"AG05AS29","2022_Mar_17_1252","NotPresent_First","S_blue","MainTask",14,"Response","absent",0.33,"H","2",1,0.42253349999919,"fast","post_correct",0.511511969566345,89.2361111111111
126.863630299998,0.1,"AG05AS29","2022_Mar_17_1252","NotPresent_First","S_blue","MainTask",15,"Flanker","absent",1,"S","4",1,0.335554900000716,"fast","post_correct",0.511511969566345,89.2361111111111
126.961796,0.2,"AG05AS29","2022_Mar_17_1252","NotPresent_First","S_blue","MainTask",15,"Target","absent",1,"S","4",1,0.335554900000716,"fast","post_correct",0.511511969566345,89.2361111111111
127.2973509,0,"AG05AS29","2022_Mar_17_1252","NotPresent_First","S_blue","MainTask",15,"Response","absent",1,"S","4",1,0.335554900000716,"fast","post_correct",0.511511969566345,89.2361111111111
128.1959147,0.1,"AG05AS29","2022_Mar_17_1252","NotPresent_First","S_blue","MainTask",16,"Flanker","absent",1,"H","2",1,0.326283899999908,"fast","post_correct",0.511511969566345,89.2361111111111
128.2950657,0.2,"AG05AS29","2022_Mar_17_1252","NotPresent_First","S_blue","MainTask",16,"Target","absent",1,"H","2",1,0.326283899999908,"fast","post_correct",0.511511969566345,89.2361111111111
128.6213496,0,"AG05AS29","2022_Mar_17_1252","NotPresent_First","S_blue","MainTask",16,"Response","absent",1,"H","2",1,0.326283899999908,"fast","post_correct",0.511511969566345,89.2361111111111
129.4970034,0.1,"AG05AS29","2022_Mar_17_1252","NotPresent_First","S_blue","MainTask",17,"Flanker","absent",0.33,"H","2",1,0.324378700001034,"fast","post_correct",0.511511969566345,89.2361111111111
129.595066099999,0.2,"AG05AS29","2022_Mar_17_1252","NotPresent_First","S_blue","MainTask",17,"Target","absent",0.33,"H","2",1,0.324378700001034,"fast","post_correct",0.511511969566345,89.2361111111111
129.9194448,0,"AG05AS29","2022_Mar_17_1252","NotPresent_First","S_blue","MainTask",17,"Response","absent",0.33,"H","2",1,0.324378700001034,"fast","post_correct",0.511511969566345,89.2361111111111
130.779656199998,0.1,"AG05AS29","2022_Mar_17_1252","NotPresent_First","S_blue","MainTask",18,"Flanker","absent",0,"H","2",1,0.463977800000066,"fast","post_correct",0.511511969566345,89.2361111111111
130.878283999999,0.2,"AG05AS29","2022_Mar_17_1252","NotPresent_First","S_blue","MainTask",18,"Target","absent",0,"H","2",1,0.463977800000066,"fast","post_correct",0.511511969566345,89.2361111111111
131.342261799999,0,"AG05AS29","2022_Mar_17_1252","NotPresent_First","S_blue","MainTask",18,"Response","absent",0,"H","2",1,0.463977800000066,"fast","post_correct",0.511511969566345,89.2361111111111
132.2125662,0.1,"AG05AS29","2022_Mar_17_1252","NotPresent_First","S_blue","MainTask",19,"Flanker","absent",1,"H","2",1,0.305508999999802,"fast","post_correct",0.511511969566345,89.2361111111111
132.311713999999,0.2,"AG05AS29","2022_Mar_17_1252","NotPresent_First","S_blue","MainTask",19,"Target","absent",1,"H","2",1,0.305508999999802,"fast","post_correct",0.511511969566345,89.2361111111111
132.617222999999,0,"AG05AS29","2022_Mar_17_1252","NotPresent_First","S_blue","MainTask",19,"Response","absent",1,"H","2",1,0.305508999999802,"fast","post_correct",0.511511969566345,89.2361111111111
133.563656099999,0.1,"AG05AS29","2022_Mar_17_1252","NotPresent_First","S_blue","MainTask",20,"Flanker","absent",0.66,"H","2",1,0.35157910000089,"fast","post_correct",0.511511969566345,89.2361111111111
133.6616813,0.2,"AG05AS29","2022_Mar_17_1252","NotPresent_First","S_blue","MainTask",20,"Target","absent",0.66,"H","2",1,0.35157910000089,"fast","post_correct",0.511511969566345,89.2361111111111
134.013260400001,0,"AG05AS29","2022_Mar_17_1252","NotPresent_First","S_blue","MainTask",20,"Response","absent",0.66,"H","2",1,0.35157910000089,"fast","post_correct",0.511511969566345,89.2361111111111
135.0126473,0.1,"AG05AS29","2022_Mar_17_1252","NotPresent_First","S_blue","MainTask",21,"Flanker","absent",0,"H","2",1,0.475632899999255,"fast","post_correct",0.511511969566345,89.2361111111111
135.1116898,0.2,"AG05AS29","2022_Mar_17_1252","NotPresent_First","S_blue","MainTask",21,"Target","absent",0,"H","2",1,0.475632899999255,"fast","post_correct",0.511511969566345,89.2361111111111
135.587322699999,0,"AG05AS29","2022_Mar_17_1252","NotPresent_First","S_blue","MainTask",21,"Response","absent",0,"H","2",1,0.475632899999255,"fast","post_correct",0.511511969566345,89.2361111111111
136.445850299999,0.1,"AG05AS29","2022_Mar_17_1252","NotPresent_First","S_blue","MainTask",22,"Flanker","absent",1,"S","4",1,0.432864299998982,"fast","post_correct",0.511511969566345,89.2361111111111
136.528366099999,0.2,"AG05AS29","2022_Mar_17_1252","NotPresent_First","S_blue","MainTask",22,"Target","absent",1,"S","4",1,0.432864299998982,"fast","post_correct",0.511511969566345,89.2361111111111
136.961230399998,0,"AG05AS29","2022_Mar_17_1252","NotPresent_First","S_blue","MainTask",22,"Response","absent",1,"S","4",1,0.432864299998982,"fast","post_correct",0.511511969566345,89.2361111111111
137.930354599999,0.1,"AG05AS29","2022_Mar_17_1252","NotPresent_First","S_blue","MainTask",23,"Flanker","absent",0.66,"S","4",1,0.305066099999749,"fast","post_correct",0.511511969566345,89.2361111111111
138.028382499999,0.2,"AG05AS29","2022_Mar_17_1252","NotPresent_First","S_blue","MainTask",23,"Target","absent",0.66,"S","4",1,0.305066099999749,"fast","post_correct",0.511511969566345,89.2361111111111
138.333448599999,0,"AG05AS29","2022_Mar_17_1252","NotPresent_First","S_blue","MainTask",23,"Response","absent",0.66,"S","4",1,0.305066099999749,"fast","post_correct",0.511511969566345,89.2361111111111
139.14618,0.1,"AG05AS29","2022_Mar_17_1252","NotPresent_First","S_blue","MainTask",24,"Flanker","absent",1,"H","2",1,0.405288399999336,"fast","post_correct",0.511511969566345,89.2361111111111
139.245095599999,0.2,"AG05AS29","2022_Mar_17_1252","NotPresent_First","S_blue","MainTask",24,"Target","absent",1,"H","2",1,0.405288399999336,"fast","post_correct",0.511511969566345,89.2361111111111
139.650383999999,0,"AG05AS29","2022_Mar_17_1252","NotPresent_First","S_blue","MainTask",24,"Response","absent",1,"H","2",1,0.405288399999336,"fast","post_correct",0.511511969566345,89.2361111111111
140.6093946,0.1,"AG05AS29","2022_Mar_17_1252","NotPresent_First","S_blue","MainTask",25,"Flanker","absent",0,"H","2",1,0.373185700000249,"fast","post_correct",0.511511969566345,89.2361111111111
140.6950074,0.2,"AG05AS29","2022_Mar_17_1252","NotPresent_First","S_blue","MainTask",25,"Target","absent",0,"H","2",1,0.373185700000249,"fast","post_correct",0.511511969566345,89.2361111111111
141.0681931,0,"AG05AS29","2022_Mar_17_1252","NotPresent_First","S_blue","MainTask",25,"Response","absent",0,"H","2",1,0.373185700000249,"fast","post_correct",0.511511969566345,89.2361111111111
142.011930999999,0.1,"AG05AS29","2022_Mar_17_1252","NotPresent_First","S_blue","MainTask",26,"Flanker","absent",0.33,"S","4",1,0.415415499999654,"fast","post_correct",0.511511969566345,89.2361111111111
142.094956399998,0.2,"AG05AS29","2022_Mar_17_1252","NotPresent_First","S_blue","MainTask",26,"Target","absent",0.33,"S","4",1,0.415415499999654,"fast","post_correct",0.511511969566345,89.2361111111111
142.510371899998,0,"AG05AS29","2022_Mar_17_1252","NotPresent_First","S_blue","MainTask",26,"Response","absent",0.33,"S","4",1,0.415415499999654,"fast","post_correct",0.511511969566345,89.2361111111111
143.4970851,0.1,"AG05AS29","2022_Mar_17_1252","NotPresent_First","S_blue","MainTask",27,"Flanker","absent",1,"S","4",1,0.301235200000519,"fast","post_correct",0.511511969566345,89.2361111111111
143.595005499999,0.2,"AG05AS29","2022_Mar_17_1252","NotPresent_First","S_blue","MainTask",27,"Target","absent",1,"S","4",1,0.301235200000519,"fast","post_correct",0.511511969566345,89.2361111111111
143.8962407,0,"AG05AS29","2022_Mar_17_1252","NotPresent_First","S_blue","MainTask",27,"Response","absent",1,"S","4",1,0.301235200000519,"fast","post_correct",0.511511969566345,89.2361111111111
144.911342599999,0.1,"AG05AS29","2022_Mar_17_1252","NotPresent_First","S_blue","MainTask",28,"Flanker","absent",1,"S","4",1,0.348274399999355,"fast","post_correct",0.511511969566345,89.2361111111111
144.994943199999,0.2,"AG05AS29","2022_Mar_17_1252","NotPresent_First","S_blue","MainTask",28,"Target","absent",1,"S","4",1,0.348274399999355,"fast","post_correct",0.511511969566345,89.2361111111111
145.343217599999,0,"AG05AS29","2022_Mar_17_1252","NotPresent_First","S_blue","MainTask",28,"Response","absent",1,"S","4",1,0.348274399999355,"fast","post_correct",0.511511969566345,89.2361111111111
146.144854099999,0.1,"AG05AS29","2022_Mar_17_1252","NotPresent_First","S_blue","MainTask",29,"Flanker","absent",1,"S","None",0,NA,NA,"post_correct",0.511511969566345,89.2361111111111
146.2283751,0.2,"AG05AS29","2022_Mar_17_1252","NotPresent_First","S_blue","MainTask",29,"Target","absent",1,"S","None",0,NA,NA,"post_correct",0.511511969566345,89.2361111111111
147.232590099999,0.1,"AG05AS29","2022_Mar_17_1252","NotPresent_First","S_blue","MainTask",29,"TooSlowFeedback","absent",1,"S","None",0,NA,NA,"post_correct",0.511511969566345,89.2361111111111
149.2116025,0.1,"AG05AS29","2022_Mar_17_1252","NotPresent_First","S_blue","MainTask",30,"Flanker","absent",1,"S","4",1,0.377313799999683,"fast","post_error",0.511511969566345,89.2361111111111
149.295038999999,0.2,"AG05AS29","2022_Mar_17_1252","NotPresent_First","S_blue","MainTask",30,"Target","absent",1,"S","4",1,0.377313799999683,"fast","post_error",0.511511969566345,89.2361111111111
149.672352799998,0,"AG05AS29","2022_Mar_17_1252","NotPresent_First","S_blue","MainTask",30,"Response","absent",1,"S","4",1,0.377313799999683,"fast","post_error",0.511511969566345,89.2361111111111
150.6463506,0.1,"AG05AS29","2022_Mar_17_1252","NotPresent_First","S_blue","MainTask",31,"Flanker","absent",0.66,"H","2",1,0.406347599999208,"fast","post_correct",0.511511969566345,89.2361111111111
150.7448797,0.2,"AG05AS29","2022_Mar_17_1252","NotPresent_First","S_blue","MainTask",31,"Target","absent",0.66,"H","2",1,0.406347599999208,"fast","post_correct",0.511511969566345,89.2361111111111
151.151227299999,0,"AG05AS29","2022_Mar_17_1252","NotPresent_First","S_blue","MainTask",31,"Response","absent",0.66,"H","2",1,0.406347599999208,"fast","post_correct",0.511511969566345,89.2361111111111
151.9802255,0.1,"AG05AS29","2022_Mar_17_1252","NotPresent_First","S_blue","MainTask",32,"Flanker","absent",1,"H","2",1,0.371323299999858,"fast","post_correct",0.511511969566345,89.2361111111111
152.078197899998,0.2,"AG05AS29","2022_Mar_17_1252","NotPresent_First","S_blue","MainTask",32,"Target","absent",1,"H","2",1,0.371323299999858,"fast","post_correct",0.511511969566345,89.2361111111111
152.449521199998,0,"AG05AS29","2022_Mar_17_1252","NotPresent_First","S_blue","MainTask",32,"Response","absent",1,"H","2",1,0.371323299999858,"fast","post_correct",0.511511969566345,89.2361111111111
153.413799599999,0.1,"AG05AS29","2022_Mar_17_1252","NotPresent_First","S_blue","MainTask",33,"Flanker","absent",1,"S","4",1,0.507841399999961,"fast","post_correct",0.511511969566345,89.2361111111111
153.5116194,0.2,"AG05AS29","2022_Mar_17_1252","NotPresent_First","S_blue","MainTask",33,"Target","absent",1,"S","4",1,0.507841399999961,"fast","post_correct",0.511511969566345,89.2361111111111
154.0194608,0,"AG05AS29","2022_Mar_17_1252","NotPresent_First","S_blue","MainTask",33,"Response","absent",1,"S","4",1,0.507841399999961,"fast","post_correct",0.511511969566345,89.2361111111111
154.829027099999,0.1,"AG05AS29","2022_Mar_17_1252","NotPresent_First","S_blue","MainTask",34,"Flanker","absent",0,"S","4",1,0.453750500000751,"fast","post_correct",0.511511969566345,89.2361111111111
154.9284393,0.2,"AG05AS29","2022_Mar_17_1252","NotPresent_First","S_blue","MainTask",34,"Target","absent",0,"S","4",1,0.453750500000751,"fast","post_correct",0.511511969566345,89.2361111111111
155.382189800001,0,"AG05AS29","2022_Mar_17_1252","NotPresent_First","S_blue","MainTask",34,"Response","absent",0,"S","4",1,0.453750500000751,"fast","post_correct",0.511511969566345,89.2361111111111
156.279436199999,0.1,"AG05AS29","2022_Mar_17_1252","NotPresent_First","S_blue","MainTask",35,"Flanker","absent",1,"S","4",1,0.380893899999137,"fast","post_correct",0.511511969566345,89.2361111111111
156.378375799999,0.2,"AG05AS29","2022_Mar_17_1252","NotPresent_First","S_blue","MainTask",35,"Target","absent",1,"S","4",1,0.380893899999137,"fast","post_correct",0.511511969566345,89.2361111111111
156.759269699998,0,"AG05AS29","2022_Mar_17_1252","NotPresent_First","S_blue","MainTask",35,"Response","absent",1,"S","4",1,0.380893899999137,"fast","post_correct",0.511511969566345,89.2361111111111
157.5948202,0.1,"AG05AS29","2022_Mar_17_1252","NotPresent_First","S_blue","MainTask",36,"Flanker","absent",1,"S","4",1,0.366082100001222,"fast","post_correct",0.511511969566345,89.2361111111111
157.678340499999,0.2,"AG05AS29","2022_Mar_17_1252","NotPresent_First","S_blue","MainTask",36,"Target","absent",1,"S","4",1,0.366082100001222,"fast","post_correct",0.511511969566345,89.2361111111111
158.0444226,0,"AG05AS29","2022_Mar_17_1252","NotPresent_First","S_blue","MainTask",36,"Response","absent",1,"S","4",1,0.366082100001222,"fast","post_correct",0.511511969566345,89.2361111111111
158.8968761,0.1,"AG05AS29","2022_Mar_17_1252","NotPresent_First","S_blue","MainTask",37,"Flanker","absent",0.33,"H","2",1,0.361484499999278,"fast","post_correct",0.511511969566345,89.2361111111111
158.994994299999,0.2,"AG05AS29","2022_Mar_17_1252","NotPresent_First","S_blue","MainTask",37,"Target","absent",0.33,"H","2",1,0.361484499999278,"fast","post_correct",0.511511969566345,89.2361111111111
159.356478799999,0,"AG05AS29","2022_Mar_17_1252","NotPresent_First","S_blue","MainTask",37,"Response","absent",0.33,"H","2",1,0.361484499999278,"fast","post_correct",0.511511969566345,89.2361111111111
160.295969699999,0.1,"AG05AS29","2022_Mar_17_1252","NotPresent_First","S_blue","MainTask",38,"Flanker","absent",1,"H","2",1,0.304874000001291,"fast","post_correct",0.511511969566345,89.2361111111111
160.3946316,0.2,"AG05AS29","2022_Mar_17_1252","NotPresent_First","S_blue","MainTask",38,"Target","absent",1,"H","2",1,0.304874000001291,"fast","post_correct",0.511511969566345,89.2361111111111
160.699505600001,0,"AG05AS29","2022_Mar_17_1252","NotPresent_First","S_blue","MainTask",38,"Response","absent",1,"H","2",1,0.304874000001291,"fast","post_correct",0.511511969566345,89.2361111111111
161.711449099999,0.1,"AG05AS29","2022_Mar_17_1252","NotPresent_First","S_blue","MainTask",39,"Flanker","absent",1,"H","2",1,0.305286900000283,"fast","post_correct",0.511511969566345,89.2361111111111
161.795033799999,0.2,"AG05AS29","2022_Mar_17_1252","NotPresent_First","S_blue","MainTask",39,"Target","absent",1,"H","2",1,0.305286900000283,"fast","post_correct",0.511511969566345,89.2361111111111
162.100320699999,0,"AG05AS29","2022_Mar_17_1252","NotPresent_First","S_blue","MainTask",39,"Response","absent",1,"H","2",1,0.305286900000283,"fast","post_correct",0.511511969566345,89.2361111111111
162.978175599999,0.1,"AG05AS29","2022_Mar_17_1252","NotPresent_First","S_blue","MainTask",40,"Flanker","absent",1,"H","2",1,0.289101200000005,"fast","post_correct",0.511511969566345,89.2361111111111
163.061197999999,0.2,"AG05AS29","2022_Mar_17_1252","NotPresent_First","S_blue","MainTask",40,"Target","absent",1,"H","2",1,0.289101200000005,"fast","post_correct",0.511511969566345,89.2361111111111
163.350299199999,0,"AG05AS29","2022_Mar_17_1252","NotPresent_First","S_blue","MainTask",40,"Response","absent",1,"H","2",1,0.289101200000005,"fast","post_correct",0.511511969566345,89.2361111111111
164.261392999999,0.1,"AG05AS29","2022_Mar_17_1252","NotPresent_First","S_blue","MainTask",41,"Flanker","absent",1,"H","2",1,0.299173999999766,"fast","post_correct",0.511511969566345,89.2361111111111
164.344989699999,0.2,"AG05AS29","2022_Mar_17_1252","NotPresent_First","S_blue","MainTask",41,"Target","absent",1,"H","2",1,0.299173999999766,"fast","post_correct",0.511511969566345,89.2361111111111
164.644163699999,0,"AG05AS29","2022_Mar_17_1252","NotPresent_First","S_blue","MainTask",41,"Response","absent",1,"H","2",1,0.299173999999766,"fast","post_correct",0.511511969566345,89.2361111111111
165.663584799999,0.1,"AG05AS29","2022_Mar_17_1252","NotPresent_First","S_blue","MainTask",42,"Flanker","absent",1,"S","4",1,0.293742900001234,"fast","post_correct",0.511511969566345,89.2361111111111
165.761579299999,0.2,"AG05AS29","2022_Mar_17_1252","NotPresent_First","S_blue","MainTask",42,"Target","absent",1,"S","4",1,0.293742900001234,"fast","post_correct",0.511511969566345,89.2361111111111
166.0553222,0,"AG05AS29","2022_Mar_17_1252","NotPresent_First","S_blue","MainTask",42,"Response","absent",1,"S","4",1,0.293742900001234,"fast","post_correct",0.511511969566345,89.2361111111111
167.079440699999,0.1,"AG05AS29","2022_Mar_17_1252","NotPresent_First","S_blue","MainTask",43,"Flanker","absent",0.33,"H","2",1,0.351885299998685,"fast","post_correct",0.511511969566345,89.2361111111111
167.178365599999,0.2,"AG05AS29","2022_Mar_17_1252","NotPresent_First","S_blue","MainTask",43,"Target","absent",0.33,"H","2",1,0.351885299998685,"fast","post_correct",0.511511969566345,89.2361111111111
167.530250899998,0,"AG05AS29","2022_Mar_17_1252","NotPresent_First","S_blue","MainTask",43,"Response","absent",0.33,"H","2",1,0.351885299998685,"fast","post_correct",0.511511969566345,89.2361111111111
168.528721499999,0.1,"AG05AS29","2022_Mar_17_1252","NotPresent_First","S_blue","MainTask",44,"Flanker","absent",0.33,"S","4",1,0.397360499999195,"fast","post_correct",0.511511969566345,89.2361111111111
168.6282512,0.2,"AG05AS29","2022_Mar_17_1252","NotPresent_First","S_blue","MainTask",44,"Target","absent",0.33,"S","4",1,0.397360499999195,"fast","post_correct",0.511511969566345,89.2361111111111
169.025611699999,0,"AG05AS29","2022_Mar_17_1252","NotPresent_First","S_blue","MainTask",44,"Response","absent",0.33,"S","4",1,0.397360499999195,"fast","post_correct",0.511511969566345,89.2361111111111
169.8469073,0.1,"AG05AS29","2022_Mar_17_1252","NotPresent_First","S_blue","MainTask",45,"Flanker","absent",0.66,"H","2",1,0.360224800000651,"fast","post_correct",0.511511969566345,89.2361111111111
169.945035699999,0.2,"AG05AS29","2022_Mar_17_1252","NotPresent_First","S_blue","MainTask",45,"Target","absent",0.66,"H","2",1,0.360224800000651,"fast","post_correct",0.511511969566345,89.2361111111111
170.305260499999,0,"AG05AS29","2022_Mar_17_1252","NotPresent_First","S_blue","MainTask",45,"Response","absent",0.66,"H","2",1,0.360224800000651,"fast","post_correct",0.511511969566345,89.2361111111111
171.163682499999,0.1,"AG05AS29","2022_Mar_17_1252","NotPresent_First","S_blue","MainTask",46,"Flanker","absent",0.66,"S","4",1,0.313931500000763,"fast","post_correct",0.511511969566345,89.2361111111111
171.261657999999,0.2,"AG05AS29","2022_Mar_17_1252","NotPresent_First","S_blue","MainTask",46,"Target","absent",0.66,"S","4",1,0.313931500000763,"fast","post_correct",0.511511969566345,89.2361111111111
171.5755895,0,"AG05AS29","2022_Mar_17_1252","NotPresent_First","S_blue","MainTask",46,"Response","absent",0.66,"S","4",1,0.313931500000763,"fast","post_correct",0.511511969566345,89.2361111111111
172.530324199999,0.1,"AG05AS29","2022_Mar_17_1252","NotPresent_First","S_blue","MainTask",47,"Flanker","absent",1,"H","2",1,0.438913799998772,"fast","post_correct",0.511511969566345,89.2361111111111
172.6282565,0.2,"AG05AS29","2022_Mar_17_1252","NotPresent_First","S_blue","MainTask",47,"Target","absent",1,"H","2",1,0.438913799998772,"fast","post_correct",0.511511969566345,89.2361111111111
173.067170299999,0,"AG05AS29","2022_Mar_17_1252","NotPresent_First","S_blue","MainTask",47,"Response","absent",1,"H","2",1,0.438913799998772,"fast","post_correct",0.511511969566345,89.2361111111111
173.9961587,0.1,"AG05AS29","2022_Mar_17_1252","NotPresent_First","S_blue","MainTask",48,"Flanker","absent",0.33,"S","4",1,0.362215399998604,"fast","post_correct",0.511511969566345,89.2361111111111
174.094948,0.2,"AG05AS29","2022_Mar_17_1252","NotPresent_First","S_blue","MainTask",48,"Target","absent",0.33,"S","4",1,0.362215399998604,"fast","post_correct",0.511511969566345,89.2361111111111
174.457163399999,0,"AG05AS29","2022_Mar_17_1252","NotPresent_First","S_blue","MainTask",48,"Response","absent",0.33,"S","4",1,0.362215399998604,"fast","post_correct",0.511511969566345,89.2361111111111
175.2614889,0.1,"AG05AS29","2022_Mar_17_1252","NotPresent_First","S_blue","MainTask",49,"Flanker","absent",0.33,"S","4",1,0.362246900000173,"fast","post_correct",0.511511969566345,89.2361111111111
175.344936,0.2,"AG05AS29","2022_Mar_17_1252","NotPresent_First","S_blue","MainTask",49,"Target","absent",0.33,"S","4",1,0.362246900000173,"fast","post_correct",0.511511969566345,89.2361111111111
175.7071829,0,"AG05AS29","2022_Mar_17_1252","NotPresent_First","S_blue","MainTask",49,"Response","absent",0.33,"S","4",1,0.362246900000173,"fast","post_correct",0.511511969566345,89.2361111111111
176.662672799999,0.1,"AG05AS29","2022_Mar_17_1252","NotPresent_First","S_blue","MainTask",50,"Flanker","absent",0,"S","4",1,0.446905799999513,"fast","post_correct",0.511511969566345,89.2361111111111
176.7617276,0.2,"AG05AS29","2022_Mar_17_1252","NotPresent_First","S_blue","MainTask",50,"Target","absent",0,"S","4",1,0.446905799999513,"fast","post_correct",0.511511969566345,89.2361111111111
177.2086334,0,"AG05AS29","2022_Mar_17_1252","NotPresent_First","S_blue","MainTask",50,"Response","absent",0,"S","4",1,0.446905799999513,"fast","post_correct",0.511511969566345,89.2361111111111
178.111464399999,0.1,"AG05AS29","2022_Mar_17_1252","NotPresent_First","S_blue","MainTask",51,"Flanker","absent",0,"S","4",1,0.331187200001295,"fast","post_correct",0.511511969566345,89.2361111111111
178.1949671,0.2,"AG05AS29","2022_Mar_17_1252","NotPresent_First","S_blue","MainTask",51,"Target","absent",0,"S","4",1,0.331187200001295,"fast","post_correct",0.511511969566345,89.2361111111111
178.526154300002,0,"AG05AS29","2022_Mar_17_1252","NotPresent_First","S_blue","MainTask",51,"Response","absent",0,"S","4",1,0.331187200001295,"fast","post_correct",0.511511969566345,89.2361111111111
179.396953699999,0.1,"AG05AS29","2022_Mar_17_1252","NotPresent_First","S_blue","MainTask",52,"Flanker","absent",0.33,"H","2",1,0.322297400000025,"fast","post_correct",0.511511969566345,89.2361111111111
179.494997199999,0.2,"AG05AS29","2022_Mar_17_1252","NotPresent_First","S_blue","MainTask",52,"Target","absent",0.33,"H","2",1,0.322297400000025,"fast","post_correct",0.511511969566345,89.2361111111111
179.8172946,0,"AG05AS29","2022_Mar_17_1252","NotPresent_First","S_blue","MainTask",52,"Response","absent",0.33,"H","2",1,0.322297400000025,"fast","post_correct",0.511511969566345,89.2361111111111
180.612637299999,0.1,"AG05AS29","2022_Mar_17_1252","NotPresent_First","S_blue","MainTask",53,"Flanker","absent",0.33,"S","4",1,0.292582400001265,"fast","post_correct",0.511511969566345,89.2361111111111
180.711622699999,0.2,"AG05AS29","2022_Mar_17_1252","NotPresent_First","S_blue","MainTask",53,"Target","absent",0.33,"S","4",1,0.292582400001265,"fast","post_correct",0.511511969566345,89.2361111111111
181.0042051,0,"AG05AS29","2022_Mar_17_1252","NotPresent_First","S_blue","MainTask",53,"Response","absent",0.33,"S","4",1,0.292582400001265,"fast","post_correct",0.511511969566345,89.2361111111111
181.912959399999,0.1,"AG05AS29","2022_Mar_17_1252","NotPresent_First","S_blue","MainTask",54,"Flanker","absent",0,"S","4",1,0.362473299999692,"fast","post_correct",0.511511969566345,89.2361111111111
182.011671599999,0.2,"AG05AS29","2022_Mar_17_1252","NotPresent_First","S_blue","MainTask",54,"Target","absent",0,"S","4",1,0.362473299999692,"fast","post_correct",0.511511969566345,89.2361111111111
182.374144899999,0,"AG05AS29","2022_Mar_17_1252","NotPresent_First","S_blue","MainTask",54,"Response","absent",0,"S","4",1,0.362473299999692,"fast","post_correct",0.511511969566345,89.2361111111111
183.245990699999,0.1,"AG05AS29","2022_Mar_17_1252","NotPresent_First","S_blue","MainTask",55,"Flanker","absent",1,"S","4",1,0.299315300000671,"fast","post_correct",0.511511969566345,89.2361111111111
183.3448424,0.2,"AG05AS29","2022_Mar_17_1252","NotPresent_First","S_blue","MainTask",55,"Target","absent",1,"S","4",1,0.299315300000671,"fast","post_correct",0.511511969566345,89.2361111111111
183.644157700001,0,"AG05AS29","2022_Mar_17_1252","NotPresent_First","S_blue","MainTask",55,"Response","absent",1,"S","4",1,0.299315300000671,"fast","post_correct",0.511511969566345,89.2361111111111
184.444725899999,0.1,"AG05AS29","2022_Mar_17_1252","NotPresent_First","S_blue","MainTask",56,"Flanker","absent",1,"S","4",1,0.310014799999408,"fast","post_correct",0.511511969566345,89.2361111111111
184.5282749,0.2,"AG05AS29","2022_Mar_17_1252","NotPresent_First","S_blue","MainTask",56,"Target","absent",1,"S","4",1,0.310014799999408,"fast","post_correct",0.511511969566345,89.2361111111111
184.838289699999,0,"AG05AS29","2022_Mar_17_1252","NotPresent_First","S_blue","MainTask",56,"Response","absent",1,"S","4",1,0.310014799999408,"fast","post_correct",0.511511969566345,89.2361111111111
185.696880899999,0.1,"AG05AS29","2022_Mar_17_1252","NotPresent_First","S_blue","MainTask",57,"Flanker","absent",1,"H","2",1,0.358166500000152,"fast","post_correct",0.511511969566345,89.2361111111111
185.794181599998,0.2,"AG05AS29","2022_Mar_17_1252","NotPresent_First","S_blue","MainTask",57,"Target","absent",1,"H","2",1,0.358166500000152,"fast","post_correct",0.511511969566345,89.2361111111111
186.152348099999,0,"AG05AS29","2022_Mar_17_1252","NotPresent_First","S_blue","MainTask",57,"Response","absent",1,"H","2",1,0.358166500000152,"fast","post_correct",0.511511969566345,89.2361111111111
187.061440699999,0.1,"AG05AS29","2022_Mar_17_1252","NotPresent_First","S_blue","MainTask",58,"Flanker","absent",1,"H","2",1,0.302117700000963,"fast","post_correct",0.511511969566345,89.2361111111111
187.1450427,0.2,"AG05AS29","2022_Mar_17_1252","NotPresent_First","S_blue","MainTask",58,"Target","absent",1,"H","2",1,0.302117700000963,"fast","post_correct",0.511511969566345,89.2361111111111
187.447160400001,0,"AG05AS29","2022_Mar_17_1252","NotPresent_First","S_blue","MainTask",58,"Response","absent",1,"H","2",1,0.302117700000963,"fast","post_correct",0.511511969566345,89.2361111111111
188.346075399999,0.1,"AG05AS29","2022_Mar_17_1252","NotPresent_First","S_blue","MainTask",59,"Flanker","absent",0.66,"H","2",1,0.273467200000596,"fast","post_correct",0.511511969566345,89.2361111111111
188.4448493,0.2,"AG05AS29","2022_Mar_17_1252","NotPresent_First","S_blue","MainTask",59,"Target","absent",0.66,"H","2",1,0.273467200000596,"fast","post_correct",0.511511969566345,89.2361111111111
188.718316500001,0,"AG05AS29","2022_Mar_17_1252","NotPresent_First","S_blue","MainTask",59,"Response","absent",0.66,"H","2",1,0.273467200000596,"fast","post_correct",0.511511969566345,89.2361111111111
189.678132699999,0.1,"AG05AS29","2022_Mar_17_1252","NotPresent_First","S_blue","MainTask",60,"Flanker","absent",0.66,"H","2",1,0.258627599998363,"fast","post_correct",0.511511969566345,89.2361111111111
189.761611,0.2,"AG05AS29","2022_Mar_17_1252","NotPresent_First","S_blue","MainTask",60,"Target","absent",0.66,"H","2",1,0.258627599998363,"fast","post_correct",0.511511969566345,89.2361111111111
190.020238599998,0,"AG05AS29","2022_Mar_17_1252","NotPresent_First","S_blue","MainTask",60,"Response","absent",0.66,"H","2",1,0.258627599998363,"fast","post_correct",0.511511969566345,89.2361111111111
190.8966967,0.1,"AG05AS29","2022_Mar_17_1252","NotPresent_First","S_blue","MainTask",61,"Flanker","absent",0.66,"S","4",1,0.333440599999449,"fast","post_correct",0.511511969566345,89.2361111111111
190.994949799999,0.2,"AG05AS29","2022_Mar_17_1252","NotPresent_First","S_blue","MainTask",61,"Target","absent",0.66,"S","4",1,0.333440599999449,"fast","post_correct",0.511511969566345,89.2361111111111
191.328390399998,0,"AG05AS29","2022_Mar_17_1252","NotPresent_First","S_blue","MainTask",61,"Response","absent",0.66,"S","4",1,0.333440599999449,"fast","post_correct",0.511511969566345,89.2361111111111
192.245937099999,0.1,"AG05AS29","2022_Mar_17_1252","NotPresent_First","S_blue","MainTask",62,"Flanker","absent",0,"H","2",1,0.307230700000218,"fast","post_correct",0.511511969566345,89.2361111111111
192.3449406,0.2,"AG05AS29","2022_Mar_17_1252","NotPresent_First","S_blue","MainTask",62,"Target","absent",0,"H","2",1,0.307230700000218,"fast","post_correct",0.511511969566345,89.2361111111111
192.6521713,0,"AG05AS29","2022_Mar_17_1252","NotPresent_First","S_blue","MainTask",62,"Response","absent",0,"H","2",1,0.307230700000218,"fast","post_correct",0.511511969566345,89.2361111111111
193.579360399999,0.1,"AG05AS29","2022_Mar_17_1252","NotPresent_First","S_blue","MainTask",63,"Flanker","absent",1,"H","2",1,0.316096900000048,"fast","post_correct",0.511511969566345,89.2361111111111
193.6782329,0.2,"AG05AS29","2022_Mar_17_1252","NotPresent_First","S_blue","MainTask",63,"Target","absent",1,"H","2",1,0.316096900000048,"fast","post_correct",0.511511969566345,89.2361111111111
193.9943298,0,"AG05AS29","2022_Mar_17_1252","NotPresent_First","S_blue","MainTask",63,"Response","absent",1,"H","2",1,0.316096900000048,"fast","post_correct",0.511511969566345,89.2361111111111
194.8957515,0.1,"AG05AS29","2022_Mar_17_1252","NotPresent_First","S_blue","MainTask",64,"Flanker","absent",0,"S","4",1,0.393270100001246,"fast","post_correct",0.511511969566345,89.2361111111111
194.994945999999,0.2,"AG05AS29","2022_Mar_17_1252","NotPresent_First","S_blue","MainTask",64,"Target","absent",0,"S","4",1,0.393270100001246,"fast","post_correct",0.511511969566345,89.2361111111111
195.3882161,0,"AG05AS29","2022_Mar_17_1252","NotPresent_First","S_blue","MainTask",64,"Response","absent",0,"S","4",1,0.393270100001246,"fast","post_correct",0.511511969566345,89.2361111111111
196.2786203,0.1,"AG05AS29","2022_Mar_17_1252","NotPresent_First","S_blue","MainTask",65,"Flanker","absent",1,"S","4",1,0.369576400000369,"fast","post_correct",0.511511969566345,89.2361111111111
196.3615534,0.2,"AG05AS29","2022_Mar_17_1252","NotPresent_First","S_blue","MainTask",65,"Target","absent",1,"S","4",1,0.369576400000369,"fast","post_correct",0.511511969566345,89.2361111111111
196.7311298,0,"AG05AS29","2022_Mar_17_1252","NotPresent_First","S_blue","MainTask",65,"Response","absent",1,"S","4",1,0.369576400000369,"fast","post_correct",0.511511969566345,89.2361111111111
197.578765799999,0.1,"AG05AS29","2022_Mar_17_1252","NotPresent_First","S_blue","MainTask",66,"Flanker","absent",0.33,"S","4",1,0.324676199999885,"fast","post_correct",0.511511969566345,89.2361111111111
197.661598199998,0.2,"AG05AS29","2022_Mar_17_1252","NotPresent_First","S_blue","MainTask",66,"Target","absent",0.33,"S","4",1,0.324676199999885,"fast","post_correct",0.511511969566345,89.2361111111111
197.986274399998,0,"AG05AS29","2022_Mar_17_1252","NotPresent_First","S_blue","MainTask",66,"Response","absent",0.33,"S","4",1,0.324676199999885,"fast","post_correct",0.511511969566345,89.2361111111111
198.896948599999,0.1,"AG05AS29","2022_Mar_17_1252","NotPresent_First","S_blue","MainTask",67,"Flanker","absent",0.33,"H","2",1,0.299770499999795,"fast","post_correct",0.511511969566345,89.2361111111111
198.994353999999,0.2,"AG05AS29","2022_Mar_17_1252","NotPresent_First","S_blue","MainTask",67,"Target","absent",0.33,"H","2",1,0.299770499999795,"fast","post_correct",0.511511969566345,89.2361111111111
199.294124499998,0,"AG05AS29","2022_Mar_17_1252","NotPresent_First","S_blue","MainTask",67,"Response","absent",0.33,"H","2",1,0.299770499999795,"fast","post_correct",0.511511969566345,89.2361111111111
200.242689499999,0.1,"AG05AS29","2022_Mar_17_1252","NotPresent_First","S_blue","MainTask",68,"Flanker","absent",0.33,"S","4",1,0.333994399999938,"fast","post_correct",0.511511969566345,89.2361111111111
200.328251999999,0.2,"AG05AS29","2022_Mar_17_1252","NotPresent_First","S_blue","MainTask",68,"Target","absent",0.33,"S","4",1,0.333994399999938,"fast","post_correct",0.511511969566345,89.2361111111111
200.662246399999,0,"AG05AS29","2022_Mar_17_1252","NotPresent_First","S_blue","MainTask",68,"Response","absent",0.33,"S","4",1,0.333994399999938,"fast","post_correct",0.511511969566345,89.2361111111111
201.5617451,0.1,"AG05AS29","2022_Mar_17_1252","NotPresent_First","S_blue","MainTask",69,"Flanker","absent",1,"S","4",1,0.286251099998481,"fast","post_correct",0.511511969566345,89.2361111111111
201.644872199999,0.2,"AG05AS29","2022_Mar_17_1252","NotPresent_First","S_blue","MainTask",69,"Target","absent",1,"S","4",1,0.286251099998481,"fast","post_correct",0.511511969566345,89.2361111111111
201.931123299997,0,"AG05AS29","2022_Mar_17_1252","NotPresent_First","S_blue","MainTask",69,"Response","absent",1,"S","4",1,0.286251099998481,"fast","post_correct",0.511511969566345,89.2361111111111
202.761944099999,0.1,"AG05AS29","2022_Mar_17_1252","NotPresent_First","S_blue","MainTask",70,"Flanker","absent",0.66,"H","2",1,0.345484100000249,"fast","post_correct",0.511511969566345,89.2361111111111
202.8448981,0.2,"AG05AS29","2022_Mar_17_1252","NotPresent_First","S_blue","MainTask",70,"Target","absent",0.66,"H","2",1,0.345484100000249,"fast","post_correct",0.511511969566345,89.2361111111111
203.1903822,0,"AG05AS29","2022_Mar_17_1252","NotPresent_First","S_blue","MainTask",70,"Response","absent",0.66,"H","2",1,0.345484100000249,"fast","post_correct",0.511511969566345,89.2361111111111
203.979346499998,0.1,"AG05AS29","2022_Mar_17_1252","NotPresent_First","S_blue","MainTask",71,"Flanker","absent",1,"H","2",1,0.361947600000349,"fast","post_correct",0.511511969566345,89.2361111111111
204.078173,0.2,"AG05AS29","2022_Mar_17_1252","NotPresent_First","S_blue","MainTask",71,"Target","absent",1,"H","2",1,0.361947600000349,"fast","post_correct",0.511511969566345,89.2361111111111
204.4401206,0,"AG05AS29","2022_Mar_17_1252","NotPresent_First","S_blue","MainTask",71,"Response","absent",1,"H","2",1,0.361947600000349,"fast","post_correct",0.511511969566345,89.2361111111111
205.395689699999,0.1,"AG05AS29","2022_Mar_17_1252","NotPresent_First","S_blue","MainTask",72,"Flanker","absent",1,"S","4",1,0.354330800000753,"fast","post_correct",0.511511969566345,89.2361111111111
205.4948747,0.2,"AG05AS29","2022_Mar_17_1252","NotPresent_First","S_blue","MainTask",72,"Target","absent",1,"S","4",1,0.354330800000753,"fast","post_correct",0.511511969566345,89.2361111111111
205.849205500001,0,"AG05AS29","2022_Mar_17_1252","NotPresent_First","S_blue","MainTask",72,"Response","absent",1,"S","4",1,0.354330800000753,"fast","post_correct",0.511511969566345,89.2361111111111
206.878679399999,0.1,"AG05AS29","2022_Mar_17_1252","NotPresent_First","S_blue","MainTask",73,"Flanker","absent",1,"H","2",1,0.378534299999956,"fast","post_correct",0.511511969566345,89.2361111111111
206.961566799999,0.2,"AG05AS29","2022_Mar_17_1252","NotPresent_First","S_blue","MainTask",73,"Target","absent",1,"H","2",1,0.378534299999956,"fast","post_correct",0.511511969566345,89.2361111111111
207.340101099999,0,"AG05AS29","2022_Mar_17_1252","NotPresent_First","S_blue","MainTask",73,"Response","absent",1,"H","2",1,0.378534299999956,"fast","post_correct",0.511511969566345,89.2361111111111
208.346402399999,0.1,"AG05AS29","2022_Mar_17_1252","NotPresent_First","S_blue","MainTask",74,"Flanker","absent",1,"S","4",1,0.394204700000046,"fast","post_correct",0.511511969566345,89.2361111111111
208.444985,0.2,"AG05AS29","2022_Mar_17_1252","NotPresent_First","S_blue","MainTask",74,"Target","absent",1,"S","4",1,0.394204700000046,"fast","post_correct",0.511511969566345,89.2361111111111
208.8391897,0,"AG05AS29","2022_Mar_17_1252","NotPresent_First","S_blue","MainTask",74,"Response","absent",1,"S","4",1,0.394204700000046,"fast","post_correct",0.511511969566345,89.2361111111111
209.813147999999,0.1,"AG05AS29","2022_Mar_17_1252","NotPresent_First","S_blue","MainTask",75,"Flanker","absent",0.33,"S","4",1,0.322662900000068,"fast","post_correct",0.511511969566345,89.2361111111111
209.911633099999,0.2,"AG05AS29","2022_Mar_17_1252","NotPresent_First","S_blue","MainTask",75,"Target","absent",0.33,"S","4",1,0.322662900000068,"fast","post_correct",0.511511969566345,89.2361111111111
210.234295999999,0,"AG05AS29","2022_Mar_17_1252","NotPresent_First","S_blue","MainTask",75,"Response","absent",0.33,"S","4",1,0.322662900000068,"fast","post_correct",0.511511969566345,89.2361111111111
211.112418799999,0.1,"AG05AS29","2022_Mar_17_1252","NotPresent_First","S_blue","MainTask",76,"Flanker","absent",0,"S","2",0,0.2875114999988,"fast","post_correct",0.511511969566345,89.2361111111111
211.211616999999,0.2,"AG05AS29","2022_Mar_17_1252","NotPresent_First","S_blue","MainTask",76,"Target","absent",0,"S","2",0,0.2875114999988,"fast","post_correct",0.511511969566345,89.2361111111111
211.499128499998,0,"AG05AS29","2022_Mar_17_1252","NotPresent_First","S_blue","MainTask",76,"Response","absent",0,"S","2",0,0.2875114999988,"fast","post_correct",0.511511969566345,89.2361111111111
212.395975599999,0.1,"AG05AS29","2022_Mar_17_1252","NotPresent_First","S_blue","MainTask",77,"Flanker","absent",0.66,"S","4",1,0.561361500000203,"slow","post_error",0.511511969566345,89.2361111111111
212.494884599999,0.2,"AG05AS29","2022_Mar_17_1252","NotPresent_First","S_blue","MainTask",77,"Target","absent",0.66,"S","4",1,0.561361500000203,"slow","post_error",0.511511969566345,89.2361111111111
213.056246099999,0,"AG05AS29","2022_Mar_17_1252","NotPresent_First","S_blue","MainTask",77,"Response","absent",0.66,"S","4",1,0.561361500000203,"slow","post_error",0.511511969566345,89.2361111111111
213.085072,0.1,"AG05AS29","2022_Mar_17_1252","NotPresent_First","S_blue","MainTask",77,"TooSlowFeedback","absent",0.66,"S","4",1,0.561361500000203,"slow","post_error",0.511511969566345,89.2361111111111
215.076113399999,0.1,"AG05AS29","2022_Mar_17_1252","NotPresent_First","S_blue","MainTask",78,"Flanker","absent",1,"S","4",1,0.2884471999987,"fast","post_correct",0.511511969566345,89.2361111111111
215.161647699999,0.2,"AG05AS29","2022_Mar_17_1252","NotPresent_First","S_blue","MainTask",78,"Target","absent",1,"S","4",1,0.2884471999987,"fast","post_correct",0.511511969566345,89.2361111111111
215.450094899998,0,"AG05AS29","2022_Mar_17_1252","NotPresent_First","S_blue","MainTask",78,"Response","absent",1,"S","4",1,0.2884471999987,"fast","post_correct",0.511511969566345,89.2361111111111
216.362708799999,0.1,"AG05AS29","2022_Mar_17_1252","NotPresent_First","S_blue","MainTask",79,"Flanker","absent",0.33,"H","4",0,0.254545899999357,"fast","post_correct",0.511511969566345,89.2361111111111
216.461505199999,0.2,"AG05AS29","2022_Mar_17_1252","NotPresent_First","S_blue","MainTask",79,"Target","absent",0.33,"H","4",0,0.254545899999357,"fast","post_correct",0.511511969566345,89.2361111111111
216.716051099998,0,"AG05AS29","2022_Mar_17_1252","NotPresent_First","S_blue","MainTask",79,"Response","absent",0.33,"H","4",0,0.254545899999357,"fast","post_correct",0.511511969566345,89.2361111111111
217.7278539,0.1,"AG05AS29","2022_Mar_17_1252","NotPresent_First","S_blue","MainTask",80,"Flanker","absent",0,"H","4",0,0.264524600001096,"fast","post_error",0.511511969566345,89.2361111111111
217.811577099999,0.2,"AG05AS29","2022_Mar_17_1252","NotPresent_First","S_blue","MainTask",80,"Target","absent",0,"H","4",0,0.264524600001096,"fast","post_error",0.511511969566345,89.2361111111111
218.0761017,0,"AG05AS29","2022_Mar_17_1252","NotPresent_First","S_blue","MainTask",80,"Response","absent",0,"H","4",0,0.264524600001096,"fast","post_error",0.511511969566345,89.2361111111111
219.046516499999,0.1,"AG05AS29","2022_Mar_17_1252","NotPresent_First","S_blue","MainTask",81,"Flanker","absent",0.33,"S","4",1,0.528188000000227,"slow","post_error",0.511511969566345,89.2361111111111
219.1449342,0.2,"AG05AS29","2022_Mar_17_1252","NotPresent_First","S_blue","MainTask",81,"Target","absent",0.33,"S","4",1,0.528188000000227,"slow","post_error",0.511511969566345,89.2361111111111
219.6731222,0,"AG05AS29","2022_Mar_17_1252","NotPresent_First","S_blue","MainTask",81,"Response","absent",0.33,"S","4",1,0.528188000000227,"slow","post_error",0.511511969566345,89.2361111111111
219.700892699999,0.1,"AG05AS29","2022_Mar_17_1252","NotPresent_First","S_blue","MainTask",81,"TooSlowFeedback","absent",0.33,"S","4",1,0.528188000000227,"slow","post_error",0.511511969566345,89.2361111111111
221.713517,0.1,"AG05AS29","2022_Mar_17_1252","NotPresent_First","S_blue","MainTask",82,"Flanker","absent",0.66,"S","4",1,0.314557799998511,"fast","post_correct",0.511511969566345,89.2361111111111
221.811521599999,0.2,"AG05AS29","2022_Mar_17_1252","NotPresent_First","S_blue","MainTask",82,"Target","absent",0.66,"S","4",1,0.314557799998511,"fast","post_correct",0.511511969566345,89.2361111111111
222.126079399997,0,"AG05AS29","2022_Mar_17_1252","NotPresent_First","S_blue","MainTask",82,"Response","absent",0.66,"S","4",1,0.314557799998511,"fast","post_correct",0.511511969566345,89.2361111111111
222.979002399999,0.1,"AG05AS29","2022_Mar_17_1252","NotPresent_First","S_blue","MainTask",83,"Flanker","absent",1,"S","4",1,0.311318899999605,"fast","post_correct",0.511511969566345,89.2361111111111
223.0778421,0.2,"AG05AS29","2022_Mar_17_1252","NotPresent_First","S_blue","MainTask",83,"Target","absent",1,"S","4",1,0.311318899999605,"fast","post_correct",0.511511969566345,89.2361111111111
223.389160999999,0,"AG05AS29","2022_Mar_17_1252","NotPresent_First","S_blue","MainTask",83,"Response","absent",1,"S","4",1,0.311318899999605,"fast","post_correct",0.511511969566345,89.2361111111111
224.361333299999,0.1,"AG05AS29","2022_Mar_17_1252","NotPresent_First","S_blue","MainTask",84,"Flanker","absent",1,"S","4",1,0.312296400001287,"fast","post_correct",0.511511969566345,89.2361111111111
224.444797099999,0.2,"AG05AS29","2022_Mar_17_1252","NotPresent_First","S_blue","MainTask",84,"Target","absent",1,"S","4",1,0.312296400001287,"fast","post_correct",0.511511969566345,89.2361111111111
224.7570935,0,"AG05AS29","2022_Mar_17_1252","NotPresent_First","S_blue","MainTask",84,"Response","absent",1,"S","4",1,0.312296400001287,"fast","post_correct",0.511511969566345,89.2361111111111
225.729340799999,0.1,"AG05AS29","2022_Mar_17_1252","NotPresent_First","S_blue","MainTask",85,"Flanker","absent",0.33,"H","2",1,0.428004699999292,"fast","post_correct",0.511511969566345,89.2361111111111
225.8281866,0.2,"AG05AS29","2022_Mar_17_1252","NotPresent_First","S_blue","MainTask",85,"Target","absent",0.33,"H","2",1,0.428004699999292,"fast","post_correct",0.511511969566345,89.2361111111111
226.256191299999,0,"AG05AS29","2022_Mar_17_1252","NotPresent_First","S_blue","MainTask",85,"Response","absent",0.33,"H","2",1,0.428004699999292,"fast","post_correct",0.511511969566345,89.2361111111111
227.179406499999,0.1,"AG05AS29","2022_Mar_17_1252","NotPresent_First","S_blue","MainTask",86,"Flanker","absent",1,"H","2",1,0.332959899998968,"fast","post_correct",0.511511969566345,89.2361111111111
227.2782412,0.2,"AG05AS29","2022_Mar_17_1252","NotPresent_First","S_blue","MainTask",86,"Target","absent",1,"H","2",1,0.332959899998968,"fast","post_correct",0.511511969566345,89.2361111111111
227.611201099999,0,"AG05AS29","2022_Mar_17_1252","NotPresent_First","S_blue","MainTask",86,"Response","absent",1,"H","2",1,0.332959899998968,"fast","post_correct",0.511511969566345,89.2361111111111
228.446121499999,0.1,"AG05AS29","2022_Mar_17_1252","NotPresent_First","S_blue","MainTask",87,"Flanker","absent",0,"H","2",1,0.511530699999639,"slow","post_correct",0.511511969566345,89.2361111111111
228.544874199999,0.2,"AG05AS29","2022_Mar_17_1252","NotPresent_First","S_blue","MainTask",87,"Target","absent",0,"H","2",1,0.511530699999639,"slow","post_correct",0.511511969566345,89.2361111111111
229.056404899999,0,"AG05AS29","2022_Mar_17_1252","NotPresent_First","S_blue","MainTask",87,"Response","absent",0,"H","2",1,0.511530699999639,"slow","post_correct",0.511511969566345,89.2361111111111
229.0842003,0.1,"AG05AS29","2022_Mar_17_1252","NotPresent_First","S_blue","MainTask",87,"TooSlowFeedback","absent",0,"H","2",1,0.511530699999639,"slow","post_correct",0.511511969566345,89.2361111111111
230.8780054,0.1,"AG05AS29","2022_Mar_17_1252","NotPresent_First","S_blue","MainTask",88,"Flanker","absent",0,"H","2",1,0.355560300000434,"fast","post_correct",0.511511969566345,89.2361111111111
230.960823899999,0.2,"AG05AS29","2022_Mar_17_1252","NotPresent_First","S_blue","MainTask",88,"Target","absent",0,"H","2",1,0.355560300000434,"fast","post_correct",0.511511969566345,89.2361111111111
231.316384199999,0,"AG05AS29","2022_Mar_17_1252","NotPresent_First","S_blue","MainTask",88,"Response","absent",0,"H","2",1,0.355560300000434,"fast","post_correct",0.511511969566345,89.2361111111111
232.328758599999,0.1,"AG05AS29","2022_Mar_17_1252","NotPresent_First","S_blue","MainTask",89,"Flanker","absent",1,"S","4",1,0.291550100000677,"fast","post_correct",0.511511969566345,89.2361111111111
232.411617399999,0.2,"AG05AS29","2022_Mar_17_1252","NotPresent_First","S_blue","MainTask",89,"Target","absent",1,"S","4",1,0.291550100000677,"fast","post_correct",0.511511969566345,89.2361111111111
232.7031675,0,"AG05AS29","2022_Mar_17_1252","NotPresent_First","S_blue","MainTask",89,"Response","absent",1,"S","4",1,0.291550100000677,"fast","post_correct",0.511511969566345,89.2361111111111
233.729250799999,0.1,"AG05AS29","2022_Mar_17_1252","NotPresent_First","S_blue","MainTask",90,"Flanker","absent",1,"H","2",1,0.390917699998681,"fast","post_correct",0.511511969566345,89.2361111111111
233.8281603,0.2,"AG05AS29","2022_Mar_17_1252","NotPresent_First","S_blue","MainTask",90,"Target","absent",1,"H","2",1,0.390917699998681,"fast","post_correct",0.511511969566345,89.2361111111111
234.219077999998,0,"AG05AS29","2022_Mar_17_1252","NotPresent_First","S_blue","MainTask",90,"Response","absent",1,"H","2",1,0.390917699998681,"fast","post_correct",0.511511969566345,89.2361111111111
235.1946978,0.1,"AG05AS29","2022_Mar_17_1252","NotPresent_First","S_blue","MainTask",91,"Flanker","absent",1,"H","2",1,0.380534600000829,"fast","post_correct",0.511511969566345,89.2361111111111
235.278257999998,0.2,"AG05AS29","2022_Mar_17_1252","NotPresent_First","S_blue","MainTask",91,"Target","absent",1,"H","2",1,0.380534600000829,"fast","post_correct",0.511511969566345,89.2361111111111
235.658792599999,0,"AG05AS29","2022_Mar_17_1252","NotPresent_First","S_blue","MainTask",91,"Response","absent",1,"H","2",1,0.380534600000829,"fast","post_correct",0.511511969566345,89.2361111111111
236.5292548,0.1,"AG05AS29","2022_Mar_17_1252","NotPresent_First","S_blue","MainTask",92,"Flanker","absent",0,"H","2",1,0.292094399999769,"fast","post_correct",0.511511969566345,89.2361111111111
236.628048299999,0.2,"AG05AS29","2022_Mar_17_1252","NotPresent_First","S_blue","MainTask",92,"Target","absent",0,"H","2",1,0.292094399999769,"fast","post_correct",0.511511969566345,89.2361111111111
236.920142699999,0,"AG05AS29","2022_Mar_17_1252","NotPresent_First","S_blue","MainTask",92,"Response","absent",0,"H","2",1,0.292094399999769,"fast","post_correct",0.511511969566345,89.2361111111111
237.896036499998,0.1,"AG05AS29","2022_Mar_17_1252","NotPresent_First","S_blue","MainTask",93,"Flanker","absent",0.66,"H","2",1,0.273270800000319,"fast","post_correct",0.511511969566345,89.2361111111111
237.994792099998,0.2,"AG05AS29","2022_Mar_17_1252","NotPresent_First","S_blue","MainTask",93,"Target","absent",0.66,"H","2",1,0.273270800000319,"fast","post_correct",0.511511969566345,89.2361111111111
238.268062899999,0,"AG05AS29","2022_Mar_17_1252","NotPresent_First","S_blue","MainTask",93,"Response","absent",0.66,"H","2",1,0.273270800000319,"fast","post_correct",0.511511969566345,89.2361111111111
239.246070899999,0.1,"AG05AS29","2022_Mar_17_1252","NotPresent_First","S_blue","MainTask",94,"Flanker","absent",0,"H","2",1,0.350447099999656,"fast","post_correct",0.511511969566345,89.2361111111111
239.344958,0.2,"AG05AS29","2022_Mar_17_1252","NotPresent_First","S_blue","MainTask",94,"Target","absent",0,"H","2",1,0.350447099999656,"fast","post_correct",0.511511969566345,89.2361111111111
239.695405099999,0,"AG05AS29","2022_Mar_17_1252","NotPresent_First","S_blue","MainTask",94,"Response","absent",0,"H","2",1,0.350447099999656,"fast","post_correct",0.511511969566345,89.2361111111111
240.6124296,0.1,"AG05AS29","2022_Mar_17_1252","NotPresent_First","S_blue","MainTask",95,"Flanker","absent",1,"S","4",1,0.350550600000133,"fast","post_correct",0.511511969566345,89.2361111111111
240.6948464,0.2,"AG05AS29","2022_Mar_17_1252","NotPresent_First","S_blue","MainTask",95,"Target","absent",1,"S","4",1,0.350550600000133,"fast","post_correct",0.511511969566345,89.2361111111111
241.045397,0,"AG05AS29","2022_Mar_17_1252","NotPresent_First","S_blue","MainTask",95,"Response","absent",1,"S","4",1,0.350550600000133,"fast","post_correct",0.511511969566345,89.2361111111111
241.070255799999,46.1005568,"AG05AS29","2022_Mar_17_1252","NotPresent_First","S_blue","MainTask",95,"Break","absent",1,"S","4",1,46.1005568,"fast","post_correct",NA,89.2361111111111
290.196080199999,0.1,"AG05AS29","2022_Mar_17_1252","NotPresent_First","S_blue","MainTask",96,"Flanker","absent",0.66,"S","2",0,0.350298800000019,"fast","post_break",0.511511969566345,89.2361111111111
290.294851999999,0.2,"AG05AS29","2022_Mar_17_1252","NotPresent_First","S_blue","MainTask",96,"Target","absent",0.66,"S","2",0,0.350298800000019,"fast","post_break",0.511511969566345,89.2361111111111
290.645150799999,0,"AG05AS29","2022_Mar_17_1252","NotPresent_First","S_blue","MainTask",96,"Response","absent",0.66,"S","2",0,0.350298800000019,"fast","post_break",0.511511969566345,89.2361111111111
291.5626968,0.1,"AG05AS29","2022_Mar_17_1252","NotPresent_First","S_blue","MainTask",97,"Flanker","absent",0.66,"H","4",0,0.355693500001507,"fast","post_error",0.511511969566345,89.2361111111111
291.6614813,0.2,"AG05AS29","2022_Mar_17_1252","NotPresent_First","S_blue","MainTask",97,"Target","absent",0.66,"H","4",0,0.355693500001507,"fast","post_error",0.511511969566345,89.2361111111111
292.017174800001,0,"AG05AS29","2022_Mar_17_1252","NotPresent_First","S_blue","MainTask",97,"Response","absent",0.66,"H","4",0,0.355693500001507,"fast","post_error",0.511511969566345,89.2361111111111
292.961618399999,0.1,"AG05AS29","2022_Mar_17_1252","NotPresent_First","S_blue","MainTask",98,"Flanker","absent",0.33,"S","4",1,0.367119500000626,"fast","post_error",0.511511969566345,89.2361111111111
293.044821199999,0.2,"AG05AS29","2022_Mar_17_1252","NotPresent_First","S_blue","MainTask",98,"Target","absent",0.33,"S","4",1,0.367119500000626,"fast","post_error",0.511511969566345,89.2361111111111
293.4119407,0,"AG05AS29","2022_Mar_17_1252","NotPresent_First","S_blue","MainTask",98,"Response","absent",0.33,"S","4",1,0.367119500000626,"fast","post_error",0.511511969566345,89.2361111111111
294.195665699999,0.1,"AG05AS29","2022_Mar_17_1252","NotPresent_First","S_blue","MainTask",99,"Flanker","absent",1,"H","2",1,0.28608290000011,"fast","post_correct",0.511511969566345,89.2361111111111
294.2948695,0.2,"AG05AS29","2022_Mar_17_1252","NotPresent_First","S_blue","MainTask",99,"Target","absent",1,"H","2",1,0.28608290000011,"fast","post_correct",0.511511969566345,89.2361111111111
294.5809524,0,"AG05AS29","2022_Mar_17_1252","NotPresent_First","S_blue","MainTask",99,"Response","absent",1,"H","2",1,0.28608290000011,"fast","post_correct",0.511511969566345,89.2361111111111
295.3789182,0.1,"AG05AS29","2022_Mar_17_1252","NotPresent_First","S_blue","MainTask",100,"Flanker","absent",1,"S","4",1,0.38105109999924,"fast","post_correct",0.511511969566345,89.2361111111111
295.478098599999,0.2,"AG05AS29","2022_Mar_17_1252","NotPresent_First","S_blue","MainTask",100,"Target","absent",1,"S","4",1,0.38105109999924,"fast","post_correct",0.511511969566345,89.2361111111111
295.859149699998,0,"AG05AS29","2022_Mar_17_1252","NotPresent_First","S_blue","MainTask",100,"Response","absent",1,"S","4",1,0.38105109999924,"fast","post_correct",0.511511969566345,89.2361111111111
296.729098799999,0.1,"AG05AS29","2022_Mar_17_1252","NotPresent_First","S_blue","MainTask",101,"Flanker","absent",0.66,"S","4",1,0.278064699999959,"fast","post_correct",0.511511969566345,89.2361111111111
296.828011,0.2,"AG05AS29","2022_Mar_17_1252","NotPresent_First","S_blue","MainTask",101,"Target","absent",0.66,"S","4",1,0.278064699999959,"fast","post_correct",0.511511969566345,89.2361111111111
297.1060757,0,"AG05AS29","2022_Mar_17_1252","NotPresent_First","S_blue","MainTask",101,"Response","absent",0.66,"S","4",1,0.278064699999959,"fast","post_correct",0.511511969566345,89.2361111111111
298.062403399999,0.1,"AG05AS29","2022_Mar_17_1252","NotPresent_First","S_blue","MainTask",102,"Flanker","absent",0,"S","4",1,0.310576600000786,"fast","post_correct",0.511511969566345,89.2361111111111
298.161510899999,0.2,"AG05AS29","2022_Mar_17_1252","NotPresent_First","S_blue","MainTask",102,"Target","absent",0,"S","4",1,0.310576600000786,"fast","post_correct",0.511511969566345,89.2361111111111
298.4720875,0,"AG05AS29","2022_Mar_17_1252","NotPresent_First","S_blue","MainTask",102,"Response","absent",0,"S","4",1,0.310576600000786,"fast","post_correct",0.511511969566345,89.2361111111111
299.462617699999,0.1,"AG05AS29","2022_Mar_17_1252","NotPresent_First","S_blue","MainTask",103,"Flanker","absent",0.33,"S","4",1,0.304617499999949,"fast","post_correct",0.511511969566345,89.2361111111111
299.561365099999,0.2,"AG05AS29","2022_Mar_17_1252","NotPresent_First","S_blue","MainTask",103,"Target","absent",0.33,"S","4",1,0.304617499999949,"fast","post_correct",0.511511969566345,89.2361111111111
299.865982599998,0,"AG05AS29","2022_Mar_17_1252","NotPresent_First","S_blue","MainTask",103,"Response","absent",0.33,"S","4",1,0.304617499999949,"fast","post_correct",0.511511969566345,89.2361111111111
300.7797646,0.1,"AG05AS29","2022_Mar_17_1252","NotPresent_First","S_blue","MainTask",104,"Flanker","absent",1,"S","4",1,0.308863000000201,"fast","post_correct",0.511511969566345,89.2361111111111
300.8781719,0.2,"AG05AS29","2022_Mar_17_1252","NotPresent_First","S_blue","MainTask",104,"Target","absent",1,"S","4",1,0.308863000000201,"fast","post_correct",0.511511969566345,89.2361111111111
301.1870349,0,"AG05AS29","2022_Mar_17_1252","NotPresent_First","S_blue","MainTask",104,"Response","absent",1,"S","4",1,0.308863000000201,"fast","post_correct",0.511511969566345,89.2361111111111
302.0968099,0.1,"AG05AS29","2022_Mar_17_1252","NotPresent_First","S_blue","MainTask",105,"Flanker","absent",0.66,"S","4",1,0.3683187000006,"fast","post_correct",0.511511969566345,89.2361111111111
302.194823099999,0.2,"AG05AS29","2022_Mar_17_1252","NotPresent_First","S_blue","MainTask",105,"Target","absent",0.66,"S","4",1,0.3683187000006,"fast","post_correct",0.511511969566345,89.2361111111111
302.563141799999,0,"AG05AS29","2022_Mar_17_1252","NotPresent_First","S_blue","MainTask",105,"Response","absent",0.66,"S","4",1,0.3683187000006,"fast","post_correct",0.511511969566345,89.2361111111111
303.3801472,0.1,"AG05AS29","2022_Mar_17_1252","NotPresent_First","S_blue","MainTask",106,"Flanker","absent",0.66,"H","2",1,0.34997790000125,"fast","post_correct",0.511511969566345,89.2361111111111
303.4780851,0.2,"AG05AS29","2022_Mar_17_1252","NotPresent_First","S_blue","MainTask",106,"Target","absent",0.66,"H","2",1,0.34997790000125,"fast","post_correct",0.511511969566345,89.2361111111111
303.828063000001,0,"AG05AS29","2022_Mar_17_1252","NotPresent_First","S_blue","MainTask",106,"Response","absent",0.66,"H","2",1,0.34997790000125,"fast","post_correct",0.511511969566345,89.2361111111111
304.745509099999,0.1,"AG05AS29","2022_Mar_17_1252","NotPresent_First","S_blue","MainTask",107,"Flanker","absent",1,"S","4",1,0.288771699999415,"fast","post_correct",0.511511969566345,89.2361111111111
304.8447418,0.2,"AG05AS29","2022_Mar_17_1252","NotPresent_First","S_blue","MainTask",107,"Target","absent",1,"S","4",1,0.288771699999415,"fast","post_correct",0.511511969566345,89.2361111111111
305.133513499999,0,"AG05AS29","2022_Mar_17_1252","NotPresent_First","S_blue","MainTask",107,"Response","absent",1,"S","4",1,0.288771699999415,"fast","post_correct",0.511511969566345,89.2361111111111
306.0288979,0.1,"AG05AS29","2022_Mar_17_1252","NotPresent_First","S_blue","MainTask",108,"Flanker","absent",1,"H","2",1,0.313979200000176,"fast","post_correct",0.511511969566345,89.2361111111111
306.128152599998,0.2,"AG05AS29","2022_Mar_17_1252","NotPresent_First","S_blue","MainTask",108,"Target","absent",1,"H","2",1,0.313979200000176,"fast","post_correct",0.511511969566345,89.2361111111111
306.442131799999,0,"AG05AS29","2022_Mar_17_1252","NotPresent_First","S_blue","MainTask",108,"Response","absent",1,"H","2",1,0.313979200000176,"fast","post_correct",0.511511969566345,89.2361111111111
307.228413199999,0.1,"AG05AS29","2022_Mar_17_1252","NotPresent_First","S_blue","MainTask",109,"Flanker","absent",1,"S","4",1,0.328871800000343,"fast","post_correct",0.511511969566345,89.2361111111111
307.328098999998,0.2,"AG05AS29","2022_Mar_17_1252","NotPresent_First","S_blue","MainTask",109,"Target","absent",1,"S","4",1,0.328871800000343,"fast","post_correct",0.511511969566345,89.2361111111111
307.656970799999,0,"AG05AS29","2022_Mar_17_1252","NotPresent_First","S_blue","MainTask",109,"Response","absent",1,"S","4",1,0.328871800000343,"fast","post_correct",0.511511969566345,89.2361111111111
308.528871299999,0.1,"AG05AS29","2022_Mar_17_1252","NotPresent_First","S_blue","MainTask",110,"Flanker","absent",0.33,"H","2",1,0.298017600000094,"fast","post_correct",0.511511969566345,89.2361111111111
308.6280998,0.2,"AG05AS29","2022_Mar_17_1252","NotPresent_First","S_blue","MainTask",110,"Target","absent",0.33,"H","2",1,0.298017600000094,"fast","post_correct",0.511511969566345,89.2361111111111
308.9261174,0,"AG05AS29","2022_Mar_17_1252","NotPresent_First","S_blue","MainTask",110,"Response","absent",0.33,"H","2",1,0.298017600000094,"fast","post_correct",0.511511969566345,89.2361111111111
309.8634148,0.1,"AG05AS29","2022_Mar_17_1252","NotPresent_First","S_blue","MainTask",111,"Flanker","absent",0.33,"S","4",1,0.303725800000393,"fast","post_correct",0.511511969566345,89.2361111111111
309.9614461,0.2,"AG05AS29","2022_Mar_17_1252","NotPresent_First","S_blue","MainTask",111,"Target","absent",0.33,"S","4",1,0.303725800000393,"fast","post_correct",0.511511969566345,89.2361111111111
310.2651719,0,"AG05AS29","2022_Mar_17_1252","NotPresent_First","S_blue","MainTask",111,"Response","absent",0.33,"S","4",1,0.303725800000393,"fast","post_correct",0.511511969566345,89.2361111111111
311.295822099999,0.1,"AG05AS29","2022_Mar_17_1252","NotPresent_First","S_blue","MainTask",112,"Flanker","absent",1,"H","2",1,0.281322999999247,"fast","post_correct",0.511511969566345,89.2361111111111
311.394808999999,0.2,"AG05AS29","2022_Mar_17_1252","NotPresent_First","S_blue","MainTask",112,"Target","absent",1,"H","2",1,0.281322999999247,"fast","post_correct",0.511511969566345,89.2361111111111
311.676131999999,0,"AG05AS29","2022_Mar_17_1252","NotPresent_First","S_blue","MainTask",112,"Response","absent",1,"H","2",1,0.281322999999247,"fast","post_correct",0.511511969566345,89.2361111111111
312.6625291,0.1,"AG05AS29","2022_Mar_17_1252","NotPresent_First","S_blue","MainTask",113,"Flanker","absent",0.66,"S","4",1,0.262124599999879,"fast","post_correct",0.511511969566345,89.2361111111111
312.761014399999,0.2,"AG05AS29","2022_Mar_17_1252","NotPresent_First","S_blue","MainTask",113,"Target","absent",0.66,"S","4",1,0.262124599999879,"fast","post_correct",0.511511969566345,89.2361111111111
313.023138999999,0,"AG05AS29","2022_Mar_17_1252","NotPresent_First","S_blue","MainTask",113,"Response","absent",0.66,"S","4",1,0.262124599999879,"fast","post_correct",0.511511969566345,89.2361111111111
313.846949699999,0.1,"AG05AS29","2022_Mar_17_1252","NotPresent_First","S_blue","MainTask",114,"Flanker","absent",0,"S","4",1,0.455450600000404,"fast","post_correct",0.511511969566345,89.2361111111111
313.944720599999,0.2,"AG05AS29","2022_Mar_17_1252","NotPresent_First","S_blue","MainTask",114,"Target","absent",0,"S","4",1,0.455450600000404,"fast","post_correct",0.511511969566345,89.2361111111111
314.400171199999,0,"AG05AS29","2022_Mar_17_1252","NotPresent_First","S_blue","MainTask",114,"Response","absent",0,"S","4",1,0.455450600000404,"fast","post_correct",0.511511969566345,89.2361111111111
315.3444865,0.1,"AG05AS29","2022_Mar_17_1252","NotPresent_First","S_blue","MainTask",115,"Flanker","absent",0,"S","4",1,0.316057699999874,"fast","post_correct",0.511511969566345,89.2361111111111
315.4280989,0.2,"AG05AS29","2022_Mar_17_1252","NotPresent_First","S_blue","MainTask",115,"Target","absent",0,"S","4",1,0.316057699999874,"fast","post_correct",0.511511969566345,89.2361111111111
315.7441566,0,"AG05AS29","2022_Mar_17_1252","NotPresent_First","S_blue","MainTask",115,"Response","absent",0,"S","4",1,0.316057699999874,"fast","post_correct",0.511511969566345,89.2361111111111
316.762568999999,0.1,"AG05AS29","2022_Mar_17_1252","NotPresent_First","S_blue","MainTask",116,"Flanker","absent",0.33,"S","4",1,0.367524999999659,"fast","post_correct",0.511511969566345,89.2361111111111
316.86146,0.2,"AG05AS29","2022_Mar_17_1252","NotPresent_First","S_blue","MainTask",116,"Target","absent",0.33,"S","4",1,0.367524999999659,"fast","post_correct",0.511511969566345,89.2361111111111
317.228985,0,"AG05AS29","2022_Mar_17_1252","NotPresent_First","S_blue","MainTask",116,"Response","absent",0.33,"S","4",1,0.367524999999659,"fast","post_correct",0.511511969566345,89.2361111111111
318.0288031,0.1,"AG05AS29","2022_Mar_17_1252","NotPresent_First","S_blue","MainTask",117,"Flanker","absent",0.33,"H","2",1,0.322772200001054,"fast","post_correct",0.511511969566345,89.2361111111111
318.128139999999,0.2,"AG05AS29","2022_Mar_17_1252","NotPresent_First","S_blue","MainTask",117,"Target","absent",0.33,"H","2",1,0.322772200001054,"fast","post_correct",0.511511969566345,89.2361111111111
318.4509122,0,"AG05AS29","2022_Mar_17_1252","NotPresent_First","S_blue","MainTask",117,"Response","absent",0.33,"H","2",1,0.322772200001054,"fast","post_correct",0.511511969566345,89.2361111111111
319.463448099999,0.1,"AG05AS29","2022_Mar_17_1252","NotPresent_First","S_blue","MainTask",118,"Flanker","absent",0,"S","4",1,0.425549699999465,"fast","post_correct",0.511511969566345,89.2361111111111
319.5614823,0.2,"AG05AS29","2022_Mar_17_1252","NotPresent_First","S_blue","MainTask",118,"Target","absent",0,"S","4",1,0.425549699999465,"fast","post_correct",0.511511969566345,89.2361111111111
319.987031999999,0,"AG05AS29","2022_Mar_17_1252","NotPresent_First","S_blue","MainTask",118,"Response","absent",0,"S","4",1,0.425549699999465,"fast","post_correct",0.511511969566345,89.2361111111111
320.861354199998,0.1,"AG05AS29","2022_Mar_17_1252","NotPresent_First","S_blue","MainTask",119,"Flanker","absent",1,"H","2",1,0.369249899998977,"fast","post_correct",0.511511969566345,89.2361111111111
320.944707799999,0.2,"AG05AS29","2022_Mar_17_1252","NotPresent_First","S_blue","MainTask",119,"Target","absent",1,"H","2",1,0.369249899998977,"fast","post_correct",0.511511969566345,89.2361111111111
321.313957699998,0,"AG05AS29","2022_Mar_17_1252","NotPresent_First","S_blue","MainTask",119,"Response","absent",1,"H","2",1,0.369249899998977,"fast","post_correct",0.511511969566345,89.2361111111111
322.1125758,0.1,"AG05AS29","2022_Mar_17_1252","NotPresent_First","S_blue","MainTask",120,"Flanker","absent",0,"H","2",1,0.392489699999715,"fast","post_correct",0.511511969566345,89.2361111111111
322.211404199999,0.2,"AG05AS29","2022_Mar_17_1252","NotPresent_First","S_blue","MainTask",120,"Target","absent",0,"H","2",1,0.392489699999715,"fast","post_correct",0.511511969566345,89.2361111111111
322.603893899999,0,"AG05AS29","2022_Mar_17_1252","NotPresent_First","S_blue","MainTask",120,"Response","absent",0,"H","2",1,0.392489699999715,"fast","post_correct",0.511511969566345,89.2361111111111
323.4467802,0.1,"AG05AS29","2022_Mar_17_1252","NotPresent_First","S_blue","MainTask",121,"Flanker","absent",1,"H","2",1,0.30857130000004,"fast","post_correct",0.511511969566345,89.2361111111111
323.5446314,0.2,"AG05AS29","2022_Mar_17_1252","NotPresent_First","S_blue","MainTask",121,"Target","absent",1,"H","2",1,0.30857130000004,"fast","post_correct",0.511511969566345,89.2361111111111
323.8532027,0,"AG05AS29","2022_Mar_17_1252","NotPresent_First","S_blue","MainTask",121,"Response","absent",1,"H","2",1,0.30857130000004,"fast","post_correct",0.511511969566345,89.2361111111111
324.7291154,0.1,"AG05AS29","2022_Mar_17_1252","NotPresent_First","S_blue","MainTask",122,"Flanker","absent",0.33,"H","2",1,0.370909699999174,"fast","post_correct",0.511511969566345,89.2361111111111
324.828033099999,0.2,"AG05AS29","2022_Mar_17_1252","NotPresent_First","S_blue","MainTask",122,"Target","absent",0.33,"H","2",1,0.370909699999174,"fast","post_correct",0.511511969566345,89.2361111111111
325.198942799998,0,"AG05AS29","2022_Mar_17_1252","NotPresent_First","S_blue","MainTask",122,"Response","absent",0.33,"H","2",1,0.370909699999174,"fast","post_correct",0.511511969566345,89.2361111111111
326.1958722,0.1,"AG05AS29","2022_Mar_17_1252","NotPresent_First","S_blue","MainTask",123,"Flanker","absent",0.33,"S","4",1,0.312404600001173,"fast","post_correct",0.511511969566345,89.2361111111111
326.2947217,0.2,"AG05AS29","2022_Mar_17_1252","NotPresent_First","S_blue","MainTask",123,"Target","absent",0.33,"S","4",1,0.312404600001173,"fast","post_correct",0.511511969566345,89.2361111111111
326.607126300001,0,"AG05AS29","2022_Mar_17_1252","NotPresent_First","S_blue","MainTask",123,"Response","absent",0.33,"S","4",1,0.312404600001173,"fast","post_correct",0.511511969566345,89.2361111111111
327.461227099999,0.1,"AG05AS29","2022_Mar_17_1252","NotPresent_First","S_blue","MainTask",124,"Flanker","absent",0.33,"S","4",1,0.312394999999015,"fast","post_correct",0.511511969566345,89.2361111111111
327.544534799999,0.2,"AG05AS29","2022_Mar_17_1252","NotPresent_First","S_blue","MainTask",124,"Target","absent",0.33,"S","4",1,0.312394999999015,"fast","post_correct",0.511511969566345,89.2361111111111
327.856929799998,0,"AG05AS29","2022_Mar_17_1252","NotPresent_First","S_blue","MainTask",124,"Response","absent",0.33,"S","4",1,0.312394999999015,"fast","post_correct",0.511511969566345,89.2361111111111
328.6618628,0.1,"AG05AS29","2022_Mar_17_1252","NotPresent_First","S_blue","MainTask",125,"Flanker","absent",1,"S","4",1,0.428197400000499,"fast","post_correct",0.511511969566345,89.2361111111111
328.7447029,0.2,"AG05AS29","2022_Mar_17_1252","NotPresent_First","S_blue","MainTask",125,"Target","absent",1,"S","4",1,0.428197400000499,"fast","post_correct",0.511511969566345,89.2361111111111
329.1729003,0,"AG05AS29","2022_Mar_17_1252","NotPresent_First","S_blue","MainTask",125,"Response","absent",1,"S","4",1,0.428197400000499,"fast","post_correct",0.511511969566345,89.2361111111111
330.196821,0.1,"AG05AS29","2022_Mar_17_1252","NotPresent_First","S_blue","MainTask",126,"Flanker","absent",0.33,"S","4",1,0.397162200000821,"fast","post_correct",0.511511969566345,89.2361111111111
330.294740699999,0.2,"AG05AS29","2022_Mar_17_1252","NotPresent_First","S_blue","MainTask",126,"Target","absent",0.33,"S","4",1,0.397162200000821,"fast","post_correct",0.511511969566345,89.2361111111111
330.6919029,0,"AG05AS29","2022_Mar_17_1252","NotPresent_First","S_blue","MainTask",126,"Response","absent",0.33,"S","4",1,0.397162200000821,"fast","post_correct",0.511511969566345,89.2361111111111
331.4960154,0.1,"AG05AS29","2022_Mar_17_1252","NotPresent_First","S_blue","MainTask",127,"Flanker","absent",0.66,"H","2",1,0.339166199999454,"fast","post_correct",0.511511969566345,89.2361111111111
331.594754199999,0.2,"AG05AS29","2022_Mar_17_1252","NotPresent_First","S_blue","MainTask",127,"Target","absent",0.66,"H","2",1,0.339166199999454,"fast","post_correct",0.511511969566345,89.2361111111111
331.933920399999,0,"AG05AS29","2022_Mar_17_1252","NotPresent_First","S_blue","MainTask",127,"Response","absent",0.66,"H","2",1,0.339166199999454,"fast","post_correct",0.511511969566345,89.2361111111111
332.946030199999,0.1,"AG05AS29","2022_Mar_17_1252","NotPresent_First","S_blue","MainTask",128,"Flanker","absent",1,"S","4",1,0.299198899998373,"fast","post_correct",0.511511969566345,89.2361111111111
333.0447401,0.2,"AG05AS29","2022_Mar_17_1252","NotPresent_First","S_blue","MainTask",128,"Target","absent",1,"S","4",1,0.299198899998373,"fast","post_correct",0.511511969566345,89.2361111111111
333.343938999998,0,"AG05AS29","2022_Mar_17_1252","NotPresent_First","S_blue","MainTask",128,"Response","absent",1,"S","4",1,0.299198899998373,"fast","post_correct",0.511511969566345,89.2361111111111
334.329900299999,0.1,"AG05AS29","2022_Mar_17_1252","NotPresent_First","S_blue","MainTask",129,"Flanker","absent",0.66,"S","4",1,0.278790300000765,"fast","post_correct",0.511511969566345,89.2361111111111
334.428132899999,0.2,"AG05AS29","2022_Mar_17_1252","NotPresent_First","S_blue","MainTask",129,"Target","absent",0.66,"S","4",1,0.278790300000765,"fast","post_correct",0.511511969566345,89.2361111111111
334.706923199999,0,"AG05AS29","2022_Mar_17_1252","NotPresent_First","S_blue","MainTask",129,"Response","absent",0.66,"S","4",1,0.278790300000765,"fast","post_correct",0.511511969566345,89.2361111111111
335.529106599999,0.1,"AG05AS29","2022_Mar_17_1252","NotPresent_First","S_blue","MainTask",130,"Flanker","absent",1,"H","2",1,0.4089598999999,"fast","post_correct",0.511511969566345,89.2361111111111
335.628052299999,0.2,"AG05AS29","2022_Mar_17_1252","NotPresent_First","S_blue","MainTask",130,"Target","absent",1,"H","2",1,0.4089598999999,"fast","post_correct",0.511511969566345,89.2361111111111
336.037012199999,0,"AG05AS29","2022_Mar_17_1252","NotPresent_First","S_blue","MainTask",130,"Response","absent",1,"H","2",1,0.4089598999999,"fast","post_correct",0.511511969566345,89.2361111111111
336.9612258,0.1,"AG05AS29","2022_Mar_17_1252","NotPresent_First","S_blue","MainTask",131,"Flanker","absent",1,"H","2",1,0.285202899998694,"fast","post_correct",0.511511969566345,89.2361111111111
337.044707199999,0.2,"AG05AS29","2022_Mar_17_1252","NotPresent_First","S_blue","MainTask",131,"Target","absent",1,"H","2",1,0.285202899998694,"fast","post_correct",0.511511969566345,89.2361111111111
337.329910099998,0,"AG05AS29","2022_Mar_17_1252","NotPresent_First","S_blue","MainTask",131,"Response","absent",1,"H","2",1,0.285202899998694,"fast","post_correct",0.511511969566345,89.2361111111111
338.362478999999,0.1,"AG05AS29","2022_Mar_17_1252","NotPresent_First","S_blue","MainTask",132,"Flanker","absent",0,"H","2",1,0.457280599999649,"fast","post_correct",0.511511969566345,89.2361111111111
338.4613906,0.2,"AG05AS29","2022_Mar_17_1252","NotPresent_First","S_blue","MainTask",132,"Target","absent",0,"H","2",1,0.457280599999649,"fast","post_correct",0.511511969566345,89.2361111111111
338.918671199999,0,"AG05AS29","2022_Mar_17_1252","NotPresent_First","S_blue","MainTask",132,"Response","absent",0,"H","2",1,0.457280599999649,"fast","post_correct",0.511511969566345,89.2361111111111
339.7282454,0.1,"AG05AS29","2022_Mar_17_1252","NotPresent_First","S_blue","MainTask",133,"Flanker","absent",1,"S","4",1,0.364834500000143,"fast","post_correct",0.511511969566345,89.2361111111111
339.8110879,0.2,"AG05AS29","2022_Mar_17_1252","NotPresent_First","S_blue","MainTask",133,"Target","absent",1,"S","4",1,0.364834500000143,"fast","post_correct",0.511511969566345,89.2361111111111
340.1759224,0,"AG05AS29","2022_Mar_17_1252","NotPresent_First","S_blue","MainTask",133,"Response","absent",1,"S","4",1,0.364834500000143,"fast","post_correct",0.511511969566345,89.2361111111111
341.0791307,0.1,"AG05AS29","2022_Mar_17_1252","NotPresent_First","S_blue","MainTask",134,"Flanker","absent",1,"H","2",1,0.411828000000241,"fast","post_correct",0.511511969566345,89.2361111111111
341.178073399999,0.2,"AG05AS29","2022_Mar_17_1252","NotPresent_First","S_blue","MainTask",134,"Target","absent",1,"H","2",1,0.411828000000241,"fast","post_correct",0.511511969566345,89.2361111111111
341.589901399999,0,"AG05AS29","2022_Mar_17_1252","NotPresent_First","S_blue","MainTask",134,"Response","absent",1,"H","2",1,0.411828000000241,"fast","post_correct",0.511511969566345,89.2361111111111
342.4290836,0.1,"AG05AS29","2022_Mar_17_1252","NotPresent_First","S_blue","MainTask",135,"Flanker","absent",0,"S","4",1,0.398784200000591,"fast","post_correct",0.511511969566345,89.2361111111111
342.528100599999,0.2,"AG05AS29","2022_Mar_17_1252","NotPresent_First","S_blue","MainTask",135,"Target","absent",0,"S","4",1,0.398784200000591,"fast","post_correct",0.511511969566345,89.2361111111111
342.926884799999,0,"AG05AS29","2022_Mar_17_1252","NotPresent_First","S_blue","MainTask",135,"Response","absent",0,"S","4",1,0.398784200000591,"fast","post_correct",0.511511969566345,89.2361111111111
343.9119061,0.1,"AG05AS29","2022_Mar_17_1252","NotPresent_First","S_blue","MainTask",136,"Flanker","absent",1,"H","2",1,0.209399200000917,"fast","post_correct",0.511511969566345,89.2361111111111
343.994631699999,0.2,"AG05AS29","2022_Mar_17_1252","NotPresent_First","S_blue","MainTask",136,"Target","absent",1,"H","2",1,0.209399200000917,"fast","post_correct",0.511511969566345,89.2361111111111
344.2040309,0,"AG05AS29","2022_Mar_17_1252","NotPresent_First","S_blue","MainTask",136,"Response","absent",1,"H","2",1,0.209399200000917,"fast","post_correct",0.511511969566345,89.2361111111111
344.9957696,0.1,"AG05AS29","2022_Mar_17_1252","NotPresent_First","S_blue","MainTask",137,"Flanker","absent",0,"S","4",1,0.382276099999217,"fast","post_correct",0.511511969566345,89.2361111111111
345.0946138,0.2,"AG05AS29","2022_Mar_17_1252","NotPresent_First","S_blue","MainTask",137,"Target","absent",0,"S","4",1,0.382276099999217,"fast","post_correct",0.511511969566345,89.2361111111111
345.476889899999,0,"AG05AS29","2022_Mar_17_1252","NotPresent_First","S_blue","MainTask",137,"Response","absent",0,"S","4",1,0.382276099999217,"fast","post_correct",0.511511969566345,89.2361111111111
346.3955515,0.1,"AG05AS29","2022_Mar_17_1252","NotPresent_First","S_blue","MainTask",138,"Flanker","absent",1,"H","2",1,0.338069399998858,"fast","post_correct",0.511511969566345,89.2361111111111
346.4781193,0.2,"AG05AS29","2022_Mar_17_1252","NotPresent_First","S_blue","MainTask",138,"Target","absent",1,"H","2",1,0.338069399998858,"fast","post_correct",0.511511969566345,89.2361111111111
346.816188699999,0,"AG05AS29","2022_Mar_17_1252","NotPresent_First","S_blue","MainTask",138,"Response","absent",1,"H","2",1,0.338069399998858,"fast","post_correct",0.511511969566345,89.2361111111111
347.7125502,0.1,"AG05AS29","2022_Mar_17_1252","NotPresent_First","S_blue","MainTask",139,"Flanker","absent",1,"S","4",1,0.317538600000262,"fast","post_correct",0.511511969566345,89.2361111111111
347.8113896,0.2,"AG05AS29","2022_Mar_17_1252","NotPresent_First","S_blue","MainTask",139,"Target","absent",1,"S","4",1,0.317538600000262,"fast","post_correct",0.511511969566345,89.2361111111111
348.1289282,0,"AG05AS29","2022_Mar_17_1252","NotPresent_First","S_blue","MainTask",139,"Response","absent",1,"S","4",1,0.317538600000262,"fast","post_correct",0.511511969566345,89.2361111111111
349.079168599999,0.1,"AG05AS29","2022_Mar_17_1252","NotPresent_First","S_blue","MainTask",140,"Flanker","absent",0.66,"S","4",1,0.422042399999555,"fast","post_correct",0.511511969566345,89.2361111111111
349.178051299999,0.2,"AG05AS29","2022_Mar_17_1252","NotPresent_First","S_blue","MainTask",140,"Target","absent",0.66,"S","4",1,0.422042399999555,"fast","post_correct",0.511511969566345,89.2361111111111
349.600093699999,0,"AG05AS29","2022_Mar_17_1252","NotPresent_First","S_blue","MainTask",140,"Response","absent",0.66,"S","4",1,0.422042399999555,"fast","post_correct",0.511511969566345,89.2361111111111
350.562558199999,0.1,"AG05AS29","2022_Mar_17_1252","NotPresent_First","S_blue","MainTask",141,"Flanker","absent",1,"S","4",1,0.388662399998793,"fast","post_correct",0.511511969566345,89.2361111111111
350.661421299999,0.2,"AG05AS29","2022_Mar_17_1252","NotPresent_First","S_blue","MainTask",141,"Target","absent",1,"S","4",1,0.388662399998793,"fast","post_correct",0.511511969566345,89.2361111111111
351.050083699998,0,"AG05AS29","2022_Mar_17_1252","NotPresent_First","S_blue","MainTask",141,"Response","absent",1,"S","4",1,0.388662399998793,"fast","post_correct",0.511511969566345,89.2361111111111
351.8627366,0.1,"AG05AS29","2022_Mar_17_1252","NotPresent_First","S_blue","MainTask",142,"Flanker","absent",0.66,"S","4",1,0.368575800001054,"fast","post_correct",0.511511969566345,89.2361111111111
351.9614895,0.2,"AG05AS29","2022_Mar_17_1252","NotPresent_First","S_blue","MainTask",142,"Target","absent",0.66,"S","4",1,0.368575800001054,"fast","post_correct",0.511511969566345,89.2361111111111
352.330065300001,0,"AG05AS29","2022_Mar_17_1252","NotPresent_First","S_blue","MainTask",142,"Response","absent",0.66,"S","4",1,0.368575800001054,"fast","post_correct",0.511511969566345,89.2361111111111
353.2127542,0.1,"AG05AS29","2022_Mar_17_1252","NotPresent_First","S_blue","MainTask",143,"Flanker","absent",1,"S","4",1,0.291577199999665,"fast","post_correct",0.511511969566345,89.2361111111111
353.311404999999,0.2,"AG05AS29","2022_Mar_17_1252","NotPresent_First","S_blue","MainTask",143,"Target","absent",1,"S","4",1,0.291577199999665,"fast","post_correct",0.511511969566345,89.2361111111111
353.602982199998,0,"AG05AS29","2022_Mar_17_1252","NotPresent_First","S_blue","MainTask",143,"Response","absent",1,"S","4",1,0.291577199999665,"fast","post_correct",0.511511969566345,89.2361111111111
354.643893999999,0.1,"AG05AS29","2022_Mar_17_1252","NotPresent_First","S_blue","MainTask",144,"Flanker","absent",0.33,"H","2",1,0.375844800000777,"fast","post_correct",0.511511969566345,89.2361111111111
354.728051099999,0.2,"AG05AS29","2022_Mar_17_1252","NotPresent_First","S_blue","MainTask",144,"Target","absent",0.33,"H","2",1,0.375844800000777,"fast","post_correct",0.511511969566345,89.2361111111111
355.1038959,0,"AG05AS29","2022_Mar_17_1252","NotPresent_First","S_blue","MainTask",144,"Response","absent",0.33,"H","2",1,0.375844800000777,"fast","post_correct",0.511511969566345,89.2361111111111
356.112424199999,0.1,"AG05AS29","2022_Mar_17_1252","NotPresent_First","S_blue","MainTask",145,"Flanker","absent",0.33,"S","4",1,0.331746099998782,"fast","post_correct",0.511511969566345,89.2361111111111
356.2113744,0.2,"AG05AS29","2022_Mar_17_1252","NotPresent_First","S_blue","MainTask",145,"Target","absent",0.33,"S","4",1,0.331746099998782,"fast","post_correct",0.511511969566345,89.2361111111111
356.543120499999,0,"AG05AS29","2022_Mar_17_1252","NotPresent_First","S_blue","MainTask",145,"Response","absent",0.33,"S","4",1,0.331746099998782,"fast","post_correct",0.511511969566345,89.2361111111111
357.345762399998,0.1,"AG05AS29","2022_Mar_17_1252","NotPresent_First","S_blue","MainTask",146,"Flanker","absent",0,"H","2",1,0.388717699999688,"fast","post_correct",0.511511969566345,89.2361111111111
357.4446864,0.2,"AG05AS29","2022_Mar_17_1252","NotPresent_First","S_blue","MainTask",146,"Target","absent",0,"H","2",1,0.388717699999688,"fast","post_correct",0.511511969566345,89.2361111111111
357.8334041,0,"AG05AS29","2022_Mar_17_1252","NotPresent_First","S_blue","MainTask",146,"Response","absent",0,"H","2",1,0.388717699999688,"fast","post_correct",0.511511969566345,89.2361111111111
358.7957701,0.1,"AG05AS29","2022_Mar_17_1252","NotPresent_First","S_blue","MainTask",147,"Flanker","absent",0.66,"H","2",1,0.400559700001395,"fast","post_correct",0.511511969566345,89.2361111111111
358.8945852,0.2,"AG05AS29","2022_Mar_17_1252","NotPresent_First","S_blue","MainTask",147,"Target","absent",0.66,"H","2",1,0.400559700001395,"fast","post_correct",0.511511969566345,89.2361111111111
359.295144900001,0,"AG05AS29","2022_Mar_17_1252","NotPresent_First","S_blue","MainTask",147,"Response","absent",0.66,"H","2",1,0.400559700001395,"fast","post_correct",0.511511969566345,89.2361111111111
360.0799656,0.1,"AG05AS29","2022_Mar_17_1252","NotPresent_First","S_blue","MainTask",148,"Flanker","absent",0,"H","2",1,0.402827800000523,"fast","post_correct",0.511511969566345,89.2361111111111
360.178049,0.2,"AG05AS29","2022_Mar_17_1252","NotPresent_First","S_blue","MainTask",148,"Target","absent",0,"H","2",1,0.402827800000523,"fast","post_correct",0.511511969566345,89.2361111111111
360.580876800001,0,"AG05AS29","2022_Mar_17_1252","NotPresent_First","S_blue","MainTask",148,"Response","absent",0,"H","2",1,0.402827800000523,"fast","post_correct",0.511511969566345,89.2361111111111
361.562561899998,0.1,"AG05AS29","2022_Mar_17_1252","NotPresent_First","S_blue","MainTask",149,"Flanker","absent",0,"S","4",1,0.369676700000127,"fast","post_correct",0.511511969566345,89.2361111111111
361.661312099999,0.2,"AG05AS29","2022_Mar_17_1252","NotPresent_First","S_blue","MainTask",149,"Target","absent",0,"S","4",1,0.369676700000127,"fast","post_correct",0.511511969566345,89.2361111111111
362.030988799999,0,"AG05AS29","2022_Mar_17_1252","NotPresent_First","S_blue","MainTask",149,"Response","absent",0,"S","4",1,0.369676700000127,"fast","post_correct",0.511511969566345,89.2361111111111
362.9957292,0.1,"AG05AS29","2022_Mar_17_1252","NotPresent_First","S_blue","MainTask",150,"Flanker","absent",0.66,"S","4",1,0.292781899999682,"fast","post_correct",0.511511969566345,89.2361111111111
363.0941738,0.2,"AG05AS29","2022_Mar_17_1252","NotPresent_First","S_blue","MainTask",150,"Target","absent",0.66,"S","4",1,0.292781899999682,"fast","post_correct",0.511511969566345,89.2361111111111
363.3869557,0,"AG05AS29","2022_Mar_17_1252","NotPresent_First","S_blue","MainTask",150,"Response","absent",0.66,"S","4",1,0.292781899999682,"fast","post_correct",0.511511969566345,89.2361111111111
364.3116295,0.1,"AG05AS29","2022_Mar_17_1252","NotPresent_First","S_blue","MainTask",151,"Flanker","absent",1,"H","2",1,0.329410799999096,"fast","post_correct",0.511511969566345,89.2361111111111
364.4114395,0.2,"AG05AS29","2022_Mar_17_1252","NotPresent_First","S_blue","MainTask",151,"Target","absent",1,"H","2",1,0.329410799999096,"fast","post_correct",0.511511969566345,89.2361111111111
364.740850299999,0,"AG05AS29","2022_Mar_17_1252","NotPresent_First","S_blue","MainTask",151,"Response","absent",1,"H","2",1,0.329410799999096,"fast","post_correct",0.511511969566345,89.2361111111111
365.761295999999,0.1,"AG05AS29","2022_Mar_17_1252","NotPresent_First","S_blue","MainTask",152,"Flanker","absent",1,"H","2",1,0.318523600000844,"fast","post_correct",0.511511969566345,89.2361111111111
365.8446448,0.2,"AG05AS29","2022_Mar_17_1252","NotPresent_First","S_blue","MainTask",152,"Target","absent",1,"H","2",1,0.318523600000844,"fast","post_correct",0.511511969566345,89.2361111111111
366.1631684,0,"AG05AS29","2022_Mar_17_1252","NotPresent_First","S_blue","MainTask",152,"Response","absent",1,"H","2",1,0.318523600000844,"fast","post_correct",0.511511969566345,89.2361111111111
366.978216599999,0.1,"AG05AS29","2022_Mar_17_1252","NotPresent_First","S_blue","MainTask",153,"Flanker","absent",0.33,"H","2",1,0.343016400000124,"fast","post_correct",0.511511969566345,89.2361111111111
367.077987799999,0.2,"AG05AS29","2022_Mar_17_1252","NotPresent_First","S_blue","MainTask",153,"Target","absent",0.33,"H","2",1,0.343016400000124,"fast","post_correct",0.511511969566345,89.2361111111111
367.4210042,0,"AG05AS29","2022_Mar_17_1252","NotPresent_First","S_blue","MainTask",153,"Response","absent",0.33,"H","2",1,0.343016400000124,"fast","post_correct",0.511511969566345,89.2361111111111
368.211169299999,0.1,"AG05AS29","2022_Mar_17_1252","NotPresent_First","S_blue","MainTask",154,"Flanker","absent",0.33,"H","2",1,0.329209000001356,"fast","post_correct",0.511511969566345,89.2361111111111
