"Onset","Duration","Participant","date_time","Running","Trial","Event","ImageCondition","ImageFile","Colour","Accuracy","RT","Post_Trial","Post_TrialCondition","TaskPerf"
74.0445937872664,1.24360612295605,"AU06EL20","2022_Mar_01_1114","Practice",0,"Fixation","Scramble","","",1,0.51684949137416,"post_correct","post_erotic_couple",91.7410714285714
75.3457201399287,1.3650700249041,"AU06EL20","2022_Mar_01_1114","Practice",0,"Picture","Scramble","","",1,0.51684949137416,"post_correct","post_erotic_couple",91.7410714285714
76.6968249643542,0.51684949137416,"AU06EL20","2022_Mar_01_1114","Practice",0,"Target","Scramble","","",1,0.51684949137416,"post_correct","post_erotic_couple",91.7410714285714
77.2136744557284,0,"AU06EL20","2022_Mar_01_1114","Practice",0,"Response","Scramble","","",1,0.51684949137416,"post_correct","post_erotic_couple",91.7410714285714
77.2306368390709,1.45726606601122,"AU06EL20","2022_Mar_01_1114","Practice",1,"Fixation","Scramble","","",0,NA,"post_correct",NA,91.7410714285714
78.7319297000977,1.46144234084333,"AU06EL20","2022_Mar_01_1114","Practice",1,"Picture","Scramble","","",0,NA,"post_correct",NA,91.7410714285714
80.1664911541702,NA,"AU06EL20","2022_Mar_01_1114","Practice",1,"Target","Scramble","","",0,NA,"post_correct",NA,91.7410714285714
81.1840273321086,1.10870762124932,"AU06EL20","2022_Mar_01_1114","Practice",2,"Fixation","Scramble","","",1,0.670989913816811,"post_noResponse",NA,91.7410714285714
82.3350703722463,1.0784761513987,"AU06EL20","2022_Mar_01_1114","Practice",2,"Picture","Scramble","","",1,0.670989913816811,"post_noResponse",NA,91.7410714285714
83.4025958152379,0.670989913816811,"AU06EL20","2022_Mar_01_1114","Practice",2,"Target","Scramble","","",1,0.670989913816811,"post_noResponse",NA,91.7410714285714
84.0735857290547,0,"AU06EL20","2022_Mar_01_1114","Practice",2,"Response","Scramble","","",1,0.670989913816811,"post_noResponse",NA,91.7410714285714
84.1031995976737,1.15843726217293,"AU06EL20","2022_Mar_01_1114","Practice",3,"Fixation","Scramble","","",1,0.254065277813424,"post_correct",NA,91.7410714285714
85.3042351116783,1.46339811983394,"AU06EL20","2022_Mar_01_1114","Practice",3,"Picture","Scramble","","",1,0.254065277813424,"post_correct",NA,91.7410714285714
86.7554806572589,0.254065277813424,"AU06EL20","2022_Mar_01_1114","Practice",3,"Target","Scramble","","",1,0.254065277813424,"post_correct",NA,91.7410714285714
87.0095459350723,0,"AU06EL20","2022_Mar_01_1114","Practice",3,"Response","Scramble","","",1,0.254065277813424,"post_correct",NA,91.7410714285714
87.0390530376408,1.09820707334975,"AU06EL20","2022_Mar_01_1114","Practice",4,"Fixation","Scramble","","",0,NA,"post_correct",NA,91.7410714285714
88.1400035471997,1.00497260412462,"AU06EL20","2022_Mar_01_1114","Practice",4,"Picture","Scramble","","",0,NA,"post_correct",NA,91.7410714285714
89.1408568004717,NA,"AU06EL20","2022_Mar_01_1114","Practice",4,"Target","Scramble","","",0,NA,"post_correct",NA,91.7410714285714
90.1584113561748,1.22633571196173,"AU06EL20","2022_Mar_01_1114","Practice",5,"Fixation","Scramble","","",0,NA,"post_noResponse",NA,91.7410714285714
91.3927946334607,1.17229649036623,"AU06EL20","2022_Mar_01_1114","Practice",5,"Picture","Scramble","","",0,NA,"post_noResponse",NA,91.7410714285714
92.5604602141866,NA,"AU06EL20","2022_Mar_01_1114","Practice",5,"Target","Scramble","","",0,NA,"post_noResponse",NA,91.7410714285714
93.57799989265,1.14154117360141,"AU06EL20","2022_Mar_01_1114","Practice",6,"Fixation","Scramble","","",1,0.271851159957805,"post_noResponse",NA,91.7410714285714
94.7289927585789,1.07539525215635,"AU06EL20","2022_Mar_01_1114","Practice",6,"Picture","Scramble","","",1,0.271851159957805,"post_noResponse",NA,91.7410714285714
95.7965747934104,0.271851159957805,"AU06EL20","2022_Mar_01_1114","Practice",6,"Target","Scramble","","",1,0.271851159957805,"post_noResponse",NA,91.7410714285714
96.0684259533682,0,"AU06EL20","2022_Mar_01_1114","Practice",6,"Response","Scramble","","",1,0.271851159957805,"post_noResponse",NA,91.7410714285714
96.0968327238534,1.07882781186277,"AU06EL20","2022_Mar_01_1114","Practice",7,"Fixation","Scramble","","",1,0.687097585338051,"post_correct",NA,91.7410714285714
97.1810959330887,1.40111442466822,"AU06EL20","2022_Mar_01_1114","Practice",7,"Picture","Scramble","","",1,0.687097585338051,"post_correct",NA,91.7410714285714
98.5822988305918,0.687097585338051,"AU06EL20","2022_Mar_01_1114","Practice",7,"Target","Scramble","","",1,0.687097585338051,"post_correct",NA,91.7410714285714
99.2693964159298,0,"AU06EL20","2022_Mar_01_1114","Practice",7,"Response","Scramble","","",1,0.687097585338051,"post_correct",NA,91.7410714285714
99.2995840791409,1.06034556929023,"AU06EL20","2022_Mar_01_1114","Practice",8,"Fixation","Scramble","","",0,NA,"post_correct",NA,91.7410714285714
100.367167864237,1.12039478324584,"AU06EL20","2022_Mar_01_1114","Practice",8,"Picture","Scramble","","",0,NA,"post_correct",NA,91.7410714285714
101.484791672015,NA,"AU06EL20","2022_Mar_01_1114","Practice",8,"Target","Scramble","","",0,NA,"post_correct",NA,91.7410714285714
102.502328725086,1.17167691288161,"AU06EL20","2022_Mar_01_1114","Practice",9,"Fixation","Scramble","","",1,0.744559598791966,"post_noResponse",NA,91.7410714285714
103.686682772977,1.24842516792582,"AU06EL20","2022_Mar_01_1114","Practice",9,"Picture","Scramble","","",1,0.744559598791966,"post_noResponse",NA,91.7410714285714
104.937752475456,0.744559598791966,"AU06EL20","2022_Mar_01_1114","Practice",9,"Target","Scramble","","",1,0.744559598791966,"post_noResponse",NA,91.7410714285714
105.682312074248,0,"AU06EL20","2022_Mar_01_1114","Practice",9,"Response","Scramble","","",1,0.744559598791966,"post_noResponse",NA,91.7410714285714
105.70511771103,1.2369743224926,"AU06EL20","2022_Mar_01_1114","Practice",10,"Fixation","Scramble","","",1,0.573010767617234,"post_correct",NA,91.7410714285714
106.956178370481,1.31224348735017,"AU06EL20","2022_Mar_01_1114","Practice",10,"Picture","Scramble","","",1,0.573010767617234,"post_correct",NA,91.7410714285714
108.257268551039,0.573010767617234,"AU06EL20","2022_Mar_01_1114","Practice",10,"Target","Scramble","","",1,0.573010767617234,"post_correct",NA,91.7410714285714
108.830279318656,0,"AU06EL20","2022_Mar_01_1114","Practice",10,"Response","Scramble","","",1,0.573010767617234,"post_correct",NA,91.7410714285714
108.857784995345,1.36480612827116,"AU06EL20","2022_Mar_01_1114","Practice",11,"Fixation","Scramble","","",1,0.764610613128752,"post_correct",NA,91.7410714285714
110.22563079483,1.16332599243113,"AU06EL20","2022_Mar_01_1114","Practice",11,"Picture","Scramble","","",1,0.764610613128752,"post_correct",NA,91.7410714285714
111.376612575757,0.764610613128752,"AU06EL20","2022_Mar_01_1114","Practice",11,"Target","Scramble","","",1,0.764610613128752,"post_correct",NA,91.7410714285714
112.141223188886,0,"AU06EL20","2022_Mar_01_1114","Practice",11,"Response","Scramble","","",1,0.764610613128752,"post_correct",NA,91.7410714285714
112.160623688762,1.33397214353015,"AU06EL20","2022_Mar_01_1114","Practice",12,"Fixation","Scramble","","",1,0.812225354544353,"post_correct",NA,91.7410714285714
113.495105972599,1.00529021316863,"AU06EL20","2022_Mar_01_1114","Practice",12,"Picture","Scramble","","",1,0.812225354544353,"post_correct",NA,91.7410714285714
114.495960684424,0.812225354544353,"AU06EL20","2022_Mar_01_1114","Practice",12,"Target","Scramble","","",1,0.812225354544353,"post_correct",NA,91.7410714285714
115.308186038968,0,"AU06EL20","2022_Mar_01_1114","Practice",12,"Response","Scramble","","",1,0.812225354544353,"post_correct",NA,91.7410714285714
115.330010944979,1.28720758024349,"AU06EL20","2022_Mar_01_1114","Practice",13,"Fixation","Scramble","","",1,0.88469237375466,"post_correct",NA,91.7410714285714
116.631131463429,1.19366815385413,"AU06EL20","2022_Mar_01_1114","Practice",13,"Picture","Scramble","","",1,0.88469237375466,"post_correct",NA,91.7410714285714
117.815475593165,0.88469237375466,"AU06EL20","2022_Mar_01_1114","Practice",13,"Target","Scramble","","",1,0.88469237375466,"post_correct",NA,91.7410714285714
118.70016796692,0,"AU06EL20","2022_Mar_01_1114","Practice",13,"Response","Scramble","","",1,0.88469237375466,"post_correct",NA,91.7410714285714
118.732931434026,1.36877010223048,"AU06EL20","2022_Mar_01_1114","Practice",14,"Fixation","Scramble","","",1,0.749920654738162,"post_correct",NA,91.7410714285714
120.100775483248,1.24074085314185,"AU06EL20","2022_Mar_01_1114","Practice",14,"Picture","Scramble","","",1,0.749920654738162,"post_correct",NA,91.7410714285714
121.335168970401,0.749920654738162,"AU06EL20","2022_Mar_01_1114","Practice",14,"Target","Scramble","","",1,0.749920654738162,"post_correct",NA,91.7410714285714
122.085089625139,0,"AU06EL20","2022_Mar_01_1114","Practice",14,"Response","Scramble","","",1,0.749920654738162,"post_correct",NA,91.7410714285714
122.102491616241,1.25496477471289,"AU06EL20","2022_Mar_01_1114","Practice",15,"Fixation","Scramble","","",0,NA,"post_correct",NA,91.7410714285714
123.370249202464,1.15141971603388,"AU06EL20","2022_Mar_01_1114","Practice",15,"Picture","Scramble","","",0,NA,"post_correct",NA,91.7410714285714
124.521234483918,NA,"AU06EL20","2022_Mar_01_1114","Practice",15,"Target","Scramble","","",0,NA,"post_correct",NA,91.7410714285714
125.538774745804,1.25555047837983,"AU06EL20","2022_Mar_01_1114","Practice",16,"Fixation","Scramble","","",1,0.533795247218222,"post_noResponse",NA,91.7410714285714
126.806536707685,1.12921070638401,"AU06EL20","2022_Mar_01_1114","Practice",16,"Picture","Scramble","","",1,0.533795247218222,"post_noResponse",NA,91.7410714285714
127.924156431518,0.533795247218222,"AU06EL20","2022_Mar_01_1114","Practice",16,"Target","Scramble","","",1,0.533795247218222,"post_noResponse",NA,91.7410714285714
128.457951678736,0,"AU06EL20","2022_Mar_01_1114","Practice",16,"Response","Scramble","","",1,0.533795247218222,"post_noResponse",NA,91.7410714285714
128.474628477481,1.42244779560034,"AU06EL20","2022_Mar_01_1114","Practice",17,"Fixation","Scramble","","",0,NA,"post_correct",NA,91.7410714285714
129.909199849712,1.33924607303373,"AU06EL20","2022_Mar_01_1114","Practice",17,"Picture","Scramble","","",0,NA,"post_correct",NA,91.7410714285714
131.243675715916,NA,"AU06EL20","2022_Mar_01_1114","Practice",17,"Target","Scramble","","",0,NA,"post_correct",NA,91.7410714285714
132.261212768986,1.24750859611658,"AU06EL20","2022_Mar_01_1114","Practice",18,"Fixation","Scramble","","",1,0.469025010092082,"post_noResponse",NA,91.7410714285714
133.512291222782,1.06927989444129,"AU06EL20","2022_Mar_01_1114","Practice",18,"Picture","Scramble","","",1,0.469025010092082,"post_noResponse",NA,91.7410714285714
134.579872382481,0.469025010092082,"AU06EL20","2022_Mar_01_1114","Practice",18,"Target","Scramble","","",1,0.469025010092082,"post_noResponse",NA,91.7410714285714
135.048897392573,0,"AU06EL20","2022_Mar_01_1114","Practice",18,"Response","Scramble","","",1,0.469025010092082,"post_noResponse",NA,91.7410714285714
135.080297988132,1.41278850066905,"AU06EL20","2022_Mar_01_1114","Practice",19,"Fixation","Scramble","","",1,0.726999208880443,"post_correct",NA,91.7410714285714
136.498187310826,1.21846846179998,"AU06EL20","2022_Mar_01_1114","Practice",19,"Picture","Scramble","","",1,0.726999208880443,"post_correct",NA,91.7410714285714
137.715890580552,0.726999208880443,"AU06EL20","2022_Mar_01_1114","Practice",19,"Target","Scramble","","",1,0.726999208880443,"post_correct",NA,91.7410714285714
138.442889789432,0,"AU06EL20","2022_Mar_01_1114","Practice",19,"Response","Scramble","","",1,0.726999208880443,"post_correct",NA,91.7410714285714
142.836964156944,1.33607857894736,"AU06EL20","2022_Mar_01_1114","MainTask",0,"Fixation","erotic_woman","woman_2","blue",0,NA,NA,NA,91.7410714285714
144.271536404307,1.2699633330759,"AU06EL20","2022_Mar_01_1114","MainTask",0,"Picture","erotic_woman","woman_2","blue",0,NA,NA,NA,91.7410714285714
145.522599397444,NA,"AU06EL20","2022_Mar_01_1114","MainTask",0,"Target","erotic_woman","woman_2","blue",0,NA,NA,NA,91.7410714285714
146.540139367618,1.37444683546224,"AU06EL20","2022_Mar_01_1114","MainTask",1,"Fixation","neutral_man_woman","neutral_1","green",1,0.554760774035458,"post_noResponse","post_erotic_woman",91.7410714285714
147.991411750567,1.08169066146161,"AU06EL20","2022_Mar_01_1114","MainTask",1,"Picture","neutral_man_woman","neutral_1","green",1,0.554760774035458,"post_noResponse","post_erotic_woman",91.7410714285714
149.058971031978,0.554760774035458,"AU06EL20","2022_Mar_01_1114","MainTask",1,"Target","neutral_man_woman","neutral_1","green",1,0.554760774035458,"post_noResponse","post_erotic_woman",91.7410714285714
149.613731806013,0,"AU06EL20","2022_Mar_01_1114","MainTask",1,"Response","neutral_man_woman","neutral_1","green",1,0.554760774035458,"post_noResponse","post_erotic_woman",91.7410714285714
149.642807468723,1.01335648642684,"AU06EL20","2022_Mar_01_1114","MainTask",2,"Fixation","positive_man_woman","positive_2","blue",1,0.675259680705494,"post_correct","post_neutral_man_woman",91.7410714285714
150.743754769468,1.1828889335829,"AU06EL20","2022_Mar_01_1114","MainTask",2,"Picture","positive_man_woman","positive_2","blue",1,0.675259680705494,"post_correct","post_neutral_man_woman",91.7410714285714
151.91141830822,0.675259680705494,"AU06EL20","2022_Mar_01_1114","MainTask",2,"Target","positive_man_woman","positive_2","blue",1,0.675259680705494,"post_correct","post_neutral_man_woman",91.7410714285714
152.586677988925,0,"AU06EL20","2022_Mar_01_1114","MainTask",2,"Response","positive_man_woman","positive_2","blue",1,0.675259680705494,"post_correct","post_neutral_man_woman",91.7410714285714
152.612018590129,1.08257452795431,"AU06EL20","2022_Mar_01_1114","MainTask",3,"Fixation","tree","tree_8","green",1,0.458708959247815,"post_correct","post_positive_man_woman",91.7410714285714
153.763010289214,1.47455309593892,"AU06EL20","2022_Mar_01_1114","MainTask",3,"Picture","tree","tree_8","green",1,0.458708959247815,"post_correct","post_positive_man_woman",91.7410714285714
155.230935258935,0.458708959247815,"AU06EL20","2022_Mar_01_1114","MainTask",3,"Target","tree","tree_8","green",1,0.458708959247815,"post_correct","post_positive_man_woman",91.7410714285714
155.689644218183,0,"AU06EL20","2022_Mar_01_1114","MainTask",3,"Response","tree","tree_8","green",1,0.458708959247815,"post_correct","post_positive_man_woman",91.7410714285714
155.714688441496,1.0713712740166,"AU06EL20","2022_Mar_01_1114","MainTask",4,"Fixation","erotic_woman","woman_6","yellow",1,0.708414915041431,"post_correct","post_tree",91.7410714285714
156.86567372295,1.03873750472287,"AU06EL20","2022_Mar_01_1114","MainTask",4,"Picture","erotic_woman","woman_6","yellow",1,0.708414915041431,"post_correct","post_tree",91.7410714285714
157.883216901941,0.708414915041431,"AU06EL20","2022_Mar_01_1114","MainTask",4,"Target","erotic_woman","woman_6","yellow",1,0.708414915041431,"post_correct","post_tree",91.7410714285714
158.591631816982,0,"AU06EL20","2022_Mar_01_1114","MainTask",4,"Response","erotic_woman","woman_6","yellow",1,0.708414915041431,"post_correct","post_tree",91.7410714285714
158.617176907263,1.14056783481818,"AU06EL20","2022_Mar_01_1114","MainTask",5,"Fixation","neutral_couple","neutral_couple_7","blue",1,0.619069233407572,"post_correct","post_erotic_woman",91.7410714285714
159.834893595671,1.12243592930271,"AU06EL20","2022_Mar_01_1114","MainTask",5,"Picture","neutral_couple","neutral_couple_7","blue",1,0.619069233407572,"post_correct","post_erotic_woman",91.7410714285714
160.952514194634,0.619069233407572,"AU06EL20","2022_Mar_01_1114","MainTask",5,"Target","neutral_couple","neutral_couple_7","blue",1,0.619069233407572,"post_correct","post_erotic_woman",91.7410714285714
161.571583428042,0,"AU06EL20","2022_Mar_01_1114","MainTask",5,"Response","neutral_couple","neutral_couple_7","blue",1,0.619069233407572,"post_correct","post_erotic_woman",91.7410714285714
161.603089622808,1.19160265475549,"AU06EL20","2022_Mar_01_1114","MainTask",6,"Fixation","positive_man_woman","positive_7","red",1,0.749416870670757,"post_correct","post_neutral_couple",91.7410714285714
162.870836415741,1.15707021016266,"AU06EL20","2022_Mar_01_1114","MainTask",6,"Picture","positive_man_woman","positive_7","red",1,0.749416870670757,"post_correct","post_neutral_couple",91.7410714285714
164.005135855425,0.749416870670757,"AU06EL20","2022_Mar_01_1114","MainTask",6,"Target","positive_man_woman","positive_7","red",1,0.749416870670757,"post_correct","post_neutral_couple",91.7410714285714
164.754552726096,0,"AU06EL20","2022_Mar_01_1114","MainTask",6,"Response","positive_man_woman","positive_7","red",1,0.749416870670757,"post_correct","post_neutral_couple",91.7410714285714
164.772462876919,1.05687519596863,"AU06EL20","2022_Mar_01_1114","MainTask",7,"Fixation","erotic_man","man_5","green",1,0.273565834397232,"post_correct","post_positive_man_woman",91.7410714285714
165.92344582469,1.33780221153803,"AU06EL20","2022_Mar_01_1114","MainTask",7,"Picture","erotic_man","man_5","green",1,0.273565834397232,"post_correct","post_positive_man_woman",91.7410714285714
167.257931317341,0.273565834397232,"AU06EL20","2022_Mar_01_1114","MainTask",7,"Target","erotic_man","man_5","green",1,0.273565834397232,"post_correct","post_positive_man_woman",91.7410714285714
167.531497151738,0,"AU06EL20","2022_Mar_01_1114","MainTask",7,"Response","erotic_man","man_5","green",1,0.273565834397232,"post_correct","post_positive_man_woman",91.7410714285714
167.558185747257,1.11041297233174,"AU06EL20","2022_Mar_01_1114","MainTask",8,"Fixation","neutral_couple","neutral_couple_6","red",0,0.642189334130308,"post_correct","post_erotic_man",91.7410714285714
168.742538920018,1.2659020488413,"AU06EL20","2022_Mar_01_1114","MainTask",8,"Picture","neutral_couple","neutral_couple_6","red",0,0.642189334130308,"post_correct","post_erotic_man",91.7410714285714
170.010294464268,0.642189334130308,"AU06EL20","2022_Mar_01_1114","MainTask",8,"Target","neutral_couple","neutral_couple_6","red",0,0.642189334130308,"post_correct","post_erotic_man",91.7410714285714
170.652483798398,0,"AU06EL20","2022_Mar_01_1114","MainTask",8,"Response","neutral_couple","neutral_couple_6","red",0,0.642189334130308,"post_correct","post_erotic_man",91.7410714285714
170.677553108817,1.21444052590599,"AU06EL20","2022_Mar_01_1114","MainTask",9,"Fixation","erotic_woman","woman_8","blue",1,0.593860193648652,"post_error","post_neutral_couple",91.7410714285714
171.961965323788,1.43973108789562,"AU06EL20","2022_Mar_01_1114","MainTask",9,"Picture","erotic_woman","woman_8","blue",1,0.593860193648652,"post_error","post_neutral_couple",91.7410714285714
173.396536404307,0.593860193648652,"AU06EL20","2022_Mar_01_1114","MainTask",9,"Target","erotic_woman","woman_8","blue",1,0.593860193648652,"post_error","post_neutral_couple",91.7410714285714
173.990396597956,0,"AU06EL20","2022_Mar_01_1114","MainTask",9,"Response","erotic_woman","woman_8","blue",1,0.593860193648652,"post_error","post_neutral_couple",91.7410714285714
174.013751233935,1.05058594882866,"AU06EL20","2022_Mar_01_1114","MainTask",10,"Fixation","erotic_woman","woman_4","red",1,0.577433974240193,"post_correct","post_erotic_woman",91.7410714285714
175.131362789873,1.08471200722845,"AU06EL20","2022_Mar_01_1114","MainTask",10,"Picture","erotic_woman","woman_4","red",1,0.577433974240193,"post_correct","post_erotic_woman",91.7410714285714
176.198944532995,0.577433974240193,"AU06EL20","2022_Mar_01_1114","MainTask",10,"Target","erotic_woman","woman_4","red",1,0.577433974240193,"post_correct","post_erotic_woman",91.7410714285714
176.776378507235,0,"AU06EL20","2022_Mar_01_1114","MainTask",10,"Response","erotic_woman","woman_4","red",1,0.577433974240193,"post_correct","post_erotic_woman",91.7410714285714
176.799460977301,1.48487954633138,"AU06EL20","2022_Mar_01_1114","MainTask",11,"Fixation","neutral_man_woman","neutral_1","blue",0,0.698644946289278,"post_correct","post_erotic_woman",91.7410714285714
178.334112103186,1.45250609135984,"AU06EL20","2022_Mar_01_1114","MainTask",11,"Picture","neutral_man_woman","neutral_1","blue",0,0.698644946289278,"post_correct","post_erotic_woman",91.7410714285714
179.768676766074,0.698644946289278,"AU06EL20","2022_Mar_01_1114","MainTask",11,"Target","neutral_man_woman","neutral_1","blue",0,0.698644946289278,"post_correct","post_erotic_woman",91.7410714285714
180.467321712363,0,"AU06EL20","2022_Mar_01_1114","MainTask",11,"Response","neutral_man_woman","neutral_1","blue",0,0.698644946289278,"post_correct","post_erotic_woman",91.7410714285714
180.485960847782,1.01879418807061,"AU06EL20","2022_Mar_01_1114","MainTask",12,"Fixation","erotic_couple","couple_6","yellow",1,0.653723568109854,"post_error","post_neutral_man_woman",91.7410714285714
181.586905814842,1.19146324796334,"AU06EL20","2022_Mar_01_1114","MainTask",12,"Picture","erotic_couple","couple_6","yellow",1,0.653723568109854,"post_error","post_neutral_man_woman",91.7410714285714
182.754574896093,0.653723568109854,"AU06EL20","2022_Mar_01_1114","MainTask",12,"Target","erotic_couple","couple_6","yellow",1,0.653723568109854,"post_error","post_neutral_man_woman",91.7410714285714
183.408298464203,0,"AU06EL20","2022_Mar_01_1114","MainTask",12,"Response","erotic_couple","couple_6","yellow",1,0.653723568109854,"post_error","post_neutral_man_woman",91.7410714285714
183.438496628993,1.08756684280086,"AU06EL20","2022_Mar_01_1114","MainTask",13,"Fixation","erotic_man","man_8","red",0,0.673215956798231,"post_correct","post_erotic_couple",91.7410714285714
184.622846592938,1.0532814991586,"AU06EL20","2022_Mar_01_1114","MainTask",13,"Picture","erotic_man","man_8","red",0,0.673215956798231,"post_correct","post_erotic_couple",91.7410714285714
185.657065987254,0.673215956798231,"AU06EL20","2022_Mar_01_1114","MainTask",13,"Target","erotic_man","man_8","red",0,0.673215956798231,"post_correct","post_erotic_couple",91.7410714285714
186.330281944052,0,"AU06EL20","2022_Mar_01_1114","MainTask",13,"Response","erotic_man","man_8","red",0,0.673215956798231,"post_correct","post_erotic_couple",91.7410714285714
186.357668311137,1.21024769156336,"AU06EL20","2022_Mar_01_1114","MainTask",14,"Fixation","neutral_man_woman","neutral_5","green",1,0.474164657753136,"post_error","post_erotic_man",91.7410714285714
187.642105613211,1.11460188324295,"AU06EL20","2022_Mar_01_1114","MainTask",14,"Picture","neutral_man_woman","neutral_5","green",1,0.474164657753136,"post_error","post_erotic_man",91.7410714285714
188.743048538297,0.474164657753136,"AU06EL20","2022_Mar_01_1114","MainTask",14,"Target","neutral_man_woman","neutral_5","green",1,0.474164657753136,"post_error","post_erotic_man",91.7410714285714
189.21721319605,0,"AU06EL20","2022_Mar_01_1114","MainTask",14,"Response","neutral_man_woman","neutral_5","green",1,0.474164657753136,"post_error","post_erotic_man",91.7410714285714
189.243501273026,1.2799755108459,"AU06EL20","2022_Mar_01_1114","MainTask",15,"Fixation","tree","tree_8","blue",1,0.658924183268027,"post_correct","post_neutral_man_woman",91.7410714285714
190.577960803441,1.15810534584861,"AU06EL20","2022_Mar_01_1114","MainTask",15,"Picture","tree","tree_8","blue",1,0.658924183268027,"post_correct","post_neutral_man_woman",91.7410714285714
191.712265493912,0.658924183268027,"AU06EL20","2022_Mar_01_1114","MainTask",15,"Target","tree","tree_8","blue",1,0.658924183268027,"post_correct","post_neutral_man_woman",91.7410714285714
192.37118967718,0,"AU06EL20","2022_Mar_01_1114","MainTask",15,"Response","tree","tree_8","blue",1,0.658924183268027,"post_correct","post_neutral_man_woman",91.7410714285714
192.396187226814,1.27041766242352,"AU06EL20","2022_Mar_01_1114","MainTask",16,"Fixation","tree","tree_3","green",1,0.547400917603227,"post_correct","post_tree",91.7410714285714
193.764029525772,1.23171766979018,"AU06EL20","2022_Mar_01_1114","MainTask",16,"Picture","tree","tree_3","green",1,0.547400917603227,"post_correct","post_tree",91.7410714285714
194.981747964444,0.547400917603227,"AU06EL20","2022_Mar_01_1114","MainTask",16,"Target","tree","tree_3","green",1,0.547400917603227,"post_correct","post_tree",91.7410714285714
195.529148882047,0,"AU06EL20","2022_Mar_01_1114","MainTask",16,"Response","tree","tree_3","green",1,0.547400917603227,"post_correct","post_tree",91.7410714285714
195.548892725206,1.45511500171557,"AU06EL20","2022_Mar_01_1114","MainTask",17,"Fixation","neutral_man_woman","neutral_4","green",1,0.367634017648015,"post_correct","post_tree",91.7410714285714
197.083546184776,1.47573539427123,"AU06EL20","2022_Mar_01_1114","MainTask",17,"Picture","neutral_man_woman","neutral_4","green",1,0.367634017648015,"post_correct","post_tree",91.7410714285714
198.55147319647,0.367634017648015,"AU06EL20","2022_Mar_01_1114","MainTask",17,"Target","neutral_man_woman","neutral_4","green",1,0.367634017648015,"post_correct","post_tree",91.7410714285714
198.919107214118,0,"AU06EL20","2022_Mar_01_1114","MainTask",17,"Response","neutral_man_woman","neutral_4","green",1,0.367634017648015,"post_correct","post_tree",91.7410714285714
198.951815839648,1.05836262318338,"AU06EL20","2022_Mar_01_1114","MainTask",18,"Fixation","erotic_man","man_5","green",1,0.491662329903193,"post_correct","post_neutral_man_woman",91.7410714285714
200.036086341646,1.13877850827652,"AU06EL20","2022_Mar_01_1114","MainTask",18,"Picture","erotic_man","man_5","green",1,0.491662329903193,"post_correct","post_neutral_man_woman",91.7410714285714
201.170389865276,0.491662329903193,"AU06EL20","2022_Mar_01_1114","MainTask",18,"Target","erotic_man","man_5","green",1,0.491662329903193,"post_correct","post_neutral_man_woman",91.7410714285714
201.662052195179,0,"AU06EL20","2022_Mar_01_1114","MainTask",18,"Response","erotic_man","man_5","green",1,0.491662329903193,"post_correct","post_neutral_man_woman",91.7410714285714
201.687498979014,1.17339205148392,"AU06EL20","2022_Mar_01_1114","MainTask",19,"Fixation","positive_man_woman","positive_6","red",1,0.582183021513629,"post_correct","post_erotic_man",91.7410714285714
202.938575099124,1.45911462819878,"AU06EL20","2022_Mar_01_1114","MainTask",19,"Picture","positive_man_woman","positive_6","red",1,0.582183021513629,"post_correct","post_erotic_man",91.7410714285714
204.389819769573,0.582183021513629,"AU06EL20","2022_Mar_01_1114","MainTask",19,"Target","positive_man_woman","positive_6","red",1,0.582183021513629,"post_correct","post_erotic_man",91.7410714285714
204.972002791087,0,"AU06EL20","2022_Mar_01_1114","MainTask",19,"Response","positive_man_woman","positive_6","red",1,0.582183021513629,"post_correct","post_erotic_man",91.7410714285714
204.990345548615,1.36302321027317,"AU06EL20","2022_Mar_01_1114","MainTask",20,"Fixation","erotic_man","man_2","blue",1,0.681802747680194,"post_correct","post_positive_man_woman",91.7410714285714
206.408221160915,1.10885200916358,"AU06EL20","2022_Mar_01_1114","MainTask",20,"Picture","erotic_man","man_2","blue",1,0.681802747680194,"post_correct","post_positive_man_woman",91.7410714285714
207.509163794291,0.681802747680194,"AU06EL20","2022_Mar_01_1114","MainTask",20,"Target","erotic_man","man_2","blue",1,0.681802747680194,"post_correct","post_positive_man_woman",91.7410714285714
208.190966541971,0,"AU06EL20","2022_Mar_01_1114","MainTask",20,"Response","erotic_man","man_2","blue",1,0.681802747680194,"post_correct","post_positive_man_woman",91.7410714285714
208.209766118174,1.41037965032783,"AU06EL20","2022_Mar_01_1114","MainTask",21,"Fixation","positive_man_woman","positive_2","yellow",1,0.669387547928636,"post_correct","post_erotic_man",91.7410714285714
209.694374012561,1.35499570174107,"AU06EL20","2022_Mar_01_1114","MainTask",21,"Picture","positive_man_woman","positive_2","yellow",1,0.669387547928636,"post_correct","post_erotic_man",91.7410714285714
211.045533678564,0.669387547928636,"AU06EL20","2022_Mar_01_1114","MainTask",21,"Target","positive_man_woman","positive_2","yellow",1,0.669387547928636,"post_correct","post_erotic_man",91.7410714285714
211.714921226493,0,"AU06EL20","2022_Mar_01_1114","MainTask",21,"Response","positive_man_woman","positive_2","yellow",1,0.669387547928636,"post_correct","post_erotic_man",91.7410714285714
211.746135710735,1.17532576039058,"AU06EL20","2022_Mar_01_1114","MainTask",22,"Fixation","erotic_woman","woman_3","yellow",1,0.387085275153368,"post_correct","post_positive_man_woman",91.7410714285714
212.997212414266,1.13720927306715,"AU06EL20","2022_Mar_01_1114","MainTask",22,"Picture","erotic_woman","woman_3","yellow",1,0.387085275153368,"post_correct","post_positive_man_woman",91.7410714285714
214.11481667744,0.387085275153368,"AU06EL20","2022_Mar_01_1114","MainTask",22,"Target","erotic_woman","woman_3","yellow",1,0.387085275153368,"post_correct","post_positive_man_woman",91.7410714285714
214.501901952593,0,"AU06EL20","2022_Mar_01_1114","MainTask",22,"Response","erotic_woman","woman_3","yellow",1,0.387085275153368,"post_correct","post_positive_man_woman",91.7410714285714
214.531861206468,1.19896757419443,"AU06EL20","2022_Mar_01_1114","MainTask",23,"Fixation","neutral_couple","neutral_couple_2","green",1,0.471338274521258,"post_correct","post_erotic_woman",91.7410714285714
215.799617042429,1.0586426793792,"AU06EL20","2022_Mar_01_1114","MainTask",23,"Picture","neutral_couple","neutral_couple_2","green",1,0.471338274521258,"post_correct","post_erotic_woman",91.7410714285714
216.8505190697,0.471338274521258,"AU06EL20","2022_Mar_01_1114","MainTask",23,"Target","neutral_couple","neutral_couple_2","green",1,0.471338274521258,"post_correct","post_erotic_woman",91.7410714285714
217.321857344221,0,"AU06EL20","2022_Mar_01_1114","MainTask",23,"Response","neutral_couple","neutral_couple_2","green",1,0.471338274521258,"post_correct","post_erotic_woman",91.7410714285714
217.350944383639,1.24605764180152,"AU06EL20","2022_Mar_01_1114","MainTask",24,"Fixation","neutral_couple","neutral_couple_1","green",1,0.656863831862211,"post_correct","post_neutral_couple",91.7410714285714
218.652078320774,1.37417289667365,"AU06EL20","2022_Mar_01_1114","MainTask",24,"Picture","neutral_couple","neutral_couple_1","green",1,0.656863831862211,"post_correct","post_neutral_couple",91.7410714285714
220.019906617628,0.656863831862211,"AU06EL20","2022_Mar_01_1114","MainTask",24,"Target","neutral_couple","neutral_couple_1","green",1,0.656863831862211,"post_correct","post_neutral_couple",91.7410714285714
220.67677044949,0,"AU06EL20","2022_Mar_01_1114","MainTask",24,"Response","neutral_couple","neutral_couple_1","green",1,0.656863831862211,"post_correct","post_neutral_couple",91.7410714285714
220.70382835053,1.47188316952657,"AU06EL20","2022_Mar_01_1114","MainTask",25,"Fixation","neutral_man_woman","neutral_8","yellow",1,0.43076425822801,"post_correct","post_neutral_couple",91.7410714285714
222.271841825221,1.00635291233503,"AU06EL20","2022_Mar_01_1114","MainTask",25,"Picture","neutral_man_woman","neutral_8","yellow",1,0.43076425822801,"post_correct","post_neutral_couple",91.7410714285714
223.256021196854,0.43076425822801,"AU06EL20","2022_Mar_01_1114","MainTask",25,"Target","neutral_man_woman","neutral_8","yellow",1,0.43076425822801,"post_correct","post_neutral_couple",91.7410714285714
223.686785455082,0,"AU06EL20","2022_Mar_01_1114","MainTask",25,"Response","neutral_man_woman","neutral_8","yellow",1,0.43076425822801,"post_correct","post_neutral_couple",91.7410714285714
223.706406488109,1.20820240692382,"AU06EL20","2022_Mar_01_1114","MainTask",26,"Fixation","tree","tree_1","red",1,0.451697405176674,"post_correct","post_neutral_man_woman",91.7410714285714
224.990844081894,1.41631510459854,"AU06EL20","2022_Mar_01_1114","MainTask",26,"Picture","tree","tree_1","red",1,0.451697405176674,"post_correct","post_neutral_man_woman",91.7410714285714
226.392046687686,0.451697405176674,"AU06EL20","2022_Mar_01_1114","MainTask",26,"Target","tree","tree_1","red",1,0.451697405176674,"post_correct","post_neutral_man_woman",91.7410714285714
226.843744092863,0,"AU06EL20","2022_Mar_01_1114","MainTask",26,"Response","tree","tree_1","red",1,0.451697405176674,"post_correct","post_neutral_man_woman",91.7410714285714
226.875794619458,1.4463526866177,"AU06EL20","2022_Mar_01_1114","MainTask",27,"Fixation","neutral_man_woman","neutral_5","blue",1,0.398864254259024,"post_correct","post_tree",91.7410714285714
228.377084563379,1.2933893762621,"AU06EL20","2022_Mar_01_1114","MainTask",27,"Picture","neutral_man_woman","neutral_5","blue",1,0.398864254259024,"post_correct","post_tree",91.7410714285714
229.64483952421,0.398864254259024,"AU06EL20","2022_Mar_01_1114","MainTask",27,"Target","neutral_man_woman","neutral_5","blue",1,0.398864254259024,"post_correct","post_tree",91.7410714285714
230.043703778469,0,"AU06EL20","2022_Mar_01_1114","MainTask",27,"Response","neutral_man_woman","neutral_5","blue",1,0.398864254259024,"post_correct","post_tree",91.7410714285714
230.061864508631,1.20289084852966,"AU06EL20","2022_Mar_01_1114","MainTask",28,"Fixation","erotic_man","man_8","yellow",1,0.538436069888121,"post_correct","post_neutral_man_woman",91.7410714285714
231.329629679329,1.49466393258534,"AU06EL20","2022_Mar_01_1114","MainTask",28,"Picture","erotic_man","man_8","yellow",1,0.538436069888121,"post_correct","post_neutral_man_woman",91.7410714285714
232.814228238978,0.538436069888121,"AU06EL20","2022_Mar_01_1114","MainTask",28,"Target","erotic_man","man_8","yellow",1,0.538436069888121,"post_correct","post_neutral_man_woman",91.7410714285714
233.352664308866,0,"AU06EL20","2022_Mar_01_1114","MainTask",28,"Response","erotic_man","man_8","yellow",1,0.538436069888121,"post_correct","post_neutral_man_woman",91.7410714285714
233.381382042768,1.13823246917801,"AU06EL20","2022_Mar_01_1114","MainTask",29,"Fixation","erotic_man","man_2","green",0,0.428622227875167,"post_correct","post_erotic_man",91.7410714285714
234.582414347957,1.07959500325579,"AU06EL20","2022_Mar_01_1114","MainTask",29,"Picture","erotic_man","man_2","green",0,0.428622227875167,"post_correct","post_erotic_man",91.7410714285714
235.649995799369,0.428622227875167,"AU06EL20","2022_Mar_01_1114","MainTask",29,"Target","erotic_man","man_2","green",0,0.428622227875167,"post_correct","post_erotic_man",91.7410714285714
236.078618027244,0,"AU06EL20","2022_Mar_01_1114","MainTask",29,"Response","erotic_man","man_2","green",0,0.428622227875167,"post_correct","post_erotic_man",91.7410714285714
236.100383424309,1.19208648372236,"AU06EL20","2022_Mar_01_1114","MainTask",30,"Fixation","erotic_man","man_4","blue",1,0.606849187995977,"post_error","post_erotic_man",91.7410714285714
237.384819851251,1.0543960595937,"AU06EL20","2022_Mar_01_1114","MainTask",30,"Picture","erotic_man","man_4","blue",1,0.606849187995977,"post_error","post_erotic_man",91.7410714285714
238.435722461943,0.606849187995977,"AU06EL20","2022_Mar_01_1114","MainTask",30,"Target","erotic_man","man_4","blue",1,0.606849187995977,"post_error","post_erotic_man",91.7410714285714
239.042571649939,0,"AU06EL20","2022_Mar_01_1114","MainTask",30,"Response","erotic_man","man_4","blue",1,0.606849187995977,"post_error","post_erotic_man",91.7410714285714
239.069600671635,1.31851263115612,"AU06EL20","2022_Mar_01_1114","MainTask",31,"Fixation","positive_man_woman","positive_2","yellow",1,0.473940040652451,"post_correct","post_erotic_man",91.7410714285714
240.404090831655,1.37913528799077,"AU06EL20","2022_Mar_01_1114","MainTask",31,"Picture","positive_man_woman","positive_2","yellow",1,0.473940040652451,"post_correct","post_erotic_man",91.7410714285714
241.788603803439,0.473940040652451,"AU06EL20","2022_Mar_01_1114","MainTask",31,"Target","positive_man_woman","positive_2","yellow",1,0.473940040652451,"post_correct","post_erotic_man",91.7410714285714
242.262543844091,0,"AU06EL20","2022_Mar_01_1114","MainTask",31,"Response","positive_man_woman","positive_2","yellow",1,0.473940040652451,"post_correct","post_erotic_man",91.7410714285714
242.289032909614,1.09505987529276,"AU06EL20","2022_Mar_01_1114","MainTask",32,"Fixation","positive_man_woman","positive_3","red",1,0.655635730570793,"post_correct","post_positive_man_woman",91.7410714285714
243.456703157708,1.37785676666784,"AU06EL20","2022_Mar_01_1114","MainTask",32,"Picture","positive_man_woman","positive_3","red",1,0.655635730570793,"post_correct","post_positive_man_woman",91.7410714285714
244.807861073448,0.655635730570793,"AU06EL20","2022_Mar_01_1114","MainTask",32,"Target","positive_man_woman","positive_3","red",1,0.655635730570793,"post_correct","post_positive_man_woman",91.7410714285714
245.463496804019,0,"AU06EL20","2022_Mar_01_1114","MainTask",32,"Response","positive_man_woman","positive_3","red",1,0.655635730570793,"post_correct","post_positive_man_woman",91.7410714285714
245.491782514639,1.43045281236636,"AU06EL20","2022_Mar_01_1114","MainTask",33,"Fixation","erotic_woman","woman_1","blue",0,0.520889973793601,"post_correct","post_positive_man_woman",91.7410714285714
246.976391867578,1.40307251115918,"AU06EL20","2022_Mar_01_1114","MainTask",33,"Picture","erotic_woman","woman_1","blue",0,0.520889973793601,"post_correct","post_positive_man_woman",91.7410714285714
248.377592723107,0.520889973793601,"AU06EL20","2022_Mar_01_1114","MainTask",33,"Target","erotic_woman","woman_1","blue",0,0.520889973793601,"post_correct","post_positive_man_woman",91.7410714285714
248.898482696901,0,"AU06EL20","2022_Mar_01_1114","MainTask",33,"Response","erotic_woman","woman_1","blue",0,0.520889973793601,"post_correct","post_positive_man_woman",91.7410714285714
248.928066811044,1.10064709368411,"AU06EL20","2022_Mar_01_1114","MainTask",34,"Fixation","positive_man_woman","positive_7","green",0,0.491366243726588,"post_error","post_erotic_woman",91.7410714285714
250.079054134472,1.16129568911059,"AU06EL20","2022_Mar_01_1114","MainTask",34,"Picture","positive_man_woman","positive_7","green",0,0.491366243726588,"post_error","post_erotic_woman",91.7410714285714
251.230042916452,0.491366243726588,"AU06EL20","2022_Mar_01_1114","MainTask",34,"Target","positive_man_woman","positive_7","green",0,0.491366243726588,"post_error","post_erotic_woman",91.7410714285714
251.721409160179,0,"AU06EL20","2022_Mar_01_1114","MainTask",34,"Response","positive_man_woman","positive_7","green",0,0.491366243726588,"post_error","post_erotic_woman",91.7410714285714
251.74715290532,1.39740302772331,"AU06EL20","2022_Mar_01_1114","MainTask",35,"Fixation","erotic_couple","couple_5","blue",0,0.689115347006009,"post_error","post_positive_man_woman",91.7410714285714
253.215084584383,1.35330506536426,"AU06EL20","2022_Mar_01_1114","MainTask",35,"Picture","erotic_couple","couple_5","blue",0,0.689115347006009,"post_error","post_positive_man_woman",91.7410714285714
254.56624074986,0.689115347006009,"AU06EL20","2022_Mar_01_1114","MainTask",35,"Target","erotic_couple","couple_5","blue",0,0.689115347006009,"post_error","post_positive_man_woman",91.7410714285714
255.255356096866,0,"AU06EL20","2022_Mar_01_1114","MainTask",35,"Response","erotic_couple","couple_5","blue",0,0.689115347006009,"post_error","post_positive_man_woman",91.7410714285714
255.283524248145,1.4237523931727,"AU06EL20","2022_Mar_01_1114","MainTask",36,"Fixation","erotic_couple","couple_4","blue",1,0.709965064746939,"post_error","post_erotic_couple",91.7410714285714
256.784813608647,1.0286774094784,"AU06EL20","2022_Mar_01_1114","MainTask",36,"Picture","erotic_couple","couple_4","blue",1,0.709965064746939,"post_error","post_erotic_couple",91.7410714285714
257.802352703689,0.709965064746939,"AU06EL20","2022_Mar_01_1114","MainTask",36,"Target","erotic_couple","couple_4","blue",1,0.709965064746939,"post_error","post_erotic_couple",91.7410714285714
258.512317768436,0,"AU06EL20","2022_Mar_01_1114","MainTask",36,"Response","erotic_couple","couple_4","blue",1,0.709965064746939,"post_error","post_erotic_couple",91.7410714285714
258.536316209536,1.42987448476922,"AU06EL20","2022_Mar_01_1114","MainTask",37,"Fixation","erotic_man","man_8","red",1,0.581726202839491,"post_correct","post_erotic_couple",91.7410714285714
260.004244679783,1.13880544921638,"AU06EL20","2022_Mar_01_1114","MainTask",37,"Picture","erotic_man","man_8","red",1,0.581726202839491,"post_correct","post_erotic_couple",91.7410714285714
261.13855170394,0.581726202839491,"AU06EL20","2022_Mar_01_1114","MainTask",37,"Target","erotic_man","man_8","red",1,0.581726202839491,"post_correct","post_erotic_couple",91.7410714285714
261.720277906779,0,"AU06EL20","2022_Mar_01_1114","MainTask",37,"Response","erotic_man","man_8","red",1,0.581726202839491,"post_correct","post_erotic_couple",91.7410714285714
261.739068731666,1.12578897723245,"AU06EL20","2022_Mar_01_1114","MainTask",38,"Fixation","erotic_man","man_1","yellow",1,0.640166321671131,"post_correct","post_erotic_man",91.7410714285714
262.923417528769,1.17693891671078,"AU06EL20","2022_Mar_01_1114","MainTask",38,"Picture","erotic_man","man_1","yellow",1,0.640166321671131,"post_correct","post_erotic_man",91.7410714285714
264.091087776862,0.640166321671131,"AU06EL20","2022_Mar_01_1114","MainTask",38,"Target","erotic_man","man_1","yellow",1,0.640166321671131,"post_correct","post_erotic_man",91.7410714285714
264.731254098533,0,"AU06EL20","2022_Mar_01_1114","MainTask",38,"Response","erotic_man","man_1","yellow",1,0.640166321671131,"post_correct","post_erotic_man",91.7410714285714
264.758336794965,1.36281551666272,"AU06EL20","2022_Mar_01_1114","MainTask",39,"Fixation","erotic_couple","couple_4","red",1,0.535213543769714,"post_correct","post_erotic_man",91.7410714285714
266.176215616082,1.315984906543,"AU06EL20","2022_Mar_01_1114","MainTask",39,"Picture","erotic_couple","couple_4","red",1,0.535213543769714,"post_correct","post_erotic_man",91.7410714285714
267.494009724462,0.535213543769714,"AU06EL20","2022_Mar_01_1114","MainTask",39,"Target","erotic_couple","couple_4","red",1,0.535213543769714,"post_correct","post_erotic_man",91.7410714285714
268.029223268232,0,"AU06EL20","2022_Mar_01_1114","MainTask",39,"Response","erotic_couple","couple_4","red",1,0.535213543769714,"post_correct","post_erotic_man",91.7410714285714
268.061163528251,1.44331336454141,"AU06EL20","2022_Mar_01_1114","MainTask",40,"Fixation","erotic_woman","woman_8","red",1,0.570439047671243,"post_correct","post_erotic_couple",91.7410714285714
269.562452888751,1.09141423502477,"AU06EL20","2022_Mar_01_1114","MainTask",40,"Picture","erotic_woman","woman_8","red",1,0.570439047671243,"post_correct","post_erotic_couple",91.7410714285714
270.64671813996,0.570439047671243,"AU06EL20","2022_Mar_01_1114","MainTask",40,"Target","erotic_woman","woman_8","red",1,0.570439047671243,"post_correct","post_erotic_couple",91.7410714285714
271.217157187631,0,"AU06EL20","2022_Mar_01_1114","MainTask",40,"Response","erotic_woman","woman_8","red",1,0.570439047671243,"post_correct","post_erotic_couple",91.7410714285714
271.247233125714,1.12215064241681,"AU06EL20","2022_Mar_01_1114","MainTask",41,"Fixation","erotic_woman","woman_7","green",1,0.786263409932872,"post_correct","post_erotic_woman",91.7410714285714
272.448265430903,1.08614652808393,"AU06EL20","2022_Mar_01_1114","MainTask",41,"Picture","erotic_woman","woman_7","green",1,0.786263409932872,"post_correct","post_erotic_woman",91.7410714285714
273.51586642692,0.786263409932872,"AU06EL20","2022_Mar_01_1114","MainTask",41,"Target","erotic_woman","woman_7","green",1,0.786263409932872,"post_correct","post_erotic_woman",91.7410714285714
274.302129836853,0,"AU06EL20","2022_Mar_01_1114","MainTask",41,"Response","erotic_woman","woman_7","green",1,0.786263409932872,"post_correct","post_erotic_woman",91.7410714285714
274.333216260178,1.34496691989699,"AU06EL20","2022_Mar_01_1114","MainTask",42,"Fixation","positive_man_woman","positive_8","green",1,0.433417073700184,"post_correct","post_erotic_woman",91.7410714285714
275.751102374057,1.43272990161797,"AU06EL20","2022_Mar_01_1114","MainTask",42,"Picture","positive_man_woman","positive_8","green",1,0.433417073700184,"post_correct","post_erotic_woman",91.7410714285714
277.185666453524,0.433417073700184,"AU06EL20","2022_Mar_01_1114","MainTask",42,"Target","positive_man_woman","positive_8","green",1,0.433417073700184,"post_correct","post_erotic_woman",91.7410714285714
277.619083527224,0,"AU06EL20","2022_Mar_01_1114","MainTask",42,"Response","positive_man_woman","positive_8","green",1,0.433417073700184,"post_correct","post_erotic_woman",91.7410714285714
277.636093751094,1.2745958494475,"AU06EL20","2022_Mar_01_1114","MainTask",43,"Fixation","erotic_woman","woman_7","blue",0,0.602029546775157,"post_correct","post_positive_man_woman",91.7410714285714
278.970532570063,1.03835554252022,"AU06EL20","2022_Mar_01_1114","MainTask",43,"Picture","erotic_woman","woman_7","blue",0,0.602029546775157,"post_correct","post_positive_man_woman",91.7410714285714
279.988080708134,0.602029546775157,"AU06EL20","2022_Mar_01_1114","MainTask",43,"Target","erotic_woman","woman_7","blue",0,0.602029546775157,"post_correct","post_positive_man_woman",91.7410714285714
280.590110254909,0,"AU06EL20","2022_Mar_01_1114","MainTask",43,"Response","erotic_woman","woman_7","blue",0,0.602029546775157,"post_correct","post_positive_man_woman",91.7410714285714
280.621952208483,1.19763258038128,"AU06EL20","2022_Mar_01_1114","MainTask",44,"Fixation","positive_man_woman","positive_2","red",1,0.690633700265607,"post_error","post_erotic_woman",91.7410714285714
281.873026578329,1.16196593572982,"AU06EL20","2022_Mar_01_1114","MainTask",44,"Picture","positive_man_woman","positive_2","red",1,0.690633700265607,"post_error","post_erotic_woman",91.7410714285714
283.007356647617,0.690633700265607,"AU06EL20","2022_Mar_01_1114","MainTask",44,"Target","positive_man_woman","positive_2","red",1,0.690633700265607,"post_error","post_erotic_woman",91.7410714285714
283.697990347883,0,"AU06EL20","2022_Mar_01_1114","MainTask",44,"Response","positive_man_woman","positive_2","red",1,0.690633700265607,"post_error","post_erotic_woman",91.7410714285714
283.724616517349,1.18068846284176,"AU06EL20","2022_Mar_01_1114","MainTask",45,"Fixation","neutral_couple","neutral_couple_3","red",1,0.452325457927145,"post_correct","post_positive_man_woman",91.7410714285714
285.075781725853,1.01828073343108,"AU06EL20","2022_Mar_01_1114","MainTask",45,"Picture","neutral_couple","neutral_couple_3","red",1,0.452325457927145,"post_correct","post_positive_man_woman",91.7410714285714
286.076635854257,0.452325457927145,"AU06EL20","2022_Mar_01_1114","MainTask",45,"Target","neutral_couple","neutral_couple_3","red",1,0.452325457927145,"post_correct","post_positive_man_woman",91.7410714285714
286.528961312184,0,"AU06EL20","2022_Mar_01_1114","MainTask",45,"Response","neutral_couple","neutral_couple_3","red",1,0.452325457927145,"post_correct","post_positive_man_woman",91.7410714285714
286.560391370504,1.0377494293718,"AU06EL20","2022_Mar_01_1114","MainTask",46,"Fixation","neutral_man_woman","neutral_8","yellow",1,0.541876795477947,"post_correct","post_neutral_couple",91.7410714285714
287.644646411843,1.25162099770789,"AU06EL20","2022_Mar_01_1114","MainTask",46,"Picture","neutral_man_woman","neutral_8","yellow",1,0.541876795477947,"post_correct","post_neutral_couple",91.7410714285714
288.879042524393,0.541876795477947,"AU06EL20","2022_Mar_01_1114","MainTask",46,"Target","neutral_man_woman","neutral_8","yellow",1,0.541876795477947,"post_correct","post_neutral_couple",91.7410714285714
289.420919319871,0,"AU06EL20","2022_Mar_01_1114","MainTask",46,"Response","neutral_man_woman","neutral_8","yellow",1,0.541876795477947,"post_correct","post_neutral_couple",91.7410714285714
289.44619574476,1.47602763285734,"AU06EL20","2022_Mar_01_1114","MainTask",47,"Fixation","neutral_man_woman","neutral_8","blue",1,0.660998828489028,"post_correct","post_neutral_man_woman",91.7410714285714
290.980847162356,1.21614354064516,"AU06EL20","2022_Mar_01_1114","MainTask",47,"Picture","neutral_man_woman","neutral_8","blue",1,0.660998828489028,"post_correct","post_neutral_man_woman",91.7410714285714
292.181878884126,0.660998828489028,"AU06EL20","2022_Mar_01_1114","MainTask",47,"Target","neutral_man_woman","neutral_8","blue",1,0.660998828489028,"post_correct","post_neutral_man_woman",91.7410714285714
292.842877712615,0,"AU06EL20","2022_Mar_01_1114","MainTask",47,"Response","neutral_man_woman","neutral_8","blue",1,0.660998828489028,"post_correct","post_neutral_man_woman",91.7410714285714
292.865812868868,1.34031544967672,"AU06EL20","2022_Mar_01_1114","MainTask",48,"Fixation","tree","tree_3","yellow",1,0.753687220980282,"post_correct","post_neutral_man_woman",91.7410714285714
294.26700409795,1.36666752545863,"AU06EL20","2022_Mar_01_1114","MainTask",48,"Picture","tree","tree_3","yellow",1,0.753687220980282,"post_correct","post_neutral_man_woman",91.7410714285714
295.618164055662,0.753687220980282,"AU06EL20","2022_Mar_01_1114","MainTask",48,"Target","tree","tree_3","yellow",1,0.753687220980282,"post_correct","post_neutral_man_woman",91.7410714285714
296.371851276642,0,"AU06EL20","2022_Mar_01_1114","MainTask",48,"Response","tree","tree_3","yellow",1,0.753687220980282,"post_correct","post_neutral_man_woman",91.7410714285714
296.40217079301,1.13554269711271,"AU06EL20","2022_Mar_01_1114","MainTask",49,"Fixation","erotic_couple","couple_5","red",1,0.790334230245207,"post_correct","post_tree",91.7410714285714
297.603201639648,1.10425986553275,"AU06EL20","2022_Mar_01_1114","MainTask",49,"Picture","erotic_couple","couple_5","red",1,0.790334230245207,"post_correct","post_tree",91.7410714285714
298.704151857497,0.790334230245207,"AU06EL20","2022_Mar_01_1114","MainTask",49,"Target","erotic_couple","couple_5","red",1,0.790334230245207,"post_correct","post_tree",91.7410714285714
299.494486087742,0,"AU06EL20","2022_Mar_01_1114","MainTask",49,"Response","erotic_couple","couple_5","red",1,0.790334230245207,"post_correct","post_tree",91.7410714285714
299.504834810166,1.14425479684326,"AU06EL20","2022_Mar_01_1114","MainTask",50,"Fixation","erotic_man","man_7","yellow",0,0.521220773522145,"post_correct","post_erotic_couple",91.7410714285714
300.722549164891,1.16284098754262,"AU06EL20","2022_Mar_01_1114","MainTask",50,"Picture","erotic_man","man_7","yellow",0,0.521220773522145,"post_correct","post_erotic_couple",91.7410714285714
301.873535029767,0.521220773522145,"AU06EL20","2022_Mar_01_1114","MainTask",50,"Target","erotic_man","man_7","yellow",0,0.521220773522145,"post_correct","post_erotic_couple",91.7410714285714
302.394755803289,0,"AU06EL20","2022_Mar_01_1114","MainTask",50,"Response","erotic_man","man_7","yellow",0,0.521220773522145,"post_correct","post_erotic_couple",91.7410714285714
302.424008242573,1.07146711182641,"AU06EL20","2022_Mar_01_1114","MainTask",51,"Fixation","erotic_woman","woman_8","red",0,0.603335243064066,"post_error","post_erotic_man",91.7410714285714
303.541634675747,1.29700995544987,"AU06EL20","2022_Mar_01_1114","MainTask",51,"Picture","erotic_woman","woman_8","red",0,0.603335243064066,"post_error","post_erotic_man",91.7410714285714
304.809400721575,0.603335243064066,"AU06EL20","2022_Mar_01_1114","MainTask",51,"Target","erotic_woman","woman_8","red",0,0.603335243064066,"post_error","post_erotic_man",91.7410714285714
305.412735964639,0,"AU06EL20","2022_Mar_01_1114","MainTask",51,"Response","erotic_woman","woman_8","red",0,0.603335243064066,"post_error","post_erotic_man",91.7410714285714
305.443267262846,1.10778730284618,"AU06EL20","2022_Mar_01_1114","MainTask",52,"Fixation","neutral_man_woman","neutral_6","yellow",1,0.645587761693605,"post_error","post_erotic_woman",91.7410714285714
306.627619268764,1.35974539270972,"AU06EL20","2022_Mar_01_1114","MainTask",52,"Picture","neutral_man_woman","neutral_6","yellow",1,0.645587761693605,"post_error","post_erotic_woman",91.7410714285714
307.962098635495,0.645587761693605,"AU06EL20","2022_Mar_01_1114","MainTask",52,"Target","neutral_man_woman","neutral_6","yellow",1,0.645587761693605,"post_error","post_erotic_woman",91.7410714285714
308.607686397189,0,"AU06EL20","2022_Mar_01_1114","MainTask",52,"Response","neutral_man_woman","neutral_6","yellow",1,0.645587761693605,"post_error","post_erotic_woman",91.7410714285714
308.629339485702,1.26985320931345,"AU06EL20","2022_Mar_01_1114","MainTask",53,"Fixation","erotic_man","man_2","green",1,0.561250749695319,"post_correct","post_neutral_man_woman",91.7410714285714
309.947134760925,1.46866393913047,"AU06EL20","2022_Mar_01_1114","MainTask",53,"Picture","erotic_man","man_2","green",1,0.561250749695319,"post_correct","post_neutral_man_woman",91.7410714285714
311.3983829319,0.561250749695319,"AU06EL20","2022_Mar_01_1114","MainTask",53,"Target","erotic_man","man_2","green",1,0.561250749695319,"post_correct","post_neutral_man_woman",91.7410714285714
311.959633681595,0,"AU06EL20","2022_Mar_01_1114","MainTask",53,"Response","erotic_man","man_2","green",1,0.561250749695319,"post_correct","post_neutral_man_woman",91.7410714285714
311.982216451541,1.48851601597326,"AU06EL20","2022_Mar_01_1114","MainTask",54,"Fixation","neutral_man_woman","neutral_4","blue",0,0.834826502250507,"post_correct","post_erotic_man",91.7410714285714
313.533550793803,1.05582351844595,"AU06EL20","2022_Mar_01_1114","MainTask",54,"Picture","neutral_man_woman","neutral_4","blue",0,0.834826502250507,"post_correct","post_erotic_man",91.7410714285714
314.567771938382,0.834826502250507,"AU06EL20","2022_Mar_01_1114","MainTask",54,"Target","neutral_man_woman","neutral_4","blue",0,0.834826502250507,"post_correct","post_erotic_man",91.7410714285714
315.402598440633,0,"AU06EL20","2022_Mar_01_1114","MainTask",54,"Response","neutral_man_woman","neutral_4","blue",0,0.834826502250507,"post_correct","post_erotic_man",91.7410714285714
315.418501914788,1.09844540760991,"AU06EL20","2022_Mar_01_1114","MainTask",55,"Fixation","tree","tree_2","yellow",1,0.680716709412081,"post_error","post_neutral_man_woman",91.7410714285714
316.56949215532,1.18441489298483,"AU06EL20","2022_Mar_01_1114","MainTask",55,"Picture","tree","tree_2","yellow",1,0.680716709412081,"post_error","post_neutral_man_woman",91.7410714285714
317.753842410975,0.680716709412081,"AU06EL20","2022_Mar_01_1114","MainTask",55,"Target","tree","tree_2","yellow",1,0.680716709412081,"post_error","post_neutral_man_woman",91.7410714285714
318.434559120387,0,"AU06EL20","2022_Mar_01_1114","MainTask",55,"Response","tree","tree_2","yellow",1,0.680716709412081,"post_error","post_neutral_man_woman",91.7410714285714
318.454442109463,1.0839814403518,"AU06EL20","2022_Mar_01_1114","MainTask",56,"Fixation","neutral_couple","neutral_couple_1","blue",1,0.283159609993163,"post_correct","post_tree",91.7410714285714
319.588751759014,1.49564192554773,"AU06EL20","2022_Mar_01_1114","MainTask",56,"Picture","neutral_couple","neutral_couple_1","blue",1,0.283159609993163,"post_correct","post_tree",91.7410714285714
321.073357903138,0.283159609993163,"AU06EL20","2022_Mar_01_1114","MainTask",56,"Target","neutral_couple","neutral_couple_1","blue",1,0.283159609993163,"post_correct","post_tree",91.7410714285714
321.356517513131,0,"AU06EL20","2022_Mar_01_1114","MainTask",56,"Response","neutral_couple","neutral_couple_1","blue",1,0.283159609993163,"post_correct","post_tree",91.7410714285714
321.373619334106,1.2882250093643,"AU06EL20","2022_Mar_01_1114","MainTask",57,"Fixation","tree","tree_8","green",1,0.407166043962206,"post_correct","post_neutral_couple",91.7410714285714
322.691418693277,1.04118104392177,"AU06EL20","2022_Mar_01_1114","MainTask",57,"Picture","tree","tree_8","green",1,0.407166043962206,"post_correct","post_neutral_couple",91.7410714285714
323.742317220022,0.407166043962206,"AU06EL20","2022_Mar_01_1114","MainTask",57,"Target","tree","tree_8","green",1,0.407166043962206,"post_correct","post_neutral_couple",91.7410714285714
324.149483263984,0,"AU06EL20","2022_Mar_01_1114","MainTask",57,"Response","tree","tree_8","green",1,0.407166043962206,"post_correct","post_neutral_couple",91.7410714285714
324.176023087137,1.36868839177361,"AU06EL20","2022_Mar_01_1114","MainTask",58,"Fixation","erotic_couple","couple_3","blue",1,0.812116838231304,"post_correct","post_tree",91.7410714285714
325.610591250552,1.22035402243219,"AU06EL20","2022_Mar_01_1114","MainTask",58,"Picture","erotic_couple","couple_3","blue",1,0.812116838231304,"post_correct","post_tree",91.7410714285714
326.828301813039,0.812116838231304,"AU06EL20","2022_Mar_01_1114","MainTask",58,"Target","erotic_couple","couple_3","blue",1,0.812116838231304,"post_correct","post_tree",91.7410714285714
327.64041865127,0,"AU06EL20","2022_Mar_01_1114","MainTask",58,"Response","erotic_couple","couple_3","blue",1,0.812116838231304,"post_correct","post_tree",91.7410714285714
327.662350323331,1.34617545967571,"AU06EL20","2022_Mar_01_1114","MainTask",59,"Fixation","tree","tree_2","blue",1,0.665998455100635,"post_correct","post_erotic_couple",91.7410714285714
329.046874088404,1.04092904966131,"AU06EL20","2022_Mar_01_1114","MainTask",59,"Picture","tree","tree_2","blue",1,0.665998455100635,"post_correct","post_erotic_couple",91.7410714285714
330.06441347516,0.665998455100635,"AU06EL20","2022_Mar_01_1114","MainTask",59,"Target","tree","tree_2","blue",1,0.665998455100635,"post_correct","post_erotic_couple",91.7410714285714
330.730411930261,0,"AU06EL20","2022_Mar_01_1114","MainTask",59,"Response","tree","tree_2","blue",1,0.665998455100635,"post_correct","post_erotic_couple",91.7410714285714
330.748336083192,1.42326483252728,"AU06EL20","2022_Mar_01_1114","MainTask",60,"Fixation","erotic_couple","couple_2","yellow",1,0.606317108004077,"post_correct","post_tree",91.7410714285714
332.266306618096,1.22579538063695,"AU06EL20","2022_Mar_01_1114","MainTask",60,"Picture","erotic_couple","couple_2","yellow",1,0.606317108004077,"post_correct","post_tree",91.7410714285714
333.484018055715,0.606317108004077,"AU06EL20","2022_Mar_01_1114","MainTask",60,"Target","erotic_couple","couple_2","yellow",1,0.606317108004077,"post_correct","post_tree",91.7410714285714
334.090335163719,0,"AU06EL20","2022_Mar_01_1114","MainTask",60,"Response","erotic_couple","couple_2","yellow",1,0.606317108004077,"post_correct","post_tree",91.7410714285714
334.117907642116,1.18403786225667,"AU06EL20","2022_Mar_01_1114","MainTask",61,"Fixation","erotic_woman","woman_5","blue",1,0.626671209571214,"post_correct","post_erotic_couple",91.7410714285714
335.368990471568,1.17455087164018,"AU06EL20","2022_Mar_01_1114","MainTask",61,"Picture","erotic_woman","woman_5","blue",1,0.626671209571214,"post_correct","post_erotic_couple",91.7410714285714
336.536638841373,0.626671209571214,"AU06EL20","2022_Mar_01_1114","MainTask",61,"Target","erotic_woman","woman_5","blue",1,0.626671209571214,"post_correct","post_erotic_couple",91.7410714285714
337.163310050944,0,"AU06EL20","2022_Mar_01_1114","MainTask",61,"Response","erotic_woman","woman_5","blue",1,0.626671209571214,"post_correct","post_erotic_couple",91.7410714285714
337.187200267441,1.47684248903736,"AU06EL20","2022_Mar_01_1114","MainTask",62,"Fixation","erotic_man","man_4","red",1,0.539902498676383,"post_correct","post_erotic_woman",91.7410714285714
338.721851976747,1.40723396030729,"AU06EL20","2022_Mar_01_1114","MainTask",62,"Picture","erotic_man","man_4","red",1,0.539902498676383,"post_correct","post_erotic_woman",91.7410714285714
340.106370199321,0.539902498676383,"AU06EL20","2022_Mar_01_1114","MainTask",62,"Target","erotic_man","man_4","red",1,0.539902498676383,"post_correct","post_erotic_woman",91.7410714285714
340.646272697997,0,"AU06EL20","2022_Mar_01_1114","MainTask",62,"Response","erotic_man","man_4","red",1,0.539902498676383,"post_correct","post_erotic_woman",91.7410714285714
340.673527211924,1.05202158824791,"AU06EL20","2022_Mar_01_1114","MainTask",63,"Fixation","erotic_couple","couple_1","red",1,0.576950901619057,"post_correct","post_erotic_man",91.7410714285714
341.807835694633,1.29798827262381,"AU06EL20","2022_Mar_01_1114","MainTask",63,"Picture","erotic_couple","couple_1","red",1,0.576950901619057,"post_correct","post_erotic_man",91.7410714285714
343.092268621049,0.576950901619057,"AU06EL20","2022_Mar_01_1114","MainTask",63,"Target","erotic_couple","couple_1","red",1,0.576950901619057,"post_correct","post_erotic_man",91.7410714285714
343.669219522668,0,"AU06EL20","2022_Mar_01_1114","MainTask",63,"Response","erotic_couple","couple_1","red",1,0.576950901619057,"post_correct","post_erotic_man",91.7410714285714
343.692785940486,1.30492691384453,"AU06EL20","2022_Mar_01_1114","MainTask",64,"Fixation","erotic_couple","couple_8","red",1,0.484308015971692,"post_correct","post_erotic_couple",91.7410714285714
345.144032361199,1.01539729311817,"AU06EL20","2022_Mar_01_1114","MainTask",64,"Picture","erotic_couple","couple_8","red",1,0.484308015971692,"post_correct","post_erotic_couple",91.7410714285714
346.144892907234,0.484308015971692,"AU06EL20","2022_Mar_01_1114","MainTask",64,"Target","erotic_couple","couple_8","red",1,0.484308015971692,"post_correct","post_erotic_couple",91.7410714285714
346.629200923206,0,"AU06EL20","2022_Mar_01_1114","MainTask",64,"Response","erotic_couple","couple_8","red",1,0.484308015971692,"post_correct","post_erotic_couple",91.7410714285714
346.645322596831,1.30189576397459,"AU06EL20","2022_Mar_01_1114","MainTask",65,"Fixation","positive_man_woman","positive_4","green",1,0.671522285518222,"post_correct","post_erotic_couple",91.7410714285714
348.013161103552,1.29885233598199,"AU06EL20","2022_Mar_01_1114","MainTask",65,"Picture","positive_man_woman","positive_4","green",1,0.671522285518222,"post_correct","post_erotic_couple",91.7410714285714
349.297618241942,0.671522285518222,"AU06EL20","2022_Mar_01_1114","MainTask",65,"Target","positive_man_woman","positive_4","green",1,0.671522285518222,"post_correct","post_erotic_couple",91.7410714285714
349.96914052746,0,"AU06EL20","2022_Mar_01_1114","MainTask",65,"Response","positive_man_woman","positive_4","green",1,0.671522285518222,"post_correct","post_erotic_couple",91.7410714285714
349.998203063195,1.46200241583748,"AU06EL20","2022_Mar_01_1114","MainTask",66,"Fixation","erotic_man","man_1","red",1,0.541244950491091,"post_correct","post_positive_man_woman",91.7410714285714
351.499490965141,1.25315803062939,"AU06EL20","2022_Mar_01_1114","MainTask",66,"Picture","erotic_man","man_1","red",1,0.541244950491091,"post_correct","post_positive_man_woman",91.7410714285714
352.733874242427,0.541244950491091,"AU06EL20","2022_Mar_01_1114","MainTask",66,"Target","erotic_man","man_1","red",1,0.541244950491091,"post_correct","post_positive_man_woman",91.7410714285714
353.275119192918,0,"AU06EL20","2022_Mar_01_1114","MainTask",66,"Response","erotic_man","man_1","red",1,0.541244950491091,"post_correct","post_positive_man_woman",91.7410714285714
353.301037672663,1.13287927244561,"AU06EL20","2022_Mar_01_1114","MainTask",67,"Fixation","positive_man_woman","positive_8","green",1,0.513657886567671,"post_correct","post_erotic_man",91.7410714285714
354.468709379311,1.23902181728356,"AU06EL20","2022_Mar_01_1114","MainTask",67,"Picture","positive_man_woman","positive_8","green",1,0.513657886567671,"post_correct","post_erotic_man",91.7410714285714
355.686419941798,0.513657886567671,"AU06EL20","2022_Mar_01_1114","MainTask",67,"Target","positive_man_woman","positive_8","green",1,0.513657886567671,"post_correct","post_erotic_man",91.7410714285714
356.200077828366,0,"AU06EL20","2022_Mar_01_1114","MainTask",67,"Response","positive_man_woman","positive_8","green",1,0.513657886567671,"post_correct","post_erotic_man",91.7410714285714
356.22021139678,1.1679111560202,"AU06EL20","2022_Mar_01_1114","MainTask",68,"Fixation","neutral_couple","neutral_couple_5","yellow",0,0.628532614402502,"post_correct","post_positive_man_woman",91.7410714285714
357.471290142284,1.40016516006203,"AU06EL20","2022_Mar_01_1114","MainTask",68,"Picture","neutral_couple","neutral_couple_5","yellow",0,0.628532614402502,"post_correct","post_positive_man_woman",91.7410714285714
358.872489539261,0.628532614402502,"AU06EL20","2022_Mar_01_1114","MainTask",68,"Target","neutral_couple","neutral_couple_5","yellow",0,0.628532614402502,"post_correct","post_positive_man_woman",91.7410714285714
359.501022153663,0,"AU06EL20","2022_Mar_01_1114","MainTask",68,"Response","neutral_couple","neutral_couple_5","yellow",0,0.628532614402502,"post_correct","post_positive_man_woman",91.7410714285714
359.523049215066,1.23786506439836,"AU06EL20","2022_Mar_01_1114","MainTask",69,"Fixation","erotic_man","man_2","yellow",1,0.439233781478833,"post_error","post_neutral_couple",91.7410714285714
360.82416564957,1.45094043539186,"AU06EL20","2022_Mar_01_1114","MainTask",69,"Picture","erotic_man","man_2","yellow",1,0.439233781478833,"post_error","post_neutral_couple",91.7410714285714
362.258731187589,0.439233781478833,"AU06EL20","2022_Mar_01_1114","MainTask",69,"Target","erotic_man","man_2","yellow",1,0.439233781478833,"post_error","post_neutral_couple",91.7410714285714
362.697964969068,0,"AU06EL20","2022_Mar_01_1114","MainTask",69,"Response","erotic_man","man_2","yellow",1,0.439233781478833,"post_error","post_neutral_couple",91.7410714285714
362.725800570353,1.26112719322464,"AU06EL20","2022_Mar_01_1114","MainTask",70,"Fixation","erotic_couple","couple_7","red",1,0.654421339673718,"post_correct","post_erotic_man",91.7410714285714
364.076963736881,1.02522631297609,"AU06EL20","2022_Mar_01_1114","MainTask",70,"Picture","erotic_couple","couple_7","red",1,0.654421339673718,"post_correct","post_erotic_man",91.7410714285714
365.094509832979,0.654421339673718,"AU06EL20","2022_Mar_01_1114","MainTask",70,"Target","erotic_couple","couple_7","red",1,0.654421339673718,"post_correct","post_erotic_man",91.7410714285714
365.748931172653,0,"AU06EL20","2022_Mar_01_1114","MainTask",70,"Response","erotic_couple","couple_7","red",1,0.654421339673718,"post_correct","post_erotic_man",91.7410714285714
365.778419897459,1.40624696851469,"AU06EL20","2022_Mar_01_1114","MainTask",71,"Fixation","positive_man_woman","positive_3","yellow",1,0.632657692873181,"post_correct","post_erotic_couple",91.7410714285714
367.2463509931,1.42562509767446,"AU06EL20","2022_Mar_01_1114","MainTask",71,"Picture","positive_man_woman","positive_3","yellow",1,0.632657692873181,"post_correct","post_erotic_couple",91.7410714285714
368.664234189873,0.632657692873181,"AU06EL20","2022_Mar_01_1114","MainTask",71,"Target","positive_man_woman","positive_3","yellow",1,0.632657692873181,"post_correct","post_erotic_couple",91.7410714285714
369.296891882746,0,"AU06EL20","2022_Mar_01_1114","MainTask",71,"Response","positive_man_woman","positive_3","yellow",1,0.632657692873181,"post_correct","post_erotic_couple",91.7410714285714
369.314798533047,1.1637317230493,"AU06EL20","2022_Mar_01_1114","MainTask",72,"Fixation","tree","tree_5","blue",1,0.657460379878103,"post_correct","post_positive_man_woman",91.7410714285714
370.549189978226,1.40614241875978,"AU06EL20","2022_Mar_01_1114","MainTask",72,"Picture","tree","tree_5","blue",1,0.657460379878103,"post_correct","post_positive_man_woman",91.7410714285714
371.950390250335,0.657460379878103,"AU06EL20","2022_Mar_01_1114","MainTask",72,"Target","tree","tree_5","blue",1,0.657460379878103,"post_correct","post_positive_man_woman",91.7410714285714
372.607850630213,0,"AU06EL20","2022_Mar_01_1114","MainTask",72,"Response","tree","tree_5","blue",1,0.657460379878103,"post_correct","post_positive_man_woman",91.7410714285714
372.63430906613,1.1872747440973,"AU06EL20","2022_Mar_01_1114","MainTask",73,"Fixation","neutral_couple","neutral_couple_3","yellow",1,0.549399134670239,"post_correct","post_tree",91.7410714285714
373.885384894529,1.21006569497361,"AU06EL20","2022_Mar_01_1114","MainTask",73,"Picture","neutral_couple","neutral_couple_3","yellow",1,0.549399134670239,"post_correct","post_tree",91.7410714285714
375.086416032877,0.549399134670239,"AU06EL20","2022_Mar_01_1114","MainTask",73,"Target","neutral_couple","neutral_couple_3","yellow",1,0.549399134670239,"post_correct","post_tree",91.7410714285714
375.635815167547,0,"AU06EL20","2022_Mar_01_1114","MainTask",73,"Response","neutral_couple","neutral_couple_3","yellow",1,0.549399134670239,"post_correct","post_tree",91.7410714285714
375.653569836666,1.27718928212957,"AU06EL20","2022_Mar_01_1114","MainTask",74,"Fixation","erotic_man","man_7","yellow",1,0.540158620513466,"post_correct","post_neutral_couple",91.7410714285714
376.971367153863,1.46462420118404,"AU06EL20","2022_Mar_01_1114","MainTask",74,"Picture","erotic_man","man_7","yellow",1,0.540158620513466,"post_correct","post_neutral_couple",91.7410714285714
378.422614449706,0.540158620513466,"AU06EL20","2022_Mar_01_1114","MainTask",74,"Target","erotic_man","man_7","yellow",1,0.540158620513466,"post_correct","post_neutral_couple",91.7410714285714
378.962773070219,0,"AU06EL20","2022_Mar_01_1114","MainTask",74,"Response","erotic_man","man_7","yellow",1,0.540158620513466,"post_correct","post_neutral_couple",91.7410714285714
378.989769712047,1.08075740279516,"AU06EL20","2022_Mar_01_1114","MainTask",75,"Fixation","tree","tree_1","red",1,0.68509440919297,"post_correct","post_erotic_man",91.7410714285714
380.107392352984,1.46218102998913,"AU06EL20","2022_Mar_01_1114","MainTask",75,"Picture","tree","tree_1","red",1,0.68509440919297,"post_correct","post_erotic_man",91.7410714285714
381.558641399091,0.68509440919297,"AU06EL20","2022_Mar_01_1114","MainTask",75,"Target","tree","tree_1","red",1,0.68509440919297,"post_correct","post_erotic_man",91.7410714285714
382.243735808284,0,"AU06EL20","2022_Mar_01_1114","MainTask",75,"Response","tree","tree_1","red",1,0.68509440919297,"post_correct","post_erotic_man",91.7410714285714
382.275924897376,1.19641333635547,"AU06EL20","2022_Mar_01_1114","MainTask",76,"Fixation","neutral_couple","neutral_couple_4","red",1,0.433241463966624,"post_correct","post_tree",91.7410714285714
383.543679858205,1.28540474822,"AU06EL20","2022_Mar_01_1114","MainTask",76,"Picture","neutral_couple","neutral_couple_4","red",1,0.433241463966624,"post_correct","post_tree",91.7410714285714
384.811436569298,0.433241463966624,"AU06EL20","2022_Mar_01_1114","MainTask",76,"Target","neutral_couple","neutral_couple_4","red",1,0.433241463966624,"post_correct","post_tree",91.7410714285714
385.244678033265,0,"AU06EL20","2022_Mar_01_1114","MainTask",76,"Response","neutral_couple","neutral_couple_4","red",1,0.433241463966624,"post_correct","post_tree",91.7410714285714
385.261821860553,1.33755386636057,"AU06EL20","2022_Mar_01_1114","MainTask",77,"Fixation","erotic_couple","couple_6","red",1,0.4281257365692,"post_correct","post_neutral_couple",91.7410714285714
386.663027091739,1.34389331336348,"AU06EL20","2022_Mar_01_1114","MainTask",77,"Picture","erotic_couple","couple_6","red",1,0.4281257365692,"post_correct","post_neutral_couple",91.7410714285714
387.997504416497,0.4281257365692,"AU06EL20","2022_Mar_01_1114","MainTask",77,"Target","erotic_couple","couple_6","red",1,0.4281257365692,"post_correct","post_neutral_couple",91.7410714285714
388.425630153066,0,"AU06EL20","2022_Mar_01_1114","MainTask",77,"Response","erotic_couple","couple_6","red",1,0.4281257365692,"post_correct","post_neutral_couple",91.7410714285714
388.447892916569,1.30378701423973,"AU06EL20","2022_Mar_01_1114","MainTask",78,"Fixation","erotic_woman","woman_5","green",1,0.641838698085849,"post_correct","post_erotic_couple",91.7410714285714
389.849096105781,1.18301033384594,"AU06EL20","2022_Mar_01_1114","MainTask",78,"Picture","erotic_woman","woman_5","green",1,0.641838698085849,"post_correct","post_erotic_couple",91.7410714285714
391.016765770455,0.641838698085849,"AU06EL20","2022_Mar_01_1114","MainTask",78,"Target","erotic_woman","woman_5","green",1,0.641838698085849,"post_correct","post_erotic_couple",91.7410714285714
391.658604468541,0,"AU06EL20","2022_Mar_01_1114","MainTask",78,"Response","erotic_woman","woman_5","green",1,0.641838698085849,"post_correct","post_erotic_couple",91.7410714285714
391.684004578688,1.04919523338376,"AU06EL20","2022_Mar_01_1114","MainTask",79,"Fixation","positive_man_woman","positive_1","blue",1,0.686410315351168,"post_correct","post_erotic_woman",91.7410714285714
392.801631595283,1.39633576441577,"AU06EL20","2022_Mar_01_1114","MainTask",79,"Picture","positive_man_woman","positive_1","blue",1,0.686410315351168,"post_correct","post_erotic_woman",91.7410714285714
394.186154485225,0.686410315351168,"AU06EL20","2022_Mar_01_1114","MainTask",79,"Target","positive_man_woman","positive_1","blue",1,0.686410315351168,"post_correct","post_erotic_woman",91.7410714285714
394.872564800576,0,"AU06EL20","2022_Mar_01_1114","MainTask",79,"Response","positive_man_woman","positive_1","blue",1,0.686410315351168,"post_correct","post_erotic_woman",91.7410714285714
394.903436233248,1.23054797934938,"AU06EL20","2022_Mar_01_1114","MainTask",80,"Fixation","erotic_man","man_2","red",1,0.574086887729209,"post_correct","post_positive_man_woman",91.7410714285714
396.187873827032,1.0881273747728,"AU06EL20","2022_Mar_01_1114","MainTask",80,"Picture","erotic_man","man_2","red",1,0.574086887729209,"post_correct","post_positive_man_woman",91.7410714285714
397.255457028707,0.574086887729209,"AU06EL20","2022_Mar_01_1114","MainTask",80,"Target","erotic_man","man_2","red",1,0.574086887729209,"post_correct","post_positive_man_woman",91.7410714285714
397.829543916436,0,"AU06EL20","2022_Mar_01_1114","MainTask",80,"Response","erotic_man","man_2","red",1,0.574086887729209,"post_correct","post_positive_man_woman",91.7410714285714
397.85597201446,1.46536088882309,"AU06EL20","2022_Mar_01_1114","MainTask",81,"Fixation","neutral_man_woman","neutral_3","yellow",1,0.570020151362769,"post_correct","post_erotic_man",91.7410714285714
399.390622848636,1.38986003409371,"AU06EL20","2022_Mar_01_1114","MainTask",81,"Picture","neutral_man_woman","neutral_3","yellow",1,0.570020151362769,"post_correct","post_erotic_man",91.7410714285714
400.758466897858,0.570020151362769,"AU06EL20","2022_Mar_01_1114","MainTask",81,"Target","neutral_man_woman","neutral_3","yellow",1,0.570020151362769,"post_correct","post_erotic_man",91.7410714285714
401.328487049221,0,"AU06EL20","2022_Mar_01_1114","MainTask",81,"Response","neutral_man_woman","neutral_3","yellow",1,0.570020151362769,"post_correct","post_erotic_man",91.7410714285714
401.358982758742,1.40783157417025,"AU06EL20","2022_Mar_01_1114","MainTask",82,"Fixation","erotic_woman","woman_4","red",0,0.557568196085413,"post_correct","post_neutral_man_woman",91.7410714285714
402.810226262349,1.18340428540996,"AU06EL20","2022_Mar_01_1114","MainTask",82,"Picture","erotic_woman","woman_4","red",0,0.557568196085413,"post_correct","post_neutral_man_woman",91.7410714285714
403.977895927021,0.557568196085413,"AU06EL20","2022_Mar_01_1114","MainTask",82,"Target","erotic_woman","woman_4","red",0,0.557568196085413,"post_correct","post_neutral_man_woman",91.7410714285714
404.535464123106,0,"AU06EL20","2022_Mar_01_1114","MainTask",82,"Response","erotic_woman","woman_4","red",0,0.557568196085413,"post_correct","post_neutral_man_woman",91.7410714285714
404.561732072056,1.37466409126553,"AU06EL20","2022_Mar_01_1114","MainTask",83,"Fixation","neutral_man_woman","neutral_8","green",1,0.671148312630976,"post_error","post_erotic_woman",91.7410714285714
406.029694089011,1.08227295331666,"AU06EL20","2022_Mar_01_1114","MainTask",83,"Picture","neutral_man_woman","neutral_8","green",1,0.671148312630976,"post_error","post_erotic_woman",91.7410714285714
407.097242868846,0.671148312630976,"AU06EL20","2022_Mar_01_1114","MainTask",83,"Target","neutral_man_woman","neutral_8","green",1,0.671148312630976,"post_error","post_erotic_woman",91.7410714285714
407.768391181477,0,"AU06EL20","2022_Mar_01_1114","MainTask",83,"Response","neutral_man_woman","neutral_8","green",1,0.671148312630976,"post_error","post_erotic_woman",91.7410714285714
407.797845776149,1.22224280462181,"AU06EL20","2022_Mar_01_1114","MainTask",84,"Fixation","erotic_man","man_7","blue",1,0.661830495184404,"post_correct","post_neutral_man_woman",91.7410714285714
409.082281911382,1.46933134530358,"AU06EL20","2022_Mar_01_1114","MainTask",84,"Picture","erotic_man","man_7","blue",1,0.661830495184404,"post_correct","post_neutral_man_woman",91.7410714285714
410.533530082355,0.661830495184404,"AU06EL20","2022_Mar_01_1114","MainTask",84,"Target","erotic_man","man_7","blue",1,0.661830495184404,"post_correct","post_neutral_man_woman",91.7410714285714
411.195360577539,0,"AU06EL20","2022_Mar_01_1114","MainTask",84,"Response","erotic_man","man_7","blue",1,0.661830495184404,"post_correct","post_neutral_man_woman",91.7410714285714
411.217450064993,1.16450910263848,"AU06EL20","2022_Mar_01_1114","MainTask",85,"Fixation","erotic_couple","couple_3","yellow",1,0.949817622582486,"post_correct","post_erotic_man",91.7410714285714
412.45185113662,1.1880480115668,"AU06EL20","2022_Mar_01_1114","MainTask",85,"Picture","erotic_couple","couple_3","yellow",1,0.949817622582486,"post_correct","post_erotic_man",91.7410714285714
413.619510883136,0.949817622582486,"AU06EL20","2022_Mar_01_1114","MainTask",85,"Target","erotic_couple","couple_3","yellow",1,0.949817622582486,"post_correct","post_erotic_man",91.7410714285714
414.569328505718,0,"AU06EL20","2022_Mar_01_1114","MainTask",85,"Response","erotic_couple","couple_3","yellow",1,0.949817622582486,"post_correct","post_erotic_man",91.7410714285714
414.587009955498,1.18169262339321,"AU06EL20","2022_Mar_01_1114","MainTask",86,"Fixation","neutral_couple","neutral_couple_7","yellow",1,0.562118005072989,"post_correct","post_erotic_couple",91.7410714285714
415.821403150941,1.26658371217058,"AU06EL20","2022_Mar_01_1114","MainTask",86,"Picture","neutral_couple","neutral_couple_7","yellow",1,0.562118005072989,"post_correct","post_erotic_couple",91.7410714285714
417.089166863085,0.562118005072989,"AU06EL20","2022_Mar_01_1114","MainTask",86,"Target","neutral_couple","neutral_couple_7","yellow",1,0.562118005072989,"post_correct","post_erotic_couple",91.7410714285714
417.651284868158,0,"AU06EL20","2022_Mar_01_1114","MainTask",86,"Response","neutral_couple","neutral_couple_7","yellow",1,0.562118005072989,"post_correct","post_erotic_couple",91.7410714285714
417.672993673383,1.09550626079611,"AU06EL20","2022_Mar_01_1114","MainTask",87,"Fixation","tree","tree_4","green",1,0.562508313749277,"post_correct","post_neutral_couple",91.7410714285714
418.840663046345,1.2565752394239,"AU06EL20","2022_Mar_01_1114","MainTask",87,"Picture","tree","tree_4","green",1,0.562508313749277,"post_correct","post_neutral_couple",91.7410714285714
420.091737124481,0.562508313749277,"AU06EL20","2022_Mar_01_1114","MainTask",87,"Target","tree","tree_4","green",1,0.562508313749277,"post_correct","post_neutral_couple",91.7410714285714
420.65424543823,0,"AU06EL20","2022_Mar_01_1114","MainTask",87,"Response","tree","tree_4","green",1,0.562508313749277,"post_correct","post_neutral_couple",91.7410714285714
420.675563059647,1.2185385043669,"AU06EL20","2022_Mar_01_1114","MainTask",88,"Fixation","erotic_man","man_6","blue",1,0.601091989163251,"post_correct","post_tree",91.7410714285714
421.976691745993,1.30938040232294,"AU06EL20","2022_Mar_01_1114","MainTask",88,"Picture","erotic_man","man_6","blue",1,0.601091989163251,"post_correct","post_tree",91.7410714285714
423.261127589514,0.601091989163251,"AU06EL20","2022_Mar_01_1114","MainTask",88,"Target","erotic_man","man_6","blue",1,0.601091989163251,"post_correct","post_tree",91.7410714285714
423.862219578677,0,"AU06EL20","2022_Mar_01_1114","MainTask",88,"Response","erotic_man","man_6","blue",1,0.601091989163251,"post_correct","post_tree",91.7410714285714
423.878325208223,1.42015075919506,"AU06EL20","2022_Mar_01_1114","MainTask",89,"Fixation","tree","tree_2","yellow",1,0.444746235183629,"post_correct","post_erotic_man",91.7410714285714
425.329574254331,1.35730039795391,"AU06EL20","2022_Mar_01_1114","MainTask",89,"Picture","tree","tree_2","yellow",1,0.444746235183629,"post_correct","post_erotic_man",91.7410714285714
426.697407801974,0.444746235183629,"AU06EL20","2022_Mar_01_1114","MainTask",89,"Target","tree","tree_2","yellow",1,0.444746235183629,"post_correct","post_erotic_man",91.7410714285714
427.142154037158,0,"AU06EL20","2022_Mar_01_1114","MainTask",89,"Response","tree","tree_2","yellow",1,0.444746235183629,"post_correct","post_erotic_man",91.7410714285714
427.164479518422,1.25275688247717,"AU06EL20","2022_Mar_01_1114","MainTask",90,"Fixation","positive_man_woman","positive_7","blue",1,0.663163903975146,"post_correct","post_tree",91.7410714285714
428.482279752723,1.16538751236674,"AU06EL20","2022_Mar_01_1114","MainTask",90,"Picture","positive_man_woman","positive_7","blue",1,0.663163903975146,"post_correct","post_tree",91.7410714285714
429.649947375423,0.663163903975146,"AU06EL20","2022_Mar_01_1114","MainTask",90,"Target","positive_man_woman","positive_7","blue",1,0.663163903975146,"post_correct","post_tree",91.7410714285714
430.313111279398,0,"AU06EL20","2022_Mar_01_1114","MainTask",90,"Response","positive_man_woman","positive_7","blue",1,0.663163903975146,"post_correct","post_tree",91.7410714285714
430.333859773586,1.23790515798502,"AU06EL20","2022_Mar_01_1114","MainTask",91,"Fixation","erotic_man","man_7","blue",1,0.577681053051492,"post_correct","post_positive_man_woman",91.7410714285714
431.601627569678,1.27170768202624,"AU06EL20","2022_Mar_01_1114","MainTask",91,"Picture","erotic_man","man_7","blue",1,0.577681053051492,"post_correct","post_positive_man_woman",91.7410714285714
432.86937902998,0.577681053051492,"AU06EL20","2022_Mar_01_1114","MainTask",91,"Target","erotic_man","man_7","blue",1,0.577681053051492,"post_correct","post_positive_man_woman",91.7410714285714
433.447060083031,0,"AU06EL20","2022_Mar_01_1114","MainTask",91,"Response","erotic_man","man_7","blue",1,0.577681053051492,"post_correct","post_positive_man_woman",91.7410714285714
433.469895765997,1.16025404593835,"AU06EL20","2022_Mar_01_1114","MainTask",92,"Fixation","neutral_man_woman","neutral_3","green",1,0.602809580706889,"post_correct","post_erotic_man",91.7410714285714
434.68760895388,1.49797085875987,"AU06EL20","2022_Mar_01_1114","MainTask",92,"Picture","neutral_man_woman","neutral_3","green",1,0.602809580706889,"post_correct","post_erotic_man",91.7410714285714
436.172214514583,0.602809580706889,"AU06EL20","2022_Mar_01_1114","MainTask",92,"Target","neutral_man_woman","neutral_3","green",1,0.602809580706889,"post_correct","post_erotic_man",91.7410714285714
436.77502409529,0,"AU06EL20","2022_Mar_01_1114","MainTask",92,"Response","neutral_man_woman","neutral_3","green",1,0.602809580706889,"post_correct","post_erotic_man",91.7410714285714
436.806094766247,1.11709439251029,"AU06EL20","2022_Mar_01_1114","MainTask",93,"Fixation","tree","tree_5","red",1,0.824149605490675,"post_correct","post_neutral_man_woman",91.7410714285714
437.990445021902,1.25430703882548,"AU06EL20","2022_Mar_01_1114","MainTask",93,"Picture","tree","tree_5","red",1,0.824149605490675,"post_correct","post_neutral_man_woman",91.7410714285714
439.224837050504,0.824149605490675,"AU06EL20","2022_Mar_01_1114","MainTask",93,"Target","tree","tree_5","red",1,0.824149605490675,"post_correct","post_neutral_man_woman",91.7410714285714
440.048986655995,0,"AU06EL20","2022_Mar_01_1114","MainTask",93,"Response","tree","tree_5","red",1,0.824149605490675,"post_correct","post_neutral_man_woman",91.7410714285714
440.075569068884,1.01057700337816,"AU06EL20","2022_Mar_01_1114","MainTask",94,"Fixation","erotic_couple","couple_3","blue",1,0.850541823119784,"post_correct","post_tree",91.7410714285714
441.126481597734,1.12560396078112,"AU06EL20","2022_Mar_01_1114","MainTask",94,"Picture","erotic_couple","couple_3","blue",1,0.850541823119784,"post_correct","post_tree",91.7410714285714
442.227416063215,0.850541823119784,"AU06EL20","2022_Mar_01_1114","MainTask",94,"Target","erotic_couple","couple_3","blue",1,0.850541823119784,"post_correct","post_tree",91.7410714285714
443.077957886335,0,"AU06EL20","2022_Mar_01_1114","MainTask",94,"Response","erotic_couple","couple_3","blue",1,0.850541823119784,"post_correct","post_tree",91.7410714285714
443.094829255999,1.08913291969293,"AU06EL20","2022_Mar_01_1114","MainTask",95,"Fixation","tree","tree_1","green",0,0.45222277582252,"post_correct","post_erotic_couple",91.7410714285714
444.262500087514,1.40352055488089,"AU06EL20","2022_Mar_01_1114","MainTask",95,"Picture","tree","tree_1","green",0,0.45222277582252,"post_correct","post_erotic_couple",91.7410714285714
445.663712319752,0.45222277582252,"AU06EL20","2022_Mar_01_1114","MainTask",95,"Target","tree","tree_1","green",0,0.45222277582252,"post_correct","post_erotic_couple",91.7410714285714
446.115935095575,0,"AU06EL20","2022_Mar_01_1114","MainTask",95,"Response","tree","tree_1","green",0,0.45222277582252,"post_correct","post_erotic_couple",91.7410714285714
446.147450625078,1.09077412511021,"AU06EL20","2022_Mar_01_1114","MainTask",96,"Fixation","neutral_man_woman","neutral_2","blue",1,0.712176230492332,"post_error","post_tree",91.7410714285714
447.315120581461,1.45216444117784,"AU06EL20","2022_Mar_01_1114","MainTask",96,"Picture","neutral_man_woman","neutral_2","blue",1,0.712176230492332,"post_error","post_tree",91.7410714285714
448.749682910664,0.712176230492332,"AU06EL20","2022_Mar_01_1114","MainTask",96,"Target","neutral_man_woman","neutral_2","blue",1,0.712176230492332,"post_error","post_tree",91.7410714285714
449.461859141156,0,"AU06EL20","2022_Mar_01_1114","MainTask",96,"Response","neutral_man_woman","neutral_2","blue",1,0.712176230492332,"post_error","post_tree",91.7410714285714
449.483646999932,1.30821966528858,"AU06EL20","2022_Mar_01_1114","MainTask",97,"Fixation","erotic_woman","woman_7","red",1,0.712650551799015,"post_correct","post_neutral_man_woman",91.7410714285714
450.851491340865,1.17264616551552,"AU06EL20","2022_Mar_01_1114","MainTask",97,"Picture","erotic_woman","woman_7","red",1,0.712650551799015,"post_correct","post_neutral_man_woman",91.7410714285714
452.019158671854,0.712650551799015,"AU06EL20","2022_Mar_01_1114","MainTask",97,"Target","erotic_woman","woman_7","red",1,0.712650551799015,"post_correct","post_neutral_man_woman",91.7410714285714
452.731809223653,0,"AU06EL20","2022_Mar_01_1114","MainTask",97,"Response","erotic_woman","woman_7","red",1,0.712650551799015,"post_correct","post_neutral_man_woman",91.7410714285714
452.753124219675,1.22246798247041,"AU06EL20","2022_Mar_01_1114","MainTask",98,"Fixation","neutral_man_woman","neutral_1","blue",1,0.484718744384736,"post_correct","post_erotic_woman",91.7410714285714
454.004201214917,1.41790694816827,"AU06EL20","2022_Mar_01_1114","MainTask",98,"Picture","neutral_man_woman","neutral_1","blue",1,0.484718744384736,"post_correct","post_erotic_woman",91.7410714285714
455.422080911165,0.484718744384736,"AU06EL20","2022_Mar_01_1114","MainTask",98,"Target","neutral_man_woman","neutral_1","blue",1,0.484718744384736,"post_correct","post_erotic_woman",91.7410714285714
455.90679965555,0,"AU06EL20","2022_Mar_01_1114","MainTask",98,"Response","neutral_man_woman","neutral_1","blue",1,0.484718744384736,"post_correct","post_erotic_woman",91.7410714285714
455.93918360727,1.09083625058657,"AU06EL20","2022_Mar_01_1114","MainTask",99,"Fixation","neutral_man_woman","neutral_8","red",1,0.583913156611743,"post_correct","post_neutral_man_woman",91.7410714285714
457.090182890828,1.49847946310356,"AU06EL20","2022_Mar_01_1114","MainTask",99,"Picture","neutral_man_woman","neutral_8","red",1,0.583913156611743,"post_correct","post_neutral_man_woman",91.7410714285714
458.574790493505,0.583913156611743,"AU06EL20","2022_Mar_01_1114","MainTask",99,"Target","neutral_man_woman","neutral_8","red",1,0.583913156611743,"post_correct","post_neutral_man_woman",91.7410714285714
459.158703650117,0,"AU06EL20","2022_Mar_01_1114","MainTask",99,"Response","neutral_man_woman","neutral_8","red",1,0.583913156611743,"post_correct","post_neutral_man_woman",91.7410714285714
459.175315980836,1.3597036764659,"AU06EL20","2022_Mar_01_1114","MainTask",100,"Fixation","erotic_man","man_7","red",1,0.38238085958983,"post_correct","post_neutral_man_woman",91.7410714285714
460.593191301426,1.32421591619613,"AU06EL20","2022_Mar_01_1114","MainTask",100,"Picture","erotic_man","man_7","red",1,0.38238085958983,"post_correct","post_neutral_man_woman",91.7410714285714
461.894310069614,0.38238085958983,"AU06EL20","2022_Mar_01_1114","MainTask",100,"Target","erotic_man","man_7","red",1,0.38238085958983,"post_correct","post_neutral_man_woman",91.7410714285714
462.276690929204,0,"AU06EL20","2022_Mar_01_1114","MainTask",100,"Response","erotic_man","man_7","red",1,0.38238085958983,"post_correct","post_neutral_man_woman",91.7410714285714
462.294652712792,1.22383680759842,"AU06EL20","2022_Mar_01_1114","MainTask",101,"Fixation","neutral_man_woman","neutral_2","yellow",1,0.713486302440288,"post_correct","post_erotic_man",91.7410714285714
463.579090306577,1.25406431274521,"AU06EL20","2022_Mar_01_1114","MainTask",101,"Picture","neutral_man_woman","neutral_2","yellow",1,0.713486302440288,"post_correct","post_erotic_man",91.7410714285714
464.830162634449,0.713486302440288,"AU06EL20","2022_Mar_01_1114","MainTask",101,"Target","neutral_man_woman","neutral_2","yellow",1,0.713486302440288,"post_correct","post_erotic_man",91.7410714285714
465.543648936889,0,"AU06EL20","2022_Mar_01_1114","MainTask",101,"Response","neutral_man_woman","neutral_2","yellow",1,0.713486302440288,"post_correct","post_erotic_man",91.7410714285714
465.56412789056,1.04576888062173,"AU06EL20","2022_Mar_01_1114","MainTask",102,"Fixation","erotic_woman","woman_2","red",1,0.4674923630173,"post_correct","post_neutral_man_woman",91.7410714285714
466.665074024462,1.26667638070083,"AU06EL20","2022_Mar_01_1114","MainTask",102,"Picture","erotic_woman","woman_2","red",1,0.4674923630173,"post_correct","post_neutral_man_woman",91.7410714285714
467.916146352336,0.4674923630173,"AU06EL20","2022_Mar_01_1114","MainTask",102,"Target","erotic_woman","woman_2","red",1,0.4674923630173,"post_correct","post_neutral_man_woman",91.7410714285714
468.383638715353,0,"AU06EL20","2022_Mar_01_1114","MainTask",102,"Response","erotic_woman","woman_2","red",1,0.4674923630173,"post_correct","post_neutral_man_woman",91.7410714285714
468.399896909503,1.07029978772679,"AU06EL20","2022_Mar_01_1114","MainTask",103,"Fixation","erotic_woman","woman_2","green",1,0.750439316043412,"post_correct","post_erotic_woman",91.7410714285714
469.517523634388,1.14019414501667,"AU06EL20","2022_Mar_01_1114","MainTask",103,"Picture","erotic_woman","woman_2","green",1,0.750439316043412,"post_correct","post_erotic_woman",91.7410714285714
470.635151234403,0.750439316043412,"AU06EL20","2022_Mar_01_1114","MainTask",103,"Target","erotic_woman","woman_2","green",1,0.750439316043412,"post_correct","post_erotic_woman",91.7410714285714
471.385590550446,0,"AU06EL20","2022_Mar_01_1114","MainTask",103,"Response","erotic_woman","woman_2","green",1,0.750439316043412,"post_correct","post_erotic_woman",91.7410714285714
471.402475630503,1.12533084771723,"AU06EL20","2022_Mar_01_1114","MainTask",104,"Fixation","erotic_couple","couple_8","green",1,0.583570688460895,"post_correct","post_erotic_woman",91.7410714285714
472.586825886159,1.31381780490481,"AU06EL20","2022_Mar_01_1114","MainTask",104,"Picture","erotic_couple","couple_8","green",1,0.583570688460895,"post_correct","post_erotic_woman",91.7410714285714
473.887942904084,0.583570688460895,"AU06EL20","2022_Mar_01_1114","MainTask",104,"Target","erotic_couple","couple_8","green",1,0.583570688460895,"post_correct","post_erotic_woman",91.7410714285714
474.471513592545,0,"AU06EL20","2022_Mar_01_1114","MainTask",104,"Response","erotic_couple","couple_8","green",1,0.583570688460895,"post_correct","post_erotic_woman",91.7410714285714
474.488459348389,1.41619209786054,"AU06EL20","2022_Mar_01_1114","MainTask",105,"Fixation","positive_man_woman","positive_5","blue",1,0.710567738682585,"post_correct","post_erotic_couple",91.7410714285714
475.973067242776,1.00990185565777,"AU06EL20","2022_Mar_01_1114","MainTask",105,"Picture","positive_man_woman","positive_5","blue",1,0.710567738682585,"post_correct","post_erotic_couple",91.7410714285714
476.973926038549,0.710567738682585,"AU06EL20","2022_Mar_01_1114","MainTask",105,"Target","positive_man_woman","positive_5","blue",1,0.710567738682585,"post_correct","post_erotic_couple",91.7410714285714
477.684493777232,0,"AU06EL20","2022_Mar_01_1114","MainTask",105,"Response","positive_man_woman","positive_5","blue",1,0.710567738682585,"post_correct","post_erotic_couple",91.7410714285714
477.707890127816,1.16211895610709,"AU06EL20","2022_Mar_01_1114","MainTask",106,"Fixation","neutral_man_woman","neutral_7","red",1,0.703232969355668,"post_correct","post_positive_man_woman",91.7410714285714
478.925604482542,1.49092678198752,"AU06EL20","2022_Mar_01_1114","MainTask",106,"Picture","neutral_man_woman","neutral_7","red",1,0.703232969355668,"post_correct","post_positive_man_woman",91.7410714285714
480.410212085217,0.703232969355668,"AU06EL20","2022_Mar_01_1114","MainTask",106,"Target","neutral_man_woman","neutral_7","red",1,0.703232969355668,"post_correct","post_positive_man_woman",91.7410714285714
481.113445054573,0,"AU06EL20","2022_Mar_01_1114","MainTask",106,"Response","neutral_man_woman","neutral_7","red",1,0.703232969355668,"post_correct","post_positive_man_woman",91.7410714285714
481.144175007643,1.14387674038942,"AU06EL20","2022_Mar_01_1114","MainTask",107,"Fixation","tree","tree_7","red",1,0.552677085788673,"post_correct","post_neutral_man_woman",91.7410714285714
482.361889070657,1.3767924968714,"AU06EL20","2022_Mar_01_1114","MainTask",107,"Picture","tree","tree_7","red",1,0.552677085788673,"post_correct","post_neutral_man_woman",91.7410714285714
483.729729327642,0.552677085788673,"AU06EL20","2022_Mar_01_1114","MainTask",107,"Target","tree","tree_7","red",1,0.552677085788673,"post_correct","post_neutral_man_woman",91.7410714285714
484.282406413431,0,"AU06EL20","2022_Mar_01_1114","MainTask",107,"Response","tree","tree_7","red",1,0.552677085788673,"post_correct","post_neutral_man_woman",91.7410714285714
484.313564305834,1.37176356624177,"AU06EL20","2022_Mar_01_1114","MainTask",108,"Fixation","tree","tree_3","red",1,0.456309931927535,"post_correct","post_tree",91.7410714285714
485.748129260432,1.47536049658733,"AU06EL20","2022_Mar_01_1114","MainTask",108,"Picture","tree","tree_3","red",1,0.456309931927535,"post_correct","post_tree",91.7410714285714
487.216058314099,0.456309931927535,"AU06EL20","2022_Mar_01_1114","MainTask",108,"Target","tree","tree_3","red",1,0.456309931927535,"post_correct","post_tree",91.7410714285714
487.672368246027,0,"AU06EL20","2022_Mar_01_1114","MainTask",108,"Response","tree","tree_3","red",1,0.456309931927535,"post_correct","post_tree",91.7410714285714
487.699784367584,1.09764987591111,"AU06EL20","2022_Mar_01_1114","MainTask",109,"Fixation","tree","tree_1","blue",1,0.73417178715863,"post_correct","post_tree",91.7410714285714
488.867476493966,1.0063720915803,"AU06EL20","2022_Mar_01_1114","MainTask",109,"Picture","tree","tree_1","blue",1,0.73417178715863,"post_correct","post_tree",91.7410714285714
489.868335289739,0.73417178715863,"AU06EL20","2022_Mar_01_1114","MainTask",109,"Target","tree","tree_1","blue",1,0.73417178715863,"post_correct","post_tree",91.7410714285714
490.602507076898,0,"AU06EL20","2022_Mar_01_1114","MainTask",109,"Response","tree","tree_1","blue",1,0.73417178715863,"post_correct","post_tree",91.7410714285714
490.618975594331,1.17128600832539,"AU06EL20","2022_Mar_01_1114","MainTask",110,"Fixation","erotic_man","man_5","red",1,0.473818105656392,"post_correct","post_tree",91.7410714285714
491.853374332275,1.32428364634052,"AU06EL20","2022_Mar_01_1114","MainTask",110,"Picture","erotic_man","man_5","red",1,0.473818105656392,"post_correct","post_tree",91.7410714285714
493.154490183359,0.473818105656392,"AU06EL20","2022_Mar_01_1114","MainTask",110,"Target","erotic_man","man_5","red",1,0.473818105656392,"post_correct","post_tree",91.7410714285714
493.628308289015,0,"AU06EL20","2022_Mar_01_1114","MainTask",110,"Response","erotic_man","man_5","red",1,0.473818105656392,"post_correct","post_tree",91.7410714285714
493.654921331507,1.01453995476546,"AU06EL20","2022_Mar_01_1114","MainTask",111,"Fixation","neutral_man_woman","neutral_3","red",1,0.376231018395629,"post_correct","post_erotic_man",91.7410714285714
494.722505116602,1.40239901937077,"AU06EL20","2022_Mar_01_1114","MainTask",111,"Picture","neutral_man_woman","neutral_3","red",1,0.376231018395629,"post_correct","post_erotic_man",91.7410714285714
496.107025964569,0.376231018395629,"AU06EL20","2022_Mar_01_1114","MainTask",111,"Target","neutral_man_woman","neutral_3","red",1,0.376231018395629,"post_correct","post_erotic_man",91.7410714285714
496.483256982965,0,"AU06EL20","2022_Mar_01_1114","MainTask",111,"Response","neutral_man_woman","neutral_3","red",1,0.376231018395629,"post_correct","post_erotic_man",91.7410714285714
496.50736977459,30,"AU06EL20","2022_Mar_01_1114","Break",0,"break","Scramble","","",1,0.731364948531336,"post_correct",NA,91.7410714285714
526.817117923394,1.10059406565862,"AU06EL20","2022_Mar_01_1114","Break",0,"Fixation","Scramble","","",1,0.731364948531336,"post_correct",NA,91.7410714285714
527.934737063806,1.24767224675161,"AU06EL20","2022_Mar_01_1114","Break",0,"Picture","Scramble","","",1,0.731364948531336,"post_correct",NA,91.7410714285714
529.152453168794,0.731364948531336,"AU06EL20","2022_Mar_01_1114","Break",0,"Target","Scramble","","",1,0.731364948531336,"post_correct",NA,91.7410714285714
529.883818117325,0,"AU06EL20","2022_Mar_01_1114","Break",0,"Response","Scramble","","",1,0.731364948531336,"post_correct",NA,91.7410714285714
529.903099015886,1.19481538207068,"AU06EL20","2022_Mar_01_1114","Practice",20,"Fixation","Scramble","","",1,0.629723960168121,"post_correct",NA,91.7410714285714
531.120807536399,1.10867139472745,"AU06EL20","2022_Mar_01_1114","Practice",20,"Picture","Scramble","","",1,0.629723960168121,"post_correct",NA,91.7410714285714
532.205074537873,0.629723960168121,"AU06EL20","2022_Mar_01_1114","Practice",20,"Target","Scramble","","",1,0.629723960168121,"post_correct",NA,91.7410714285714
532.834798498041,0,"AU06EL20","2022_Mar_01_1114","Practice",20,"Response","Scramble","","",1,0.629723960168121,"post_correct",NA,91.7410714285714
532.855633046835,1.01819630954151,"AU06EL20","2022_Mar_01_1114","Practice",21,"Fixation","Scramble","","",1,0.631201182244695,"post_correct",NA,91.7410714285714
533.889852441151,1.24144895761279,"AU06EL20","2022_Mar_01_1114","Practice",21,"Picture","Scramble","","",1,0.631201182244695,"post_correct",NA,91.7410714285714
535.107566504164,0.631201182244695,"AU06EL20","2022_Mar_01_1114","Practice",21,"Target","Scramble","","",1,0.631201182244695,"post_correct",NA,91.7410714285714
535.738767686409,0,"AU06EL20","2022_Mar_01_1114","Practice",21,"Response","Scramble","","",1,0.631201182244695,"post_correct",NA,91.7410714285714
535.758126471679,1.35200368188192,"AU06EL20","2022_Mar_01_1114","Practice",22,"Fixation","Scramble","","",1,0.30559915007143,"post_correct",NA,91.7410714285714
537.12596410327,1.37569051849016,"AU06EL20","2022_Mar_01_1114","Practice",22,"Picture","Scramble","","",1,0.30559915007143,"post_correct",NA,91.7410714285714
538.477128436642,0.30559915007143,"AU06EL20","2022_Mar_01_1114","Practice",22,"Target","Scramble","","",1,0.30559915007143,"post_correct",NA,91.7410714285714
538.782727586713,0,"AU06EL20","2022_Mar_01_1114","Practice",22,"Response","Scramble","","",1,0.30559915007143,"post_correct",NA,91.7410714285714
538.81074813247,1.11441660610172,"AU06EL20","2022_Mar_01_1114","Practice",23,"Fixation","Scramble","","",0,0.4939038335433,"post_correct",NA,91.7410714285714
539.945052531231,1.23432507958208,"AU06EL20","2022_Mar_01_1114","Practice",23,"Picture","Scramble","","",0,0.4939038335433,"post_correct",NA,91.7410714285714
541.162766302534,0.4939038335433,"AU06EL20","2022_Mar_01_1114","Practice",23,"Target","Scramble","","",0,0.4939038335433,"post_correct",NA,91.7410714285714
541.656670136077,0,"AU06EL20","2022_Mar_01_1114","Practice",23,"Response","Scramble","","",0,0.4939038335433,"post_correct",NA,91.7410714285714
541.679878625087,1.42643134825072,"AU06EL20","2022_Mar_01_1114","Practice",24,"Fixation","Scramble","","",1,0.569396474269524,"post_error",NA,91.7410714285714
