SubsetIndex,rep_Practice,ImageFilePrac,ColourPrac,CorrAnsPrac,TriggerConditionPrac,TriggerSpecificPrac,Primer,Condition,ImageFile,Colour,CorrAns,TriggerCondition,TriggerSpecific,Blocks.thisRepN,Blocks.thisTrialN,Blocks.thisN,Blocks.thisIndex,Practices.thisRepN,Practices.thisTrialN,Practices.thisN,Practices.thisIndex,trials.thisRepN,trials.thisTrialN,trials.thisN,trials.thisIndex,CountdownLoop.thisRepN,CountdownLoop.thisTrialN,CountdownLoop.thisN,CountdownLoop.thisIndex,jitter,jitter_black,Fixation.started,Fixation.stopped,square1.started,square1.stopped,image_black_practice.started,image_black_practice.stopped,image_prompt_practice.started,image_prompt_practice.stopped,response_practice.keys,response_practice.corr,response_practice.rt,breakslide.keys,breakslide.rt,Trigger_Picture,Trigger_Target,Trigger_Response,image_black.started,image_black.stopped,image_prompt.started,image_prompt.stopped,Response.keys,Response.corr,Response.started,Response.stopped,square2.started,square2.stopped,showReminder,Reminder_Errors_Resp.keys,Reminder_Errors_Resp.started,Reminder_Errors_Resp.stopped,Response.rt,break_slide.started,break_slide.stopped,participant,session,EEGPort,LogFilesFolder,date,expName,psychopyVersion,frameRate,
Subset1,5,PracticeStimuli/practice_green.png,green,1,9,0,PracticeStimuli/practice_black.png,Scramble,,,,,,0,0,0,0,0,0,0,2,,,,,,,,,1.243606122956046,1.3650700249040955,74.04459378726642,None,74.04459378726642,None,75.34572013992874,76.71352334967742,76.69682496435416,None,1,1,0.5168494913741597,,,,,,,,,,,,,,,,,,,,,,,AU06EL20,1,0xC010,G:\Experimente\CoScience\Tasks\Logfiles\,2022_Mar_01_1114,Stroop,2020.1.3,59.94823690726359,
Subset1,5,PracticeStimuli/practice_blue.png,blue,4,9,0,PracticeStimuli/practice_black.png,Scramble,,,,,,0,0,0,0,0,1,1,0,,,,,,,,,1.4572660660112244,1.4614423408433301,77.23063683907094,None,77.23063683907094,None,78.73192970009768,80.19986312942456,80.16649115417022,81.16734644941607,None,0,,,,,,,,,,,,,,,,,,,,,,,,AU06EL20,1,0xC010,G:\Experimente\CoScience\Tasks\Logfiles\,2022_Mar_01_1114,Stroop,2020.1.3,59.94823690726359,
Subset1,5,PracticeStimuli/practice_red.png,red,2,9,0,PracticeStimuli/practice_black.png,Scramble,,,,,,0,0,0,0,0,2,2,1,,,,,,,,,1.1087076212493174,1.0784761513987016,81.1840273321086,None,81.1840273321086,None,82.33507037224626,83.41927786477208,83.40259581523787,None,2,1,0.6709899138168112,,,,,,,,,,,,,,,,,,,,,,,AU06EL20,1,0xC010,G:\Experimente\CoScience\Tasks\Logfiles\,2022_Mar_01_1114,Stroop,2020.1.3,59.94823690726359,
Subset1,5,PracticeStimuli/practice_yellow.png,yellow,3,9,0,PracticeStimuli/practice_black.png,Scramble,,,,,,0,0,0,0,0,3,3,3,,,,,,,,,1.158437262172931,1.4633981198339372,84.10319959767367,None,84.10319959767367,None,85.30423511167828,86.77215716429419,86.75548065725889,None,3,1,0.2540652778134245,,,,,,,,,,,,,,,,,,,,,,,AU06EL20,1,0xC010,G:\Experimente\CoScience\Tasks\Logfiles\,2022_Mar_01_1114,Stroop,2020.1.3,59.94823690726359,
Subset1,5,PracticeStimuli/practice_blue.png,blue,4,9,0,PracticeStimuli/practice_black.png,Scramble,,,,,,0,0,0,0,1,0,4,0,,,,,,,,,1.0982070733497502,1.0049726041246216,87.03905303764077,None,87.03905303764077,None,88.14000354719974,89.15753943342861,89.14085680047174,90.14171676308615,None,0,,,,,,,,,,,,,,,,,,,,,,,,AU06EL20,1,0xC010,G:\Experimente\CoScience\Tasks\Logfiles\,2022_Mar_01_1114,Stroop,2020.1.3,59.94823690726359,
Subset1,5,PracticeStimuli/practice_yellow.png,yellow,3,9,0,PracticeStimuli/practice_black.png,Scramble,,,,,,0,0,0,0,1,1,5,3,,,,,,,,,1.2263357119617309,1.17229649036623,90.15841135617484,None,90.15841135617484,None,91.39279463346065,92.57714109687913,92.5604602141866,93.56131988508969,None,0,,,,,,,,,,,,,,,,,,,,,,,,AU06EL20,1,0xC010,G:\Experimente\CoScience\Tasks\Logfiles\,2022_Mar_01_1114,Stroop,2020.1.3,59.94823690726359,
Subset1,5,PracticeStimuli/practice_green.png,green,1,9,0,PracticeStimuli/practice_black.png,Scramble,,,,,,0,0,0,0,1,2,6,2,,,,,,,,,1.141541173601414,1.0753952521563481,93.57799989265004,None,93.57799989265004,None,94.7289927585789,95.81325188386654,95.7965747934104,None,1,1,0.27185115995780507,,,,,,,,,,,,,,,,,,,,,,,AU06EL20,1,0xC010,G:\Experimente\CoScience\Tasks\Logfiles\,2022_Mar_01_1114,Stroop,2020.1.3,59.94823690726359,
Subset1,5,PracticeStimuli/practice_red.png,red,2,9,0,PracticeStimuli/practice_black.png,Scramble,,,,,,0,0,0,0,1,3,7,1,,,,,,,,,1.0788278118627663,1.4011144246682163,96.09683272385337,None,96.09683272385337,None,97.18109593308873,98.58229883059175,98.58229883059175,None,2,1,0.6870975853380514,,,,,,,,,,,,,,,,,,,,,,,AU06EL20,1,0xC010,G:\Experimente\CoScience\Tasks\Logfiles\,2022_Mar_01_1114,Stroop,2020.1.3,59.94823690726359,
Subset1,5,PracticeStimuli/practice_yellow.png,yellow,3,9,0,PracticeStimuli/practice_black.png,Scramble,,,,,,0,0,0,0,2,0,8,3,,,,,,,,,1.0603455692902302,1.120394783245836,99.29958407914091,None,99.29958407914091,None,100.36716786423676,101.50147051273416,101.48479167201549,102.48565250976026,None,0,,,,,,,,,,,,,,,,,,,,,,,,AU06EL20,1,0xC010,G:\Experimente\CoScience\Tasks\Logfiles\,2022_Mar_01_1114,Stroop,2020.1.3,59.94823690726359,
Subset1,5,PracticeStimuli/practice_red.png,red,2,9,0,PracticeStimuli/practice_black.png,Scramble,,,,,,0,0,0,0,2,1,9,1,,,,,,,,,1.1716769128816142,1.2484251679258183,102.50232872508604,None,102.50232872508604,None,103.68668277297729,104.93775247545636,104.93775247545636,None,2,1,0.744559598791966,,,,,,,,,,,,,,,,,,,,,,,AU06EL20,1,0xC010,G:\Experimente\CoScience\Tasks\Logfiles\,2022_Mar_01_1114,Stroop,2020.1.3,59.94823690726359,
Subset1,5,PracticeStimuli/practice_green.png,green,1,9,0,PracticeStimuli/practice_black.png,Scramble,,,,,,0,0,0,0,2,2,10,2,,,,,,,,,1.2369743224926026,1.3122434873501718,105.70511771102974,None,105.70511771102974,None,106.95617837048121,108.2739494337311,108.25726855103858,None,1,1,0.5730107676172338,,,,,,,,,,,,,,,,,,,,,,,AU06EL20,1,0xC010,G:\Experimente\CoScience\Tasks\Logfiles\,2022_Mar_01_1114,Stroop,2020.1.3,59.94823690726359,
Subset1,5,PracticeStimuli/practice_blue.png,blue,4,9,0,PracticeStimuli/practice_black.png,Scramble,,,,,,0,0,0,0,2,3,11,0,,,,,,,,,1.3648061282711608,1.1633259924311345,108.85778499534536,None,108.85778499534536,None,110.22563079483007,111.39329404187083,111.37661257575746,None,4,1,0.7646106131287524,,,,,,,,,,,,,,,,,,,,,,,AU06EL20,1,0xC010,G:\Experimente\CoScience\Tasks\Logfiles\,2022_Mar_01_1114,Stroop,2020.1.3,59.94823690726359,
Subset1,5,PracticeStimuli/practice_green.png,green,1,9,0,PracticeStimuli/practice_black.png,Scramble,,,,,,0,0,0,0,3,0,12,2,,,,,,,,,1.3339721435301484,1.0052902131686339,112.16062368876192,None,112.16062368876192,None,113.49510597259905,114.51266052830033,114.49596068442406,None,1,1,0.8122253545443527,,,,,,,,,,,,,,,,,,,,,,,AU06EL20,1,0xC010,G:\Experimente\CoScience\Tasks\Logfiles\,2022_Mar_01_1114,Stroop,2020.1.3,59.94823690726359,
Subset1,5,PracticeStimuli/practice_yellow.png,yellow,3,9,0,PracticeStimuli/practice_black.png,Scramble,,,,,,0,0,0,0,3,1,13,3,,,,,,,,,1.28720758024349,1.1936681538541278,115.33001094497922,None,115.33001094497922,None,116.63113146342948,117.83215793441013,117.81547559316459,None,3,1,0.8846923737546604,,,,,,,,,,,,,,,,,,,,,,,AU06EL20,1,0xC010,G:\Experimente\CoScience\Tasks\Logfiles\,2022_Mar_01_1114,Stroop,2020.1.3,59.94823690726359,
Subset1,5,PracticeStimuli/practice_blue.png,blue,4,9,0,PracticeStimuli/practice_black.png,Scramble,,,,,,0,0,0,0,3,2,14,0,,,,,,,,,1.368770102230476,1.2407408531418482,118.73293143402589,None,118.73293143402589,None,120.10077548324807,121.35184839454269,121.33516897040136,None,4,1,0.7499206547381618,,,,,,,,,,,,,,,,,,,,,,,AU06EL20,1,0xC010,G:\Experimente\CoScience\Tasks\Logfiles\,2022_Mar_01_1114,Stroop,2020.1.3,59.94823690726359,
Subset1,5,PracticeStimuli/practice_red.png,red,2,9,0,PracticeStimuli/practice_black.png,Scramble,,,,,,0,0,0,0,3,3,15,1,,,,,,,,,1.2549647747128945,1.15141971603388,122.10249161624051,None,122.10249161624051,None,123.37024920246404,124.5212344839183,124.5212344839183,125.52210057245247,None,0,,,,,,,,,,,,,,,,,,,,,,,,AU06EL20,1,0xC010,G:\Experimente\CoScience\Tasks\Logfiles\,2022_Mar_01_1114,Stroop,2020.1.3,59.94823690726359,
Subset1,5,PracticeStimuli/practice_red.png,red,2,9,0,PracticeStimuli/practice_black.png,Scramble,,,,,,0,0,0,0,4,0,16,1,,,,,,,,,1.2555504783798326,1.1292107063840078,125.5387747458044,None,125.5387747458044,None,126.80653670768515,127.94083760592002,127.92415643151799,None,2,1,0.5337952472182224,,,,,,,,,,,,,,,,,,,,,,,AU06EL20,1,0xC010,G:\Experimente\CoScience\Tasks\Logfiles\,2022_Mar_01_1114,Stroop,2020.1.3,59.94823690726359,
Subset1,5,PracticeStimuli/practice_yellow.png,yellow,3,9,0,PracticeStimuli/practice_black.png,Scramble,,,,,,0,0,0,0,4,1,17,3,,,,,,,,,1.4224477956003403,1.339246073033729,128.47462847748102,None,128.47462847748102,None,129.9091998497115,131.26035543176658,131.24367571591574,132.24454063761004,None,0,,,,,,,,,,,,,,,,,,,,,,,,AU06EL20,1,0xC010,G:\Experimente\CoScience\Tasks\Logfiles\,2022_Mar_01_1114,Stroop,2020.1.3,59.94823690726359,
Subset1,5,PracticeStimuli/practice_green.png,green,1,9,0,PracticeStimuli/practice_black.png,Scramble,,,,,,0,0,0,0,4,2,18,2,,,,,,,,,1.2475085961165808,1.0692798944412947,132.2612127689863,None,132.2612127689863,None,133.51229122278164,134.59655384859616,134.57987238248097,None,1,1,0.4690250100920821,,,,,,,,,,,,,,,,,,,,,,,AU06EL20,1,0xC010,G:\Experimente\CoScience\Tasks\Logfiles\,2022_Mar_01_1114,Stroop,2020.1.3,59.94823690726359,
Subset1,5,PracticeStimuli/practice_blue.png,blue,4,9,0,PracticeStimuli/practice_black.png,Scramble,,,,,,0,0,0,0,4,3,19,0,,,,,,,,,1.412788500669045,1.2184684617999832,135.08029798813186,None,135.08029798813186,None,136.49818731082632,137.7158905805518,137.7158905805518,None,4,1,0.7269992088804429,,,,,,,,,,,,,,,,,,,,,,,AU06EL20,1,0xC010,G:\Experimente\CoScience\Tasks\Logfiles\,2022_Mar_01_1114,Stroop,2020.1.3,59.94823690726359,
Subset1,5,,,,,,Stimuli/woman_25.png,erotic_woman,Stimuli/woman_24.png,blue,4,7,72,0,0,0,0,,,,,0,0,0,71,,,,,1.3360785789473602,1.2699633330758964,142.8369641569443,None,142.8369641569443,None,,,,,,,,space,4.022098238769104,72,99,0,144.27153640430697,145.55596174624952,145.52259939744363,146.5234576097937,None,0,1.2747929147026298,2.275647918237155,145.52259939744363,146.5234576097937,False,None,None,None,,,,AU06EL20,1,0xC010,G:\Experimente\CoScience\Tasks\Logfiles\,2022_Mar_01_1114,Stroop,2020.1.3,59.94823690726359,
Subset1,5,,,,,,Stimuli/neutral_15.png,neutral_man_woman,Stimuli/neutral_11.png,green,1,4,41,0,0,0,0,,,,,0,1,1,18,,,,,1.3744468354622417,1.0816906614616113,146.5401393676184,None,146.5401393676184,None,,,,,,,,,,41,99,1,147.99141175056684,149.07565074782906,149.05897103197822,None,1,1,1.0959119395938615,None,149.05897103197822,None,False,None,None,None,0.5547607740354579,,,AU06EL20,1,0xC010,G:\Experimente\CoScience\Tasks\Logfiles\,2022_Mar_01_1114,Stroop,2020.1.3,59.94823690726359,
Subset1,5,,,,,,Stimuli/positiv_25.png,positive_man_woman,Stimuli/positiv_24.png,blue,4,6,62,0,0,0,0,,,,,0,2,2,85,,,,,1.0133564864268376,1.182888933582897,149.64280746872282,None,149.64280746872282,None,,,,,,,,,,62,99,1,150.74375476946807,151.92810269143774,151.91141830822016,None,4,1,1.1843326946836896,None,151.91141830822016,None,False,None,None,None,0.6752596807054942,,,AU06EL20,1,0xC010,G:\Experimente\CoScience\Tasks\Logfiles\,2022_Mar_01_1114,Stroop,2020.1.3,59.94823690726359,
Subset1,5,,,,,,Stimuli/tree_85.png,tree,Stimuli/tree_81.png,green,1,1,18,0,0,0,0,,,,,0,3,3,63,,,,,1.082574527954311,1.4745530959389201,152.61201859012908,None,152.61201859012908,None,,,,,,,,,,18,99,1,153.76301028921444,155.24761935044262,155.23093525893455,None,1,1,1.4814765278060804,None,155.23093525893455,None,False,None,None,None,0.4587089592478151,,,AU06EL20,1,0xC010,G:\Experimente\CoScience\Tasks\Logfiles\,2022_Mar_01_1114,Stroop,2020.1.3,59.94823690726359,
Subset1,5,,,,,,Stimuli/woman_65.png,erotic_woman,Stimuli/woman_63.png,yellow,3,7,76,0,0,0,0,,,,,0,4,4,39,,,,,1.0713712740166048,1.0387375047228684,155.71468844149604,None,155.71468844149604,None,,,,,,,,,,76,99,1,156.8656737229503,157.91657691706314,157.8832169019406,None,3,1,1.0472683351727028,None,157.8832169019406,None,False,None,None,None,0.7084149150414305,,,AU06EL20,1,0xC010,G:\Experimente\CoScience\Tasks\Logfiles\,2022_Mar_01_1114,Stroop,2020.1.3,59.94823690726359,
Subset1,5,,,,,,Stimuli/neutral_couple_75.png,neutral_couple,Stimuli/neutral_couple_74.png,blue,4,5,57,0,0,0,0,,,,,0,5,5,68,,,,,1.1405678348181787,1.1224359293027089,158.61717690726255,None,158.61717690726255,None,,,,,,,,,,57,99,1,159.83489359567102,160.9692012032483,160.9525141946342,None,4,1,1.1380468113711686,None,160.9525141946342,None,False,None,None,None,0.619069233407572,,,AU06EL20,1,0xC010,G:\Experimente\CoScience\Tasks\Logfiles\,2022_Mar_01_1114,Stroop,2020.1.3,59.94823690726359,
Subset1,5,,,,,,Stimuli/positiv_75.png,positive_man_woman,Stimuli/positiv_72.png,red,2,6,67,0,0,0,0,,,,,0,6,6,47,,,,,1.1916026547554939,1.1570702101626584,161.6030896228076,None,161.6030896228076,None,,,,,,,,,,67,99,1,162.870836415741,164.03849907936274,164.00513585542467,None,2,1,1.1561699983903964,None,164.00513585542467,None,False,None,None,None,0.7494168706707569,,,AU06EL20,1,0xC010,G:\Experimente\CoScience\Tasks\Logfiles\,2022_Mar_01_1114,Stroop,2020.1.3,59.94823690726359,
Subset1,5,,,,,,Stimuli/man_55.png,erotic_man,Stimuli/man_51.png,green,1,3,35,0,0,0,0,,,,,0,7,7,5,,,,,1.056875195968626,1.3378022115380286,164.77246287691923,None,164.77246287691923,None,,,,,,,,,,35,99,1,165.92344582469013,167.27460869950846,167.257931317341,None,1,1,1.3449342134445033,None,167.257931317341,None,False,None,None,None,0.2735658343972318,,,AU06EL20,1,0xC010,G:\Experimente\CoScience\Tasks\Logfiles\,2022_Mar_01_1114,Stroop,2020.1.3,59.94823690726359,
Subset1,5,,,,,,Stimuli/neutral_couple_65.png,neutral_couple,Stimuli/neutral_couple_62.png,red,2,5,56,0,0,0,0,,,,,0,8,8,44,,,,,1.1104129723317373,1.265902048841302,167.55818574725708,None,167.55818574725708,None,,,,,,,,,,56,99,2,168.74253892001798,170.01029446426764,170.01029446426764,None,4,0,1.2807061786625127,None,170.01029446426764,None,False,None,None,None,0.6421893341303075,,,AU06EL20,1,0xC010,G:\Experimente\CoScience\Tasks\Logfiles\,2022_Mar_01_1114,Stroop,2020.1.3,59.94823690726359,
Subset1,5,,,,,,Stimuli/woman_85.png,erotic_woman,Stimuli/woman_84.png,blue,4,7,78,0,0,0,0,,,,,0,9,9,81,,,,,1.2144405259059934,1.439731087895622,170.67755310881694,None,170.67755310881694,None,,,,,,,,,,78,99,1,171.9619653237878,173.41321699528817,173.39653640430697,None,4,1,1.4495173065988638,None,173.39653640430697,None,False,None,None,None,0.5938601936486521,,,AU06EL20,1,0xC010,G:\Experimente\CoScience\Tasks\Logfiles\,2022_Mar_01_1114,Stroop,2020.1.3,59.94823690726359,
Subset1,5,,,,,,Stimuli/woman_45.png,erotic_woman,Stimuli/woman_42.png,red,2,7,74,0,0,0,0,,,,,0,10,10,36,,,,,1.0505859488286613,1.0847120072284522,174.01375123393518,None,174.01375123393518,None,,,,,,,,,,74,99,1,175.13136278987258,176.2156277493723,176.19894453299457,None,2,1,1.0950166800084844,None,176.19894453299457,None,False,None,None,None,0.5774339742401935,,,AU06EL20,1,0xC010,G:\Experimente\CoScience\Tasks\Logfiles\,2022_Mar_01_1114,Stroop,2020.1.3,59.94823690726359,
Subset1,5,,,,,,Stimuli/neutral_15.png,neutral_man_woman,Stimuli/neutral_14.png,blue,4,4,41,0,0,0,0,,,,,0,11,11,35,,,,,1.4848795463313775,1.452506091359837,176.79946097730135,None,176.79946097730135,None,,,,,,,,,,41,99,2,178.33411210318627,179.80205253356507,179.76867676607435,None,3,0,1.4584721486480703,None,179.76867676607435,None,False,None,None,None,0.6986449462892779,,,AU06EL20,1,0xC010,G:\Experimente\CoScience\Tasks\Logfiles\,2022_Mar_01_1114,Stroop,2020.1.3,59.94823690726359,
Subset1,5,,,,,,Stimuli/couple_65.png,erotic_couple,Stimuli/couple_63.png,yellow,3,2,26,0,0,0,0,,,,,0,12,12,17,,,,,1.0187941880706088,1.1914632479633447,180.48596084778183,None,180.48596084778183,None,,,,,,,,,,26,99,1,181.58690581484188,182.78793666147794,182.7545748960929,None,3,1,1.193316124357807,None,182.7545748960929,None,False,None,None,None,0.6537235681098537,,,AU06EL20,1,0xC010,G:\Experimente\CoScience\Tasks\Logfiles\,2022_Mar_01_1114,Stroop,2020.1.3,59.94823690726359,
Subset1,5,,,,,,Stimuli/man_85.png,erotic_man,Stimuli/man_82.png,red,2,3,38,0,0,0,0,,,,,0,13,13,22,,,,,1.0875668428008636,1.053281499158599,183.43849662899265,None,183.43849662899265,None,,,,,,,,,,38,99,2,184.622846592938,185.69042775263915,185.6570659872541,None,4,0,1.0648454400979972,None,185.6570659872541,None,False,None,None,None,0.6732159567982308,,,AU06EL20,1,0xC010,G:\Experimente\CoScience\Tasks\Logfiles\,2022_Mar_01_1114,Stroop,2020.1.3,59.94823690726359,
Subset1,5,,,,,,Stimuli/neutral_55.png,neutral_man_woman,Stimuli/neutral_51.png,green,1,4,45,0,0,0,0,,,,,0,14,14,88,,,,,1.21024769156336,1.114601883242953,186.35766831113688,None,186.35766831113688,None,,,,,,,,,,45,99,1,187.64210561321124,188.75973087954299,188.74304853829744,None,1,1,1.1213555146132421,None,188.74304853829744,None,False,None,None,None,0.47416465775313554,,,AU06EL20,1,0xC010,G:\Experimente\CoScience\Tasks\Logfiles\,2022_Mar_01_1114,Stroop,2020.1.3,59.94823690726359,
Subset1,5,,,,,,Stimuli/tree_85.png,tree,Stimuli/tree_84.png,blue,4,1,18,0,0,0,0,,,,,0,15,15,20,,,,,1.2799755108458952,1.1581053458486072,189.2435012730257,None,189.2435012730257,None,,,,,,,,,,18,99,1,190.57796080344087,191.74562521732514,191.71226549391213,None,4,1,1.1618328872118582,None,191.71226549391213,None,False,None,None,None,0.6589241832680273,,,AU06EL20,1,0xC010,G:\Experimente\CoScience\Tasks\Logfiles\,2022_Mar_01_1114,Stroop,2020.1.3,59.94823690726359,
Subset1,5,,,,,,Stimuli/tree_35.png,tree,Stimuli/tree_31.png,green,1,1,13,0,0,0,0,,,,,0,16,16,33,,,,,1.270417662423521,1.2317176697901826,192.3961872268137,None,192.3961872268137,None,,,,,,,,,,13,99,1,193.76402952577155,194.99842126266412,194.98174796444437,None,1,1,1.2352626386491465,None,194.98174796444437,None,False,None,None,None,0.5474009176032268,,,AU06EL20,1,0xC010,G:\Experimente\CoScience\Tasks\Logfiles\,2022_Mar_01_1114,Stroop,2020.1.3,59.94823690726359,
Subset1,5,,,,,,Stimuli/neutral_45.png,neutral_man_woman,Stimuli/neutral_41.png,green,1,4,44,0,0,0,0,,,,,0,17,17,11,,,,,1.4551150017155696,1.4757353942712257,195.54889272520631,None,195.54889272520631,None,,,,,,,,,,44,99,1,197.08354618477642,198.56815145376822,198.5514731964704,None,1,1,1.4865603712405573,None,198.5514731964704,None,False,None,None,None,0.3676340176480153,,,AU06EL20,1,0xC010,G:\Experimente\CoScience\Tasks\Logfiles\,2022_Mar_01_1114,Stroop,2020.1.3,59.94823690726359,
Subset1,5,,,,,,Stimuli/man_55.png,erotic_man,Stimuli/man_51.png,green,1,3,35,0,0,0,0,,,,,0,18,18,3,,,,,1.0583626231833754,1.1387785082765178,198.95181583964768,None,198.95181583964768,None,,,,,,,,,,35,99,1,200.0360863416463,201.18707629046912,201.17038986527587,None,1,1,1.1392732790845912,None,201.17038986527587,None,False,None,None,None,0.4916623299031926,,,AU06EL20,1,0xC010,G:\Experimente\CoScience\Tasks\Logfiles\,2022_Mar_01_1114,Stroop,2020.1.3,59.94823690726359,
Subset1,5,,,,,,Stimuli/positiv_65.png,positive_man_woman,Stimuli/positiv_62.png,red,2,6,66,0,0,0,0,,,,,0,19,19,54,,,,,1.1733920514839171,1.4591146281987764,201.68749897901398,None,201.68749897901398,None,,,,,,,,,,66,99,1,202.93857509912414,204.4065006522651,204.38981976957257,None,2,1,1.4662556562689133,None,204.38981976957257,None,False,None,None,None,0.5821830215136288,,,AU06EL20,1,0xC010,G:\Experimente\CoScience\Tasks\Logfiles\,2022_Mar_01_1114,Stroop,2020.1.3,59.94823690726359,
Subset1,5,,,,,,Stimuli/man_25.png,erotic_man,Stimuli/man_24.png,blue,4,3,32,0,0,0,0,,,,,0,20,20,19,,,,,1.3630232102731727,1.1088520091635847,204.99034554861464,None,204.99034554861464,None,,,,,,,,,,32,99,1,206.40822116091476,207.52584526040482,207.50916379429145,None,4,1,1.1098766181166866,None,207.50916379429145,None,False,None,None,None,0.6818027476801944,,,AU06EL20,1,0xC010,G:\Experimente\CoScience\Tasks\Logfiles\,2022_Mar_01_1114,Stroop,2020.1.3,59.94823690726359,
Subset1,5,,,,,,Stimuli/positiv_25.png,positive_man_woman,Stimuli/positiv_23.png,yellow,3,6,62,0,0,0,0,,,,,0,21,21,73,,,,,1.41037965032783,1.354995701741066,208.20976611817423,None,208.20976611817423,None,,,,,,,,,,62,99,1,209.69437401256073,211.06221572809773,211.04553367856352,None,3,1,1.3685043359855626,None,211.04553367856352,None,False,None,None,None,0.6693875479286362,,,AU06EL20,1,0xC010,G:\Experimente\CoScience\Tasks\Logfiles\,2022_Mar_01_1114,Stroop,2020.1.3,59.94823690726359,
Subset1,5,,,,,,Stimuli/woman_35.png,erotic_woman,Stimuli/woman_33.png,yellow,3,7,73,0,0,0,0,,,,,0,22,22,52,,,,,1.1753257603905842,1.1372092730671546,211.74613571073496,None,211.74613571073496,None,,,,,,,,,,73,99,1,212.99721241426596,214.1481985708524,214.1148166774401,None,3,1,1.1429111718134664,None,214.1148166774401,None,False,None,None,None,0.38708527515336755,,,AU06EL20,1,0xC010,G:\Experimente\CoScience\Tasks\Logfiles\,2022_Mar_01_1114,Stroop,2020.1.3,59.94823690726359,
Subset1,5,,,,,,Stimuli/neutral_couple_25.png,neutral_couple,Stimuli/neutral_couple_21.png,green,1,5,52,0,0,0,0,,,,,0,23,23,96,,,,,1.1989675741944281,1.0586426793791972,214.5318612064675,None,214.5318612064675,None,,,,,,,,,,52,99,1,215.7996170424285,216.86719936897134,216.85051906969966,None,1,1,1.068858414213537,None,216.85051906969966,None,False,None,None,None,0.4713382745212584,,,AU06EL20,1,0xC010,G:\Experimente\CoScience\Tasks\Logfiles\,2022_Mar_01_1114,Stroop,2020.1.3,59.94823690726359,
Subset1,5,,,,,,Stimuli/neutral_couple_15.png,neutral_couple,Stimuli/neutral_couple_11.png,green,1,5,51,0,0,0,0,,,,,0,24,24,62,,,,,1.2460576418015243,1.3741728966736533,217.35094438363922,None,217.35094438363922,None,,,,,,,,,,51,99,1,218.6520783207743,220.03658662519047,220.0199066176283,None,1,1,1.3836939069842629,None,220.0199066176283,None,False,None,None,None,0.6568638318622106,,,AU06EL20,1,0xC010,G:\Experimente\CoScience\Tasks\Logfiles\,2022_Mar_01_1114,Stroop,2020.1.3,59.94823690726359,
Subset1,5,,,,,,Stimuli/neutral_85.png,neutral_man_woman,Stimuli/neutral_83.png,yellow,3,4,48,0,0,0,0,,,,,0,25,25,10,,,,,1.4718831695265733,1.0063529123350277,220.70382835052988,None,220.70382835052988,None,,,,,,,,,,48,99,1,222.2718418252207,223.2893820871068,223.2560211968539,None,3,1,1.0109519214402098,None,223.2560211968539,None,False,None,None,None,0.43076425822800957,,,AU06EL20,1,0xC010,G:\Experimente\CoScience\Tasks\Logfiles\,2022_Mar_01_1114,Stroop,2020.1.3,59.94823690726359,
Subset1,5,,,,,,Stimuli/tree_15.png,tree,Stimuli/tree_12.png,red,2,1,11,0,0,0,0,,,,,0,26,26,25,,,,,1.2082024069238249,1.4163151045985416,223.70640648810877,None,223.70640648810877,None,,,,,,,,,,11,99,1,224.99084408189447,226.40872669524651,226.39204668768616,None,2,1,1.4258572497055866,None,226.39204668768616,None,False,None,None,None,0.4516974051766738,,,AU06EL20,1,0xC010,G:\Experimente\CoScience\Tasks\Logfiles\,2022_Mar_01_1114,Stroop,2020.1.3,59.94823690726359,
Subset1,5,,,,,,Stimuli/neutral_55.png,neutral_man_woman,Stimuli/neutral_54.png,blue,4,4,45,0,0,0,0,,,,,0,27,27,6,,,,,1.4463526866176988,1.2933893762620952,226.87579461945825,None,226.87579461945825,None,,,,,,,,,,45,99,1,228.37708456337896,229.67820128959465,229.6448395242096,None,4,1,1.2935868608910823,None,229.6448395242096,None,False,None,None,None,0.39886425425902416,,,AU06EL20,1,0xC010,G:\Experimente\CoScience\Tasks\Logfiles\,2022_Mar_01_1114,Stroop,2020.1.3,59.94823690726359,
Subset1,5,,,,,,Stimuli/man_85.png,erotic_man,Stimuli/man_83.png,yellow,3,3,38,0,0,0,0,,,,,0,28,28,28,,,,,1.202890848529656,1.4946639325853412,230.0618645086306,None,230.0618645086306,None,,,,,,,,,,38,99,1,231.32962967932872,232.83090795482894,232.8142282389781,None,3,1,1.4982074971940165,None,232.8142282389781,None,False,None,None,None,0.538436069888121,,,AU06EL20,1,0xC010,G:\Experimente\CoScience\Tasks\Logfiles\,2022_Mar_01_1114,Stroop,2020.1.3,59.94823690726359,
Subset1,5,,,,,,Stimuli/man_25.png,erotic_man,Stimuli/man_21.png,green,1,3,32,0,0,0,0,,,,,0,29,29,101,,,,,1.138232469178014,1.0795950032557937,233.38138204276765,None,233.38138204276765,None,,,,,,,,,,32,99,2,234.58241434795673,235.6666763903504,235.6499957993692,None,2,0,1.085370892425999,None,235.6499957993692,None,False,None,None,None,0.4286222278751666,,,AU06EL20,1,0xC010,G:\Experimente\CoScience\Tasks\Logfiles\,2022_Mar_01_1114,Stroop,2020.1.3,59.94823690726359,
Subset1,5,,,,,,Stimuli/man_45.png,erotic_man,Stimuli/man_44.png,blue,4,3,34,0,0,0,0,,,,,0,30,30,60,,,,,1.192086483722356,1.0543960595936996,236.10038342430926,None,236.10038342430926,None,,,,,,,,,,34,99,1,237.38481985125145,238.45240159437344,238.43572246194344,None,4,1,1.0680121619952843,None,238.43572246194344,None,False,None,None,None,0.6068491879959765,,,AU06EL20,1,0xC010,G:\Experimente\CoScience\Tasks\Logfiles\,2022_Mar_01_1114,Stroop,2020.1.3,59.94823690726359,
Subset1,5,,,,,,Stimuli/positiv_25.png,positive_man_woman,Stimuli/positiv_23.png,yellow,3,6,62,0,0,0,0,,,,,0,31,31,66,,,,,1.318512631156118,1.3791352879907666,239.06960067163527,None,239.06960067163527,None,,,,,,,,,,62,99,1,240.40409083165468,241.7886038034394,241.7886038034394,None,3,1,1.3907513762896997,None,241.7886038034394,None,False,None,None,None,0.473940040652451,,,AU06EL20,1,0xC010,G:\Experimente\CoScience\Tasks\Logfiles\,2022_Mar_01_1114,Stroop,2020.1.3,59.94823690726359,
Subset1,5,,,,,,Stimuli/positiv_35.png,positive_man_woman,Stimuli/positiv_32.png,red,2,6,63,0,0,0,0,,,,,0,32,32,14,,,,,1.095059875292757,1.377856766667839,242.28903290961352,None,242.28903290961352,None,,,,,,,,,,63,99,1,243.45670315770803,244.84122283883335,244.8078610734483,None,2,1,1.3808565262643242,None,244.8078610734483,None,False,None,None,None,0.6556357305707934,,,AU06EL20,1,0xC010,G:\Experimente\CoScience\Tasks\Logfiles\,2022_Mar_01_1114,Stroop,2020.1.3,59.94823690726359,
Subset1,5,,,,,,Stimuli/woman_15.png,erotic_woman,Stimuli/woman_14.png,blue,4,7,71,0,0,0,0,,,,,0,33,33,65,,,,,1.4304528123663602,1.4030725111591806,245.49178251463854,None,245.49178251463854,None,,,,,,,,,,71,99,2,246.97639186757806,248.3942741892206,248.37759272310723,None,3,0,1.4123888874619297,None,248.37759272310723,None,False,None,None,None,0.5208899737936008,,,AU06EL20,1,0xC010,G:\Experimente\CoScience\Tasks\Logfiles\,2022_Mar_01_1114,Stroop,2020.1.3,59.94823690726359,
Subset1,5,,,,,,Stimuli/positiv_75.png,positive_man_woman,Stimuli/positiv_71.png,green,1,6,67,0,0,0,0,,,,,0,34,34,97,,,,,1.100647093684112,1.1612956891105863,248.92806681104412,None,248.92806681104412,None,,,,,,,,,,67,99,2,250.07905413447224,251.24675442875014,251.23004291645157,None,3,0,1.172216031478456,None,251.23004291645157,None,False,None,None,None,0.49136624372658844,,,AU06EL20,1,0xC010,G:\Experimente\CoScience\Tasks\Logfiles\,2022_Mar_01_1114,Stroop,2020.1.3,59.94823690726359,
Subset1,5,,,,,,Stimuli/couple_55.png,erotic_couple,Stimuli/couple_54.png,blue,4,2,25,0,0,0,0,,,,,0,35,35,58,,,,,1.397403027723307,1.3533050653642644,251.74715290532004,None,251.74715290532004,None,,,,,,,,,,25,99,2,253.21508458438257,254.58292163255283,254.5662407498603,None,3,0,1.3599280466842174,None,254.5662407498603,None,False,None,None,None,0.689115347006009,,,AU06EL20,1,0xC010,G:\Experimente\CoScience\Tasks\Logfiles\,2022_Mar_01_1114,Stroop,2020.1.3,59.94823690726359,
Subset1,5,,,,,,Stimuli/couple_45.png,erotic_couple,Stimuli/couple_44.png,blue,4,2,24,0,0,0,0,,,,,0,36,36,111,,,,,1.4237523931727005,1.0286774094783984,255.2835242481451,None,255.2835242481451,None,,,,,,,,,,24,99,1,256.7848136086468,257.8190764678293,257.8023527036894,None,4,1,1.0418346433089027,None,257.8023527036894,None,False,None,None,None,0.7099650647469389,,,AU06EL20,1,0xC010,G:\Experimente\CoScience\Tasks\Logfiles\,2022_Mar_01_1114,Stroop,2020.1.3,59.94823690726359,
Subset1,5,,,,,,Stimuli/man_85.png,erotic_man,Stimuli/man_82.png,red,2,3,38,0,0,0,0,,,,,0,37,37,51,,,,,1.4298744847692222,1.1388054492163846,258.5363162095364,None,258.5363162095364,None,,,,,,,,,,38,99,1,260.00424467978337,261.15523258663234,261.1385517039398,None,2,1,1.152492141316543,None,261.1385517039398,None,False,None,None,None,0.5817262028394907,,,AU06EL20,1,0xC010,G:\Experimente\CoScience\Tasks\Logfiles\,2022_Mar_01_1114,Stroop,2020.1.3,59.94823690726359,
Subset1,5,,,,,,Stimuli/man_15.png,erotic_man,Stimuli/man_13.png,yellow,3,3,31,0,0,0,0,,,,,0,38,38,50,,,,,1.125788977232453,1.17693891671078,261.7390687316656,None,261.7390687316656,None,,,,,,,,,,31,99,1,262.9234175287693,264.1077689512658,264.09108777686197,None,3,1,1.1777203172878217,None,264.09108777686197,None,False,None,None,None,0.6401663216711313,,,AU06EL20,1,0xC010,G:\Experimente\CoScience\Tasks\Logfiles\,2022_Mar_01_1114,Stroop,2020.1.3,59.94823690726359,
Subset1,5,,,,,,Stimuli/couple_45.png,erotic_couple,Stimuli/couple_42.png,red,2,2,24,0,0,0,0,,,,,0,39,39,103,,,,,1.362815516662718,1.3159849065429994,264.75833679496463,None,264.75833679496463,None,,,,,,,,,,24,99,1,266.1762156160821,267.49400972446165,267.49400972446165,None,2,1,1.3257599059052154,None,267.49400972446165,None,False,None,None,None,0.5352135437697143,,,AU06EL20,1,0xC010,G:\Experimente\CoScience\Tasks\Logfiles\,2022_Mar_01_1114,Stroop,2020.1.3,59.94823690726359,
Subset1,5,,,,,,Stimuli/woman_85.png,erotic_woman,Stimuli/woman_82.png,red,2,7,78,0,0,0,0,,,,,0,40,40,0,,,,,1.4433133645414098,1.09141423502477,268.0611635282512,None,268.0611635282512,None,,,,,,,,,,78,99,1,269.56245288875107,270.66339931436414,270.6467181399603,None,2,1,1.1055756382047548,None,270.6467181399603,None,False,None,None,None,0.5704390476712433,,,AU06EL20,1,0xC010,G:\Experimente\CoScience\Tasks\Logfiles\,2022_Mar_01_1114,Stroop,2020.1.3,59.94823690726359,
Subset1,5,,,,,,Stimuli/woman_75.png,erotic_woman,Stimuli/woman_71.png,green,1,7,77,0,0,0,0,,,,,0,41,41,32,,,,,1.1221506424168062,1.0861465280839315,271.24723312571405,None,271.24723312571405,None,,,,,,,,,,77,99,1,272.4482654309031,273.5492106896745,273.5158664269202,None,1,1,1.0941327971322607,None,273.5158664269202,None,False,None,None,None,0.7862634099328716,,,AU06EL20,1,0xC010,G:\Experimente\CoScience\Tasks\Logfiles\,2022_Mar_01_1114,Stroop,2020.1.3,59.94823690726359,
Subset1,5,,,,,,Stimuli/positiv_85.png,positive_man_woman,Stimuli/positiv_81.png,green,1,6,68,0,0,0,0,,,,,0,42,42,74,,,,,1.344966919896994,1.4327299016179726,274.33321626017823,None,274.33321626017823,None,,,,,,,,,,68,99,1,275.75110237405715,277.1856664535244,277.1856664535244,None,1,1,1.446988468100244,None,277.1856664535244,None,False,None,None,None,0.4334170737001841,,,AU06EL20,1,0xC010,G:\Experimente\CoScience\Tasks\Logfiles\,2022_Mar_01_1114,Stroop,2020.1.3,59.94823690726359,
Subset1,5,,,,,,Stimuli/woman_75.png,erotic_woman,Stimuli/woman_74.png,blue,4,7,77,0,0,0,0,,,,,0,43,43,72,,,,,1.274595849447501,1.0383555425202176,277.63609375109445,None,277.63609375109445,None,,,,,,,,,,77,99,2,278.97053257006337,280.021434305625,279.98808070813357,None,2,0,1.0454456403276708,None,279.98808070813357,None,False,None,None,None,0.6020295467751566,,,AU06EL20,1,0xC010,G:\Experimente\CoScience\Tasks\Logfiles\,2022_Mar_01_1114,Stroop,2020.1.3,59.94823690726359,
Subset1,5,,,,,,Stimuli/positiv_25.png,positive_man_woman,Stimuli/positiv_22.png,red,2,6,62,0,0,0,0,,,,,0,44,44,107,,,,,1.197632580381279,1.1619659357298167,280.621952208483,None,280.621952208483,None,,,,,,,,,,62,99,1,281.8730265783288,283.04069390931727,283.0073566476167,None,2,1,1.162158436152822,None,283.0073566476167,None,False,None,None,None,0.6906337002656073,,,AU06EL20,1,0xC010,G:\Experimente\CoScience\Tasks\Logfiles\,2022_Mar_01_1114,Stroop,2020.1.3,59.94823690726359,
Subset1,5,,,,,,Stimuli/neutral_couple_35.png,neutral_couple,Stimuli/neutral_couple_32.png,red,2,5,53,0,0,0,0,,,,,0,45,45,49,,,,,1.1806884628417555,1.0182807334310775,283.7246165173492,None,283.7246165173492,None,,,,,,,,,,53,99,1,285.0757817258527,286.0933193623441,286.0766358542569,None,2,1,1.020843971045906,None,286.0766358542569,None,False,None,None,None,0.4523254579271452,,,AU06EL20,1,0xC010,G:\Experimente\CoScience\Tasks\Logfiles\,2022_Mar_01_1114,Stroop,2020.1.3,59.94823690726359,
Subset1,5,,,,,,Stimuli/neutral_85.png,neutral_man_woman,Stimuli/neutral_83.png,yellow,3,4,48,0,0,0,0,,,,,0,46,46,4,,,,,1.0377494293718028,1.2516209977078945,286.56039137050357,None,286.56039137050357,None,,,,,,,,,,48,99,1,287.6446464118435,288.89572369879716,288.8790425243933,None,3,1,1.255224127027759,None,288.8790425243933,None,False,None,None,None,0.5418767954779469,,,AU06EL20,1,0xC010,G:\Experimente\CoScience\Tasks\Logfiles\,2022_Mar_01_1114,Stroop,2020.1.3,59.94823690726359,
Subset1,5,,,,,,Stimuli/neutral_85.png,neutral_man_woman,Stimuli/neutral_84.png,blue,4,4,48,0,0,0,0,,,,,0,47,47,94,,,,,1.4760276328573416,1.2161435406451593,289.4461957447602,None,289.4461957447602,None,,,,,,,,,,48,99,1,290.98084716235644,292.1985594751077,292.1818788841265,None,4,1,1.2212703643108398,None,292.1818788841265,None,False,None,None,None,0.6609988284890278,,,AU06EL20,1,0xC010,G:\Experimente\CoScience\Tasks\Logfiles\,2022_Mar_01_1114,Stroop,2020.1.3,59.94823690726359,
Subset1,5,,,,,,Stimuli/tree_35.png,tree,Stimuli/tree_33.png,yellow,3,1,13,0,0,0,0,,,,,0,48,48,109,,,,,1.3403154496767167,1.36666752545863,292.8658128688676,None,292.8658128688676,None,,,,,,,,,,13,99,1,294.2670040979501,295.6348533979617,295.6181640556624,None,3,1,1.3695599488473817,None,295.6181640556624,None,False,None,None,None,0.7536872209802823,,,AU06EL20,1,0xC010,G:\Experimente\CoScience\Tasks\Logfiles\,2022_Mar_01_1114,Stroop,2020.1.3,59.94823690726359,
Subset1,5,,,,,,Stimuli/couple_55.png,erotic_couple,Stimuli/couple_52.png,red,2,2,25,0,0,0,0,,,,,0,49,49,82,,,,,1.135542697112714,1.104259865532749,296.40217079300965,None,296.40217079300965,None,,,,,,,,,,25,99,1,297.6032016396475,298.7208277811096,298.704151857497,None,2,1,1.1032679162781278,None,298.704151857497,None,False,None,None,None,0.7903342302452074,,,AU06EL20,1,0xC010,G:\Experimente\CoScience\Tasks\Logfiles\,2022_Mar_01_1114,Stroop,2020.1.3,59.94823690726359,
Subset1,5,,,,,,Stimuli/man_75.png,erotic_man,Stimuli/man_73.png,yellow,3,3,37,0,0,0,0,,,,,0,50,50,42,,,,,1.144254796843264,1.1628409875426233,299.50483481016636,None,299.50483481016636,None,,,,,,,,,,37,99,2,300.72254916489146,301.89021562074777,301.8735350297666,None,4,0,1.1696569425930647,None,301.8735350297666,None,False,None,None,None,0.5212207735221455,,,AU06EL20,1,0xC010,G:\Experimente\CoScience\Tasks\Logfiles\,2022_Mar_01_1114,Stroop,2020.1.3,59.94823690726359,
Subset1,5,,,,,,Stimuli/woman_85.png,erotic_woman,Stimuli/woman_82.png,red,2,7,78,0,0,0,0,,,,,0,51,51,31,,,,,1.071467111826408,1.2970099554498669,302.4240082425731,None,302.4240082425731,None,,,,,,,,,,78,99,2,303.54163467574654,304.8427525688039,304.809400721575,None,3,0,1.2999667741714802,None,304.809400721575,None,False,None,None,None,0.6033352430640662,,,AU06EL20,1,0xC010,G:\Experimente\CoScience\Tasks\Logfiles\,2022_Mar_01_1114,Stroop,2020.1.3,59.94823690726359,
Subset1,5,,,,,,Stimuli/neutral_65.png,neutral_man_woman,Stimuli/neutral_63.png,yellow,3,4,46,0,0,0,0,,,,,0,52,52,92,,,,,1.1077873028461764,1.3597453927097174,305.44326726284635,None,305.44326726284635,None,,,,,,,,,,46,99,1,306.62761926876374,307.9954601091704,307.96209863549484,None,3,1,1.3663774745800765,None,307.96209863549484,None,False,None,None,None,0.645587761693605,,,AU06EL20,1,0xC010,G:\Experimente\CoScience\Tasks\Logfiles\,2022_Mar_01_1114,Stroop,2020.1.3,59.94823690726359,
Subset1,5,,,,,,Stimuli/man_25.png,erotic_man,Stimuli/man_21.png,green,1,3,32,0,0,0,0,,,,,0,53,53,34,,,,,1.2698532093134505,1.4686639391304692,308.6293394857021,None,308.6293394857021,None,,,,,,,,,,32,99,1,309.9471347609251,311.41506614827813,311.3983829319004,None,1,1,1.4723045947921491,None,311.3983829319004,None,False,None,None,None,0.5612507496953185,,,AU06EL20,1,0xC010,G:\Experimente\CoScience\Tasks\Logfiles\,2022_Mar_01_1114,Stroop,2020.1.3,59.94823690726359,
Subset1,5,,,,,,Stimuli/neutral_45.png,neutral_man_woman,Stimuli/neutral_44.png,blue,4,4,44,0,0,0,0,,,,,0,54,54,27,,,,,1.4885160159732589,1.0558235184459532,311.9822164515408,None,311.9822164515408,None,,,,,,,,,,44,99,2,313.53355079380344,314.60113428718796,314.56777193838207,None,3,0,1.0557287278861622,None,314.56777193838207,None,False,None,None,None,0.8348265022505075,,,AU06EL20,1,0xC010,G:\Experimente\CoScience\Tasks\Logfiles\,2022_Mar_01_1114,Stroop,2020.1.3,59.94823690726359,
Subset1,5,,,,,,Stimuli/tree_25.png,tree,Stimuli/tree_23.png,yellow,3,1,12,0,0,0,0,,,,,0,55,55,64,,,,,1.0984454076099106,1.184414892984833,315.41850191478807,None,315.41850191478807,None,,,,,,,,,,12,99,1,316.5694921553204,317.75384241097527,317.75384241097527,None,3,1,1.1962401431010221,None,317.75384241097527,None,False,None,None,None,0.6807167094120814,,,AU06EL20,1,0xC010,G:\Experimente\CoScience\Tasks\Logfiles\,2022_Mar_01_1114,Stroop,2020.1.3,59.94823690726359,
Subset1,5,,,,,,Stimuli/neutral_couple_15.png,neutral_couple,Stimuli/neutral_couple_14.png,blue,4,5,51,0,0,0,0,,,,,0,56,56,110,,,,,1.0839814403518018,1.4956419255477311,318.45444210946334,None,318.45444210946334,None,,,,,,,,,,51,99,1,319.5887517590145,321.09003966096316,321.07335790313846,None,4,1,1.5011117671365355,None,321.07335790313846,None,False,None,None,None,0.28315960999316303,,,AU06EL20,1,0xC010,G:\Experimente\CoScience\Tasks\Logfiles\,2022_Mar_01_1114,Stroop,2020.1.3,59.94823690726359,
Subset1,5,,,,,,Stimuli/tree_85.png,tree,Stimuli/tree_81.png,green,1,1,18,0,0,0,0,,,,,0,57,57,46,,,,,1.2882250093643,1.0411810439217741,321.3736193341065,None,321.3736193341065,None,,,,,,,,,,18,99,1,322.6914186932772,323.7423172200215,323.7423172200215,None,1,1,1.056177787060733,None,323.7423172200215,None,False,None,None,None,0.40716604396220646,,,AU06EL20,1,0xC010,G:\Experimente\CoScience\Tasks\Logfiles\,2022_Mar_01_1114,Stroop,2020.1.3,59.94823690726359,
Subset1,5,,,,,,Stimuli/couple_35.png,erotic_couple,Stimuli/couple_34.png,blue,4,2,23,0,0,0,0,,,,,0,58,58,69,,,,,1.3686883917736072,1.2203540224321896,324.17602308713685,None,324.17602308713685,None,,,,,,,,,,23,99,1,325.6105912505518,326.84498152888955,326.8283018130387,None,4,1,1.2282099533967994,None,326.8283018130387,None,False,None,None,None,0.8121168382313044,,,AU06EL20,1,0xC010,G:\Experimente\CoScience\Tasks\Logfiles\,2022_Mar_01_1114,Stroop,2020.1.3,59.94823690726359,
Subset1,5,,,,,,Stimuli/tree_25.png,tree,Stimuli/tree_24.png,blue,4,1,12,0,0,0,0,,,,,0,59,59,93,,,,,1.346175459675707,1.0409290496613108,327.66235032333134,None,327.66235032333134,None,,,,,,,,,,12,99,1,329.04687408840437,330.09777640738685,330.0644134751601,None,4,1,1.0404961004132929,None,330.0644134751601,None,False,None,None,None,0.6659984551006346,,,AU06EL20,1,0xC010,G:\Experimente\CoScience\Tasks\Logfiles\,2022_Mar_01_1114,Stroop,2020.1.3,59.94823690726359,
Subset1,5,,,,,,Stimuli/couple_25.png,erotic_couple,Stimuli/couple_23.png,yellow,3,2,22,0,0,0,0,,,,,0,60,60,48,,,,,1.4232648325272823,1.225795380636951,330.74833608319204,None,330.74833608319204,None,,,,,,,,,,22,99,1,332.26630661809577,333.50069893840737,333.48401805571484,None,3,1,1.2310040442753234,None,333.48401805571484,None,False,None,None,None,0.6063171080040775,,,AU06EL20,1,0xC010,G:\Experimente\CoScience\Tasks\Logfiles\,2022_Mar_01_1114,Stroop,2020.1.3,59.94823690726359,
Subset1,5,,,,,,Stimuli/woman_55.png,erotic_woman,Stimuli/woman_54.png,blue,4,7,75,0,0,0,0,,,,,0,61,61,106,,,,,1.1840378622566694,1.1745508716401791,334.1179076421158,None,334.1179076421158,None,,,,,,,,,,75,99,1,335.3689904715684,336.5533211826187,336.53663884137313,None,4,1,1.1848027570158592,None,336.53663884137313,None,False,None,None,None,0.6266712095712137,,,AU06EL20,1,0xC010,G:\Experimente\CoScience\Tasks\Logfiles\,2022_Mar_01_1114,Stroop,2020.1.3,59.94823690726359,
Subset1,5,,,,,,Stimuli/man_45.png,erotic_man,Stimuli/man_42.png,red,2,3,34,0,0,0,0,,,,,0,62,62,77,,,,,1.476842489037361,1.4072339603072876,337.18720026744086,None,337.18720026744086,None,,,,,,,,,,34,99,1,338.7218519767466,340.13973488181,340.10637019932074,None,2,1,1.411866433920295,None,340.10637019932074,None,False,None,None,None,0.5399024986763834,,,AU06EL20,1,0xC010,G:\Experimente\CoScience\Tasks\Logfiles\,2022_Mar_01_1114,Stroop,2020.1.3,59.94823690726359,
Subset1,5,,,,,,Stimuli/couple_15.png,erotic_couple,Stimuli/couple_12.png,red,2,2,21,0,0,0,0,,,,,0,63,63,21,,,,,1.0520215882479054,1.297988272623812,340.673527211924,None,340.673527211924,None,,,,,,,,,,21,99,1,341.80783569463347,343.10894833689963,343.0922686210488,None,2,1,1.3134302648504672,None,343.0922686210488,None,False,None,None,None,0.5769509016190568,,,AU06EL20,1,0xC010,G:\Experimente\CoScience\Tasks\Logfiles\,2022_Mar_01_1114,Stroop,2020.1.3,59.94823690726359,
Subset1,5,,,,,,Stimuli/couple_85.png,erotic_couple,Stimuli/couple_82.png,red,2,2,28,0,0,0,0,,,,,0,64,64,90,,,,,1.304926913844528,1.0153972931181654,343.6927859404859,None,343.6927859404859,None,,,,,,,,,,28,99,1,345.1440323611987,346.16161171229396,346.14489290723395,None,2,1,1.0237766535901756,None,346.14489290723395,None,False,None,None,None,0.48430801597169193,,,AU06EL20,1,0xC010,G:\Experimente\CoScience\Tasks\Logfiles\,2022_Mar_01_1114,Stroop,2020.1.3,59.94823690726359,
Subset1,5,,,,,,Stimuli/positiv_45.png,positive_man_woman,Stimuli/positiv_41.png,green,1,6,64,0,0,0,0,,,,,0,65,65,26,,,,,1.3018957639745878,1.2988523359819921,346.64532259683074,None,346.64532259683074,None,,,,,,,,,,64,99,1,348.0131611035522,349.3142807468721,349.2976182419425,None,1,1,1.3029333534796024,None,349.2976182419425,None,False,None,None,None,0.6715222855182219,,,AU06EL20,1,0xC010,G:\Experimente\CoScience\Tasks\Logfiles\,2022_Mar_01_1114,Stroop,2020.1.3,59.94823690726359,
Subset1,5,,,,,,Stimuli/man_15.png,erotic_man,Stimuli/man_12.png,red,2,3,31,0,0,0,0,,,,,0,66,66,80,,,,,1.4620024158374794,1.25315803062939,349.9982030631945,None,349.9982030631945,None,,,,,,,,,,31,99,1,351.4994909651414,352.7672468011024,352.7338742424272,None,2,1,1.2569677683204645,None,352.7338742424272,None,False,None,None,None,0.541244950491091,,,AU06EL20,1,0xC010,G:\Experimente\CoScience\Tasks\Logfiles\,2022_Mar_01_1114,Stroop,2020.1.3,59.94823690726359,
Subset1,5,,,,,,Stimuli/positiv_85.png,positive_man_woman,Stimuli/positiv_81.png,green,1,6,68,0,0,0,0,,,,,0,67,67,91,,,,,1.132879272445613,1.2390218172835614,353.30103767266337,None,353.30103767266337,None,,,,,,,,,,68,99,1,354.4687093793109,355.71978287402635,355.6864199417978,None,1,1,1.247871359160854,None,355.6864199417978,None,False,None,None,None,0.5136578865676711,,,AU06EL20,1,0xC010,G:\Experimente\CoScience\Tasks\Logfiles\,2022_Mar_01_1114,Stroop,2020.1.3,59.94823690726359,
Subset1,5,,,,,,Stimuli/neutral_couple_55.png,neutral_couple,Stimuli/neutral_couple_53.png,yellow,3,5,55,0,0,0,0,,,,,0,68,68,16,,,,,1.1679111560202025,1.4001651600620308,356.22021139677963,None,356.22021139677963,None,,,,,,,,,,55,99,2,357.4712901422845,358.87248953926064,358.87248953926064,None,2,0,1.407871633369723,None,358.87248953926064,None,False,None,None,None,0.6285326144025021,,,AU06EL20,1,0xC010,G:\Experimente\CoScience\Tasks\Logfiles\,2022_Mar_01_1114,Stroop,2020.1.3,59.94823690726359,
Subset1,5,,,,,,Stimuli/man_25.png,erotic_man,Stimuli/man_23.png,yellow,3,3,32,0,0,0,0,,,,,0,69,69,56,,,,,1.2378650643983635,1.4509404353918607,359.52304921506584,None,359.52304921506584,None,,,,,,,,,,32,99,1,360.8241656495702,362.2754231552808,362.25873118758864,None,3,1,1.4646774148386612,None,362.25873118758864,None,False,None,None,None,0.4392337814788334,,,AU06EL20,1,0xC010,G:\Experimente\CoScience\Tasks\Logfiles\,2022_Mar_01_1114,Stroop,2020.1.3,59.94823690726359,
Subset1,5,,,,,,Stimuli/couple_75.png,erotic_couple,Stimuli/couple_72.png,red,2,2,27,0,0,0,0,,,,,0,70,70,24,,,,,1.261127193224644,1.025226312976094,362.7258005703534,None,362.7258005703534,None,,,,,,,,,,27,99,1,364.0769637368812,365.1111813809348,365.0945098329794,None,2,1,1.0340944838717405,None,365.0945098329794,None,False,None,None,None,0.6544213396737177,,,AU06EL20,1,0xC010,G:\Experimente\CoScience\Tasks\Logfiles\,2022_Mar_01_1114,Stroop,2020.1.3,59.94823690726359,
Subset1,5,,,,,,Stimuli/positiv_35.png,positive_man_woman,Stimuli/positiv_33.png,yellow,3,6,63,0,0,0,0,,,,,0,71,71,87,,,,,1.4062469685146934,1.425625097674455,365.77841989745866,None,365.77841989745866,None,,,,,,,,,,63,99,1,367.24635099310035,368.68091478085626,368.66423418987324,None,3,1,1.4360883252793428,None,368.66423418987324,None,False,None,None,None,0.6326576928731811,,,AU06EL20,1,0xC010,G:\Experimente\CoScience\Tasks\Logfiles\,2022_Mar_01_1114,Stroop,2020.1.3,59.94823690726359,
Subset1,5,,,,,,Stimuli/tree_55.png,tree,Stimuli/tree_54.png,blue,4,1,15,0,0,0,0,,,,,0,72,72,78,,,,,1.1637317230492958,1.4061424187597777,369.314798533047,None,369.314798533047,None,,,,,,,,,,15,99,1,370.5491899782264,371.9670687993439,371.95039025033475,None,4,1,1.4066551129853906,None,371.95039025033475,None,False,None,None,None,0.6574603798781027,,,AU06EL20,1,0xC010,G:\Experimente\CoScience\Tasks\Logfiles\,2022_Mar_01_1114,Stroop,2020.1.3,59.94823690726359,
Subset1,5,,,,,,Stimuli/neutral_couple_35.png,neutral_couple,Stimuli/neutral_couple_33.png,yellow,3,5,53,0,0,0,0,,,,,0,73,73,23,,,,,1.187274744097296,1.210065694973605,372.6343090661303,None,372.6343090661303,None,,,,,,,,,,53,99,1,373.8853848945291,375.1031094591217,375.0864160328765,None,3,1,1.2250544331836863,None,375.0864160328765,None,False,None,None,None,0.5493991346702387,,,AU06EL20,1,0xC010,G:\Experimente\CoScience\Tasks\Logfiles\,2022_Mar_01_1114,Stroop,2020.1.3,59.94823690726359,
Subset1,5,,,,,,Stimuli/man_75.png,erotic_man,Stimuli/man_73.png,yellow,3,3,37,0,0,0,0,,,,,0,74,74,89,,,,,1.2771892821295654,1.4646242011840442,375.65356983666607,None,375.65356983666607,None,,,,,,,,,,37,99,1,376.97136715386296,378.4392953323986,378.4226144497061,None,3,1,1.4734084274005,None,378.4226144497061,None,False,None,None,None,0.5401586205134663,,,AU06EL20,1,0xC010,G:\Experimente\CoScience\Tasks\Logfiles\,2022_Mar_01_1114,Stroop,2020.1.3,59.94823690726359,
Subset1,5,,,,,,Stimuli/tree_15.png,tree,Stimuli/tree_12.png,red,2,1,11,0,0,0,0,,,,,0,75,75,86,,,,,1.0807574027951605,1.4621810299891251,378.98976971204684,None,378.98976971204684,None,,,,,,,,,,11,99,1,380.1073923529839,381.57532957454714,381.55864139909136,None,2,1,1.4724533671578683,None,381.55864139909136,None,False,None,None,None,0.6850944091929705,,,AU06EL20,1,0xC010,G:\Experimente\CoScience\Tasks\Logfiles\,2022_Mar_01_1114,Stroop,2020.1.3,59.94823690726359,
Subset1,5,,,,,,Stimuli/neutral_couple_45.png,neutral_couple,Stimuli/neutral_couple_42.png,red,2,5,54,0,0,0,0,,,,,0,76,76,38,,,,,1.1964133363554674,1.2854047482199993,382.27592489737617,None,382.27592489737617,None,,,,,,,,,,54,99,1,383.543679858205,384.82811570172817,384.81143656929817,None,2,1,1.2979095148966735,None,384.81143656929817,None,False,None,None,None,0.433241463966624,,,AU06EL20,1,0xC010,G:\Experimente\CoScience\Tasks\Logfiles\,2022_Mar_01_1114,Stroop,2020.1.3,59.94823690726359,
Subset1,5,,,,,,Stimuli/couple_65.png,erotic_couple,Stimuli/couple_62.png,red,2,2,26,0,0,0,0,,,,,0,77,77,98,,,,,1.3375538663605726,1.343893313363479,385.261821860553,None,385.261821860553,None,,,,,,,,,,26,99,1,386.6630270917394,388.01418354892667,387.99750441649667,None,2,1,1.3578247263158119,None,387.99750441649667,None,False,None,None,None,0.42812573656919994,,,AU06EL20,1,0xC010,G:\Experimente\CoScience\Tasks\Logfiles\,2022_Mar_01_1114,Stroop,2020.1.3,59.94823690726359,
Subset1,5,,,,,,Stimuli/woman_55.png,erotic_woman,Stimuli/woman_51.png,green,1,7,75,0,0,0,0,,,,,0,78,78,12,,,,,1.3037870142397336,1.1830103338459392,388.4478929165689,None,388.4478929165689,None,,,,,,,,,,75,99,1,389.8490961057814,391.03344548630594,391.0167657704551,None,1,1,1.1978701048046787,None,391.0167657704551,None,False,None,None,None,0.6418386980858486,,,AU06EL20,1,0xC010,G:\Experimente\CoScience\Tasks\Logfiles\,2022_Mar_01_1114,Stroop,2020.1.3,59.94823690726359,
Subset1,5,,,,,,Stimuli/positiv_15.png,positive_man_woman,Stimuli/positiv_14.png,blue,4,6,61,0,0,0,0,,,,,0,79,79,104,,,,,1.0491952333837562,1.3963357644157712,391.6840045786885,None,391.6840045786885,None,,,,,,,,,,61,99,1,392.80163159528274,394.2028336176536,394.1861544852254,None,4,1,1.4106839269843476,None,394.1861544852254,None,False,None,None,None,0.6864103153511678,,,AU06EL20,1,0xC010,G:\Experimente\CoScience\Tasks\Logfiles\,2022_Mar_01_1114,Stroop,2020.1.3,59.94823690726359,
Subset1,5,,,,,,Stimuli/man_25.png,erotic_man,Stimuli/man_22.png,red,2,3,32,0,0,0,0,,,,,0,80,80,108,,,,,1.2305479793493834,1.0881273747728037,394.9034362332477,None,394.9034362332477,None,,,,,,,,,,32,99,1,396.1878738270316,397.28881908580297,397.2554570287066,None,2,1,1.0919542154515511,None,397.2554570287066,None,False,None,None,None,0.5740868877292087,,,AU06EL20,1,0xC010,G:\Experimente\CoScience\Tasks\Logfiles\,2022_Mar_01_1114,Stroop,2020.1.3,59.94823690726359,
Subset1,5,,,,,,Stimuli/neutral_35.png,neutral_man_woman,Stimuli/neutral_33.png,yellow,3,4,43,0,0,0,0,,,,,0,81,81,2,,,,,1.465360888823088,1.3898600340937108,397.85597201446035,None,397.85597201446035,None,,,,,,,,,,43,99,1,399.39062284863576,400.7918274964013,400.75846689785794,None,3,1,1.3941334388928226,None,400.75846689785794,None,False,None,None,None,0.570020151362769,,,AU06EL20,1,0xC010,G:\Experimente\CoScience\Tasks\Logfiles\,2022_Mar_01_1114,Stroop,2020.1.3,59.94823690726359,
Subset1,5,,,,,,Stimuli/woman_45.png,erotic_woman,Stimuli/woman_42.png,red,2,7,74,0,0,0,0,,,,,0,82,82,100,,,,,1.4078315741702532,1.1834042854099631,401.35898275874206,None,401.35898275874206,None,,,,,,,,,,74,99,2,402.8102262623488,403.9945779765567,403.97789592702065,None,4,0,1.1890207161141007,None,403.97789592702065,None,False,None,None,None,0.5575681960854126,,,AU06EL20,1,0xC010,G:\Experimente\CoScience\Tasks\Logfiles\,2022_Mar_01_1114,Stroop,2020.1.3,59.94823690726359,
Subset1,5,,,,,,Stimuli/neutral_85.png,neutral_man_woman,Stimuli/neutral_81.png,green,1,4,48,0,0,0,0,,,,,0,83,83,41,,,,,1.374664091265528,1.0822729533166573,404.56173207205575,None,404.56173207205575,None,,,,,,,,,,48,99,1,406.0296940890112,407.1139222929851,407.09724286884557,None,1,1,1.0858127171795786,None,407.09724286884557,None,False,None,None,None,0.6711483126309759,,,AU06EL20,1,0xC010,G:\Experimente\CoScience\Tasks\Logfiles\,2022_Mar_01_1114,Stroop,2020.1.3,59.94823690726359,
Subset1,5,,,,,,Stimuli/man_75.png,erotic_man,Stimuli/man_74.png,blue,4,3,37,0,0,0,0,,,,,0,84,84,95,,,,,1.2222428046218075,1.4693313453035752,407.7978457761492,None,407.7978457761492,None,,,,,,,,,,37,99,1,409.08228191138187,410.56690030734717,410.53353008235536,None,4,1,1.4736536392629205,None,410.53353008235536,None,False,None,None,None,0.6618304951844038,,,AU06EL20,1,0xC010,G:\Experimente\CoScience\Tasks\Logfiles\,2022_Mar_01_1114,Stroop,2020.1.3,59.94823690726359,
Subset1,5,,,,,,Stimuli/couple_35.png,erotic_couple,Stimuli/couple_33.png,yellow,3,2,23,0,0,0,0,,,,,0,85,85,57,,,,,1.1645091026384762,1.1880480115668024,411.2174500649926,None,411.2174500649926,None,,,,,,,,,,23,99,1,412.45185113662046,413.65287323194207,413.6195108831362,None,3,1,1.1874797844611749,None,413.6195108831362,None,False,None,None,None,0.9498176225824864,,,AU06EL20,1,0xC010,G:\Experimente\CoScience\Tasks\Logfiles\,2022_Mar_01_1114,Stroop,2020.1.3,59.94823690726359,
Subset1,5,,,,,,Stimuli/neutral_couple_75.png,neutral_couple,Stimuli/neutral_couple_73.png,yellow,3,5,57,0,0,0,0,,,,,0,86,86,84,,,,,1.181692623393209,1.2665837121705783,414.5870099554977,None,414.5870099554977,None,,,,,,,,,,57,99,1,415.8214031509415,417.08916686308476,417.08916686308476,None,3,1,1.280277276684501,None,417.08916686308476,None,False,None,None,None,0.562118005072989,,,AU06EL20,1,0xC010,G:\Experimente\CoScience\Tasks\Logfiles\,2022_Mar_01_1114,Stroop,2020.1.3,59.94823690726359,
Subset1,5,,,,,,Stimuli/tree_45.png,tree,Stimuli/tree_41.png,green,1,1,14,0,0,0,0,,,,,0,87,87,9,,,,,1.0955062607961092,1.2565752394238954,417.67299367338273,None,417.67299367338273,None,,,,,,,,,,14,99,1,418.84066304634507,420.1084156734905,420.09173712448137,None,1,1,1.2705157675372902,None,420.09173712448137,None,False,None,None,None,0.5625083137492766,,,AU06EL20,1,0xC010,G:\Experimente\CoScience\Tasks\Logfiles\,2022_Mar_01_1114,Stroop,2020.1.3,59.94823690726359,
Subset1,5,,,,,,Stimuli/man_65.png,erotic_man,Stimuli/man_64.png,blue,4,3,36,0,0,0,0,,,,,0,88,88,76,,,,,1.2185385043669035,1.3093804023229376,420.6755630596472,None,420.6755630596472,None,,,,,,,,,,36,99,1,421.97669174599287,423.2944957725322,423.2611275895142,None,4,1,1.3100424263775494,None,423.2611275895142,None,False,None,None,None,0.6010919891632511,,,AU06EL20,1,0xC010,G:\Experimente\CoScience\Tasks\Logfiles\,2022_Mar_01_1114,Stroop,2020.1.3,59.94823690726359,
Subset1,5,,,,,,Stimuli/tree_25.png,tree,Stimuli/tree_23.png,yellow,3,1,12,0,0,0,0,,,,,0,89,89,75,,,,,1.4201507591950575,1.3573003979539058,423.87832520822303,None,423.87832520822303,None,,,,,,,,,,12,99,1,425.3295742543305,426.6974078019739,426.6974078019739,None,3,1,1.3724882557362434,None,426.6974078019739,None,False,None,None,None,0.4447462351836293,,,AU06EL20,1,0xC010,G:\Experimente\CoScience\Tasks\Logfiles\,2022_Mar_01_1114,Stroop,2020.1.3,59.94823690726359,
Subset1,5,,,,,,Stimuli/positiv_75.png,positive_man_woman,Stimuli/positiv_74.png,blue,4,6,67,0,0,0,0,,,,,0,90,90,30,,,,,1.2527568824771675,1.165387512366741,427.164479518422,None,427.164479518422,None,,,,,,,,,,67,99,1,428.4822797527231,429.6499473754229,429.6499473754229,None,4,1,1.1786432893750316,None,429.6499473754229,None,False,None,None,None,0.6631639039751462,,,AU06EL20,1,0xC010,G:\Experimente\CoScience\Tasks\Logfiles\,2022_Mar_01_1114,Stroop,2020.1.3,59.94823690726359,
Subset1,5,,,,,,Stimuli/man_75.png,erotic_man,Stimuli/man_74.png,blue,4,3,37,0,0,0,0,,,,,0,91,91,13,,,,,1.2379051579850244,1.2717076820262379,430.3338597735856,None,430.3338597735856,None,,,,,,,,,,37,99,1,431.6016275696784,432.88605816241034,432.86937902998034,None,4,1,1.2739478584935569,None,432.86937902998034,None,False,None,None,None,0.5776810530514922,,,AU06EL20,1,0xC010,G:\Experimente\CoScience\Tasks\Logfiles\,2022_Mar_01_1114,Stroop,2020.1.3,59.94823690726359,
Subset1,5,,,,,,Stimuli/neutral_35.png,neutral_man_woman,Stimuli/neutral_31.png,green,1,4,43,0,0,0,0,,,,,0,92,92,55,,,,,1.1602540459383455,1.497970858759869,433.4698957659966,None,433.4698957659966,None,,,,,,,,,,43,99,1,434.68760895388004,436.18889627240605,436.1722145145832,None,1,1,1.5022742335604562,None,436.1722145145832,None,False,None,None,None,0.6028095807068894,,,AU06EL20,1,0xC010,G:\Experimente\CoScience\Tasks\Logfiles\,2022_Mar_01_1114,Stroop,2020.1.3,59.94823690726359,
Subset1,5,,,,,,Stimuli/tree_55.png,tree,Stimuli/tree_52.png,red,2,1,15,0,0,0,0,,,,,0,93,93,53,,,,,1.117094392510295,1.2543070388254778,436.80609476624704,None,436.80609476624704,None,,,,,,,,,,15,99,1,437.9904450219019,439.2581996910212,439.224837050504,None,2,1,1.2600046498646407,None,439.224837050504,None,False,None,None,None,0.8241496054906747,,,AU06EL20,1,0xC010,G:\Experimente\CoScience\Tasks\Logfiles\,2022_Mar_01_1114,Stroop,2020.1.3,59.94823690726359,
Subset1,5,,,,,,Stimuli/couple_35.png,erotic_couple,Stimuli/couple_34.png,blue,4,2,23,0,0,0,0,,,,,0,94,94,40,,,,,1.010577003378156,1.125603960781119,440.07556906888385,None,440.07556906888385,None,,,,,,,,,,23,99,1,441.1264815977338,442.2607789954418,442.22741606321506,None,4,1,1.1333851897397835,None,442.22741606321506,None,False,None,None,None,0.8505418231197837,,,AU06EL20,1,0xC010,G:\Experimente\CoScience\Tasks\Logfiles\,2022_Mar_01_1114,Stroop,2020.1.3,59.94823690726359,
Subset1,5,,,,,,Stimuli/tree_15.png,tree,Stimuli/tree_11.png,green,1,1,11,0,0,0,0,,,,,0,95,95,15,,,,,1.0891329196929305,1.4035205548808916,443.0948292559988,None,443.0948292559988,None,,,,,,,,,,11,99,2,444.2625000875141,445.68038240915666,445.66371231975245,None,3,0,1.4174822406639578,None,445.66371231975245,None,False,None,None,None,0.4522227758225199,,,AU06EL20,1,0xC010,G:\Experimente\CoScience\Tasks\Logfiles\,2022_Mar_01_1114,Stroop,2020.1.3,59.94823690726359,
Subset1,5,,,,,,Stimuli/neutral_25.png,neutral_man_woman,Stimuli/neutral_24.png,blue,4,4,42,0,0,0,0,,,,,0,96,96,67,,,,,1.0907741251102065,1.4521644411778363,446.1474506250779,None,446.1474506250779,None,,,,,,,,,,42,99,1,447.3151205814611,448.76636583533036,448.749682910664,None,4,1,1.4602169567824603,None,448.749682910664,None,False,None,None,None,0.7121762304923323,,,AU06EL20,1,0xC010,G:\Experimente\CoScience\Tasks\Logfiles\,2022_Mar_01_1114,Stroop,2020.1.3,59.94823690726359,
Subset1,5,,,,,,Stimuli/woman_75.png,erotic_woman,Stimuli/woman_72.png,red,2,7,77,0,0,0,0,,,,,0,97,97,29,,,,,1.3082196652885836,1.1726461655155216,449.4836469999318,None,449.4836469999318,None,,,,,,,,,,77,99,1,450.8514913408653,452.0358415965202,452.0191586718538,None,2,1,1.1833882527025708,None,452.0191586718538,None,False,None,None,None,0.7126505517990154,,,AU06EL20,1,0xC010,G:\Experimente\CoScience\Tasks\Logfiles\,2022_Mar_01_1114,Stroop,2020.1.3,59.94823690726359,
Subset1,5,,,,,,Stimuli/neutral_15.png,neutral_man_woman,Stimuli/neutral_14.png,blue,4,4,41,0,0,0,0,,,,,0,98,98,1,,,,,1.222467982470406,1.4179069481682687,452.75312421967465,None,452.75312421967465,None,,,,,,,,,,41,99,1,454.004201214917,455.4220809111648,455.4220809111648,None,4,1,1.4239620356238447,None,455.4220809111648,None,False,None,None,None,0.48471874438473606,,,AU06EL20,1,0xC010,G:\Experimente\CoScience\Tasks\Logfiles\,2022_Mar_01_1114,Stroop,2020.1.3,59.94823690726359,
Subset1,5,,,,,,Stimuli/neutral_85.png,neutral_man_woman,Stimuli/neutral_82.png,red,2,4,48,0,0,0,0,,,,,0,99,99,83,,,,,1.0908362505865739,1.4984794631035574,455.93918360727,None,455.93918360727,None,,,,,,,,,,48,99,1,457.09018289082815,458.5914707927768,458.57479049350513,None,2,1,1.501240994895852,None,458.57479049350513,None,False,None,None,None,0.583913156611743,,,AU06EL20,1,0xC010,G:\Experimente\CoScience\Tasks\Logfiles\,2022_Mar_01_1114,Stroop,2020.1.3,59.94823690726359,
Subset1,5,,,,,,Stimuli/man_75.png,erotic_man,Stimuli/man_72.png,red,2,3,37,0,0,0,0,,,,,0,100,100,45,,,,,1.3597036764659003,1.3242159161961293,459.1753159808359,None,459.1753159808359,None,,,,,,,,,,37,99,1,460.5931913014265,461.9276709598671,461.8943100696142,None,2,1,1.333223902995087,None,461.8943100696142,None,False,None,None,None,0.3823808595898299,,,AU06EL20,1,0xC010,G:\Experimente\CoScience\Tasks\Logfiles\,2022_Mar_01_1114,Stroop,2020.1.3,59.94823690726359,
Subset1,5,,,,,,Stimuli/neutral_25.png,neutral_man_woman,Stimuli/neutral_23.png,yellow,3,4,42,0,0,0,0,,,,,0,101,101,8,,,,,1.223836807598425,1.2540643127452067,462.2946527127915,None,462.2946527127915,None,,,,,,,,,,42,99,1,463.5790903065772,464.8468435171417,464.83016263444915,None,3,1,1.2688594352021028,None,464.83016263444915,None,False,None,None,None,0.7134863024402875,,,AU06EL20,1,0xC010,G:\Experimente\CoScience\Tasks\Logfiles\,2022_Mar_01_1114,Stroop,2020.1.3,59.94823690726359,
Subset1,5,,,,,,Stimuli/woman_25.png,erotic_woman,Stimuli/woman_22.png,red,2,7,72,0,0,0,0,,,,,0,102,102,99,,,,,1.0457688806217305,1.2666763807008303,465.5641278905605,None,465.5641278905605,None,,,,,,,,,,72,99,1,466.6650740244622,467.93281702515924,467.916146352336,None,2,1,1.2729086689378164,None,467.916146352336,None,False,None,None,None,0.4674923630172998,,,AU06EL20,1,0xC010,G:\Experimente\CoScience\Tasks\Logfiles\,2022_Mar_01_1114,Stroop,2020.1.3,59.94823690726359,
Subset1,5,,,,,,Stimuli/woman_25.png,erotic_woman,Stimuli/woman_21.png,green,1,7,72,0,0,0,0,,,,,0,103,103,59,,,,,1.0702997877267906,1.1401941450166704,468.3998969095028,None,468.3998969095028,None,,,,,,,,,,72,99,1,469.51752363438754,470.66851066610434,470.63515123440266,None,1,1,1.1444661055738834,None,470.63515123440266,None,False,None,None,None,0.750439316043412,,,AU06EL20,1,0xC010,G:\Experimente\CoScience\Tasks\Logfiles\,2022_Mar_01_1114,Stroop,2020.1.3,59.94823690726359,
Subset1,5,,,,,,Stimuli/couple_85.png,erotic_couple,Stimuli/couple_81.png,green,1,2,28,0,0,0,0,,,,,0,104,104,7,,,,,1.125330847717233,1.3138178049048057,471.4024756305025,None,471.4024756305025,None,,,,,,,,,,28,99,1,472.5868258861592,473.9046243701978,473.8879429040844,None,1,1,1.326035572348701,None,473.8879429040844,None,False,None,None,None,0.5835706884608953,,,AU06EL20,1,0xC010,G:\Experimente\CoScience\Tasks\Logfiles\,2022_Mar_01_1114,Stroop,2020.1.3,59.94823690726359,
Subset1,5,,,,,,Stimuli/positiv_55.png,positive_man_woman,Stimuli/positiv_54.png,blue,4,6,65,0,0,0,0,,,,,0,105,105,61,,,,,1.416192097860542,1.0099018556577672,474.48845934838937,None,474.48845934838937,None,,,,,,,,,,65,99,1,475.97306724277587,476.99060837979414,476.9739260385486,None,4,1,1.0190797641589597,None,476.9739260385486,None,False,None,None,None,0.7105677386825846,,,AU06EL20,1,0xC010,G:\Experimente\CoScience\Tasks\Logfiles\,2022_Mar_01_1114,Stroop,2020.1.3,59.94823690726359,
Subset1,5,,,,,,Stimuli/neutral_75.png,neutral_man_woman,Stimuli/neutral_72.png,red,2,4,47,0,0,0,0,,,,,0,106,106,105,,,,,1.1621189561070917,1.4909267819875196,477.7078901278164,None,477.7078901278164,None,,,,,,,,,,47,99,1,478.92560448254153,480.4268929679092,480.4102120852167,None,2,1,1.4947165973953815,None,480.4102120852167,None,False,None,None,None,0.7032329693556676,,,AU06EL20,1,0xC010,G:\Experimente\CoScience\Tasks\Logfiles\,2022_Mar_01_1114,Stroop,2020.1.3,59.94823690726359,
Subset1,5,,,,,,Stimuli/tree_75.png,tree,Stimuli/tree_72.png,red,2,1,17,0,0,0,0,,,,,0,107,107,37,,,,,1.1438767403894228,1.3767924968714018,481.14417500764284,None,481.14417500764284,None,,,,,,,,,,17,99,1,482.3618890706566,483.7464096269141,483.7297293276424,None,2,1,1.3863674339027057,None,483.7297293276424,None,False,None,None,None,0.5526770857886731,,,AU06EL20,1,0xC010,G:\Experimente\CoScience\Tasks\Logfiles\,2022_Mar_01_1114,Stroop,2020.1.3,59.94823690726359,
Subset1,5,,,,,,Stimuli/tree_35.png,tree,Stimuli/tree_32.png,red,2,1,13,0,0,0,0,,,,,0,108,108,70,,,,,1.3717635662417713,1.475360496587328,484.313564305834,None,484.313564305834,None,,,,,,,,,,13,99,1,485.7481292604316,487.2327374465294,487.2160583140994,None,2,1,1.4841120448454603,None,487.2160583140994,None,False,None,None,None,0.4563099319275352,,,AU06EL20,1,0xC010,G:\Experimente\CoScience\Tasks\Logfiles\,2022_Mar_01_1114,Stroop,2020.1.3,59.94823690726359,
Subset1,5,,,,,,Stimuli/tree_15.png,tree,Stimuli/tree_14.png,blue,4,1,11,0,0,0,0,,,,,0,109,109,79,,,,,1.0976498759111109,1.0063720915803,487.69978436758356,None,487.69978436758356,None,,,,,,,,,,11,99,1,488.867476493966,489.8850164641426,489.86833528973875,None,4,1,1.0217993813403154,None,489.86833528973875,None,False,None,None,None,0.7341717871586297,,,AU06EL20,1,0xC010,G:\Experimente\CoScience\Tasks\Logfiles\,2022_Mar_01_1114,Stroop,2020.1.3,59.94823690726359,
Subset1,5,,,,,,Stimuli/man_55.png,erotic_man,Stimuli/man_52.png,red,2,3,35,0,0,0,0,,,,,0,110,110,43,,,,,1.1712860083253858,1.3242836463405245,490.61897559433055,None,490.61897559433055,None,,,,,,,,,,35,99,1,491.85337433227505,493.18785340729664,493.1544901833586,None,2,1,1.3307615744906798,None,493.1544901833586,None,False,None,None,None,0.4738181056563917,,,AU06EL20,1,0xC010,G:\Experimente\CoScience\Tasks\Logfiles\,2022_Mar_01_1114,Stroop,2020.1.3,59.94823690726359,
Subset1,5,,,,,,Stimuli/neutral_35.png,neutral_man_woman,Stimuli/neutral_32.png,red,2,4,43,0,0,0,0,,,,,0,111,111,102,,,,,1.014539954765457,1.4023990193707727,493.65492133150656,None,493.65492133150656,None,,,,,,,,,,43,99,1,494.7225051166024,496.1403880216658,496.1070259645694,None,2,1,1.4024686877928616,None,496.1070259645694,None,False,None,None,None,0.3762310183956288,,,AU06EL20,1,0xC010,G:\Experimente\CoScience\Tasks\Logfiles\,2022_Mar_01_1114,Stroop,2020.1.3,59.94823690726359,
Subset2,3,PracticeStimuli/practice_green.png,green,1,9,0,PracticeStimuli/practice_black.png,Scramble,,,,,,0,1,1,1,0,0,0,2,,,,,,,,,1.100594065658621,1.2476722467516064,526.8171179233941,None,526.8171179233941,None,527.9347370638061,529.1858204766795,529.1524531687937,None,1,1,0.7313649485313363,,,,,,,,,,,,,,,,,,,,,496.5073697745902,None,AU06EL20,1,0xC010,G:\Experimente\CoScience\Tasks\Logfiles\,2022_Mar_01_1114,Stroop,2020.1.3,59.94823690726359,
Subset2,3,PracticeStimuli/practice_red.png,red,2,9,0,PracticeStimuli/practice_black.png,Scramble,,,,,,0,1,1,1,0,1,1,1,,,,,,,,,1.1948153820706775,1.1086713947274491,529.9030990158863,None,529.9030990158863,None,531.1208075363993,532.2384447628629,532.2050745378729,None,2,1,0.6297239601681213,,,,,,,,,,,,,,,,,,,,,,,AU06EL20,1,0xC010,G:\Experimente\CoScience\Tasks\Logfiles\,2022_Mar_01_1114,Stroop,2020.1.3,59.94823690726359,
Subset2,3,PracticeStimuli/practice_yellow.png,yellow,3,9,0,PracticeStimuli/practice_black.png,Scramble,,,,,,0,1,1,1,0,2,2,3,,,,,,,,,1.0181963095415085,1.2414489576127858,532.8556330468346,None,532.8556330468346,None,533.8898524411507,535.1409285612608,535.1075665041644,None,3,1,0.6312011822446948,,,,,,,,,,,,,,,,,,,,,,,AU06EL20,1,0xC010,G:\Experimente\CoScience\Tasks\Logfiles\,2022_Mar_01_1114,Stroop,2020.1.3,59.94823690726359,
Subset2,3,PracticeStimuli/practice_blue.png,blue,4,9,0,PracticeStimuli/practice_black.png,Scramble,,,,,,0,1,1,1,0,3,3,0,,,,,,,,,1.3520036818819219,1.375690518490162,535.7581264716791,None,535.7581264716791,None,537.1259641032702,538.5104893268963,538.4771284366416,None,4,1,0.3055991500714299,,,,,,,,,,,,,,,,,,,,,,,AU06EL20,1,0xC010,G:\Experimente\CoScience\Tasks\Logfiles\,2022_Mar_01_1114,Stroop,2020.1.3,59.94823690726359,
Subset2,3,PracticeStimuli/practice_yellow.png,yellow,3,9,0,PracticeStimuli/practice_black.png,Scramble,,,,,,0,1,1,1,1,0,4,3,,,,,,,,,1.1144166061017193,1.2343250795820764,538.8107481324696,None,538.8107481324696,None,539.9450525312313,541.1794582702278,541.1627663025338,None,4,0,0.4939038335432997,,,,,,,,,,,,,,,,,,,,,,,AU06EL20,1,0xC010,G:\Experimente\CoScience\Tasks\Logfiles\,2022_Mar_01_1114,Stroop,2020.1.3,59.94823690726359,
Subset2,3,PracticeStimuli/practice_red.png,red,2,9,0,PracticeStimuli/practice_black.png,Scramble,,,,,,0,1,1,1,1,1,5,1,,,,,,,,,1.426431348250717,1.3300923381706697,541.6798786250874,None,541.6798786250874,None,543.1311238789567,544.4656049959522,544.4322423554349,None,2,1,0.5693964742695243,,,,,,,,,,,,,,,,,,,,,,,AU06EL20,1,0xC010,G:\Experimente\CoScience\Tasks\Logfiles\,2022_Mar_01_1114,Stroop,2020.1.3,59.94823690726359,
Subset2,3,PracticeStimuli/practice_green.png,green,1,9,0,PracticeStimuli/practice_black.png,Scramble,,,,,,0,1,1,1,1,2,6,2,,,,,,,,,1.0970026669150668,1.3542407734867317,545.0327573411869,None,545.0327573411869,None,546.1503837743603,547.5182362831874,547.4848640162236,None,1,1,0.5847559083049418,,,,,,,,,,,,,,,,,,,,,,,AU06EL20,1,0xC010,G:\Experimente\CoScience\Tasks\Logfiles\,2022_Mar_01_1114,Stroop,2020.1.3,59.94823690726359,
Subset2,3,PracticeStimuli/practice_blue.png,blue,4,9,0,PracticeStimuli/practice_black.png,Scramble,,,,,,0,1,1,1,1,3,7,0,,,,,,,,,1.466900011415407,1.181875859642708,548.1020625100646,None,548.1020625100646,None,549.5866701127397,550.7710206601059,550.7543397774134,None,4,1,0.6322052498562698,,,,,,,,,,,,,,,,,,,,,,,AU06EL20,1,0xC010,G:\Experimente\CoScience\Tasks\Logfiles\,2022_Mar_01_1114,Stroop,2020.1.3,59.94823690726359,
Subset2,3,PracticeStimuli/practice_blue.png,blue,4,9,0,PracticeStimuli/practice_black.png,Scramble,,,,,,0,1,1,1,2,0,8,0,,,,,,,,,1.1403270655460123,1.1995555473198964,551.4048977029543,None,551.4048977029543,None,552.5725647422332,553.7735964640015,553.756918498415,None,4,1,0.46858481891831616,,,,,,,,,,,,,,,,,,,,,,,AU06EL20,1,0xC010,G:\Experimente\CoScience\Tasks\Logfiles\,2022_Mar_01_1114,Stroop,2020.1.3,59.94823690726359,
Subset2,3,PracticeStimuli/practice_green.png,green,1,9,0,PracticeStimuli/practice_black.png,Scramble,,,,,,0,1,1,1,2,1,9,2,,,,,,,,,1.2826666752469587,1.0085874039883023,554.2573478963004,None,554.2573478963004,None,555.5584654976465,556.5760060512439,556.5426428273058,None,1,1,0.51984973407707,,,,,,,,,,,,,,,,,,,,,,,AU06EL20,1,0xC010,G:\Experimente\CoScience\Tasks\Logfiles\,2022_Mar_01_1114,Stroop,2020.1.3,59.94823690726359,
Subset2,3,PracticeStimuli/practice_red.png,red,2,9,0,PracticeStimuli/practice_black.png,Scramble,,,,,,0,1,1,1,2,2,10,1,,,,,,,,,1.4406623027525078,1.29210556295167,557.093117206954,None,557.093117206954,None,558.5610436352272,559.8621606531524,559.828798596056,None,2,1,0.505662976333042,,,,,,,,,,,,,,,,,,,,,,,AU06EL20,1,0xC010,G:\Experimente\CoScience\Tasks\Logfiles\,2022_Mar_01_1114,Stroop,2020.1.3,59.94823690726359,
Subset2,3,PracticeStimuli/practice_yellow.png,yellow,3,9,0,PracticeStimuli/practice_black.png,Scramble,,,,,,0,1,1,1,2,3,11,3,,,,,,,,,1.2671400535496145,1.1837753545674448,560.3625906344587,None,560.3625906344587,None,561.6470261862705,562.8313784838992,562.814696434365,None,3,1,0.7126972254845896,,,,,,,,,,,,,,,,,,,,,,,AU06EL20,1,0xC010,G:\Experimente\CoScience\Tasks\Logfiles\,2022_Mar_01_1114,Stroop,2020.1.3,59.94823690726359,
Subset2,3,,,,,,Stimuli/man_55.png,erotic_man,Stimuli/man_54.png,blue,4,3,35,0,1,1,1,,,,,0,0,0,49,,,,,1.4363547736573357,1.3835512593967376,563.6153863880882,None,563.6153863880882,None,,,,,,,,None,,35,99,1,565.1500351802897,566.5345583619401,566.5012047644504,None,4,1,1.3832663468747342,None,566.5012047644504,None,False,None,None,None,0.670147453834943,,,AU06EL20,1,0xC010,G:\Experimente\CoScience\Tasks\Logfiles\,2022_Mar_01_1114,Stroop,2020.1.3,59.94823690726359,
Subset2,3,,,,,,Stimuli/neutral_couple_85.png,neutral_couple,Stimuli/neutral_couple_83.png,yellow,3,5,58,0,1,1,1,,,,,0,1,1,55,,,,,1.0289924646635935,1.4389442223282973,567.2018120474113,None,567.2018120474113,None,,,,,,,,,,58,99,1,568.3027765590759,569.7539914750523,569.7206282511142,None,3,1,1.4400062892782444,None,569.7206282511142,None,False,None,None,None,0.7066760286288627,,,AU06EL20,1,0xC010,G:\Experimente\CoScience\Tasks\Logfiles\,2022_Mar_01_1114,Stroop,2020.1.3,59.94823690726359,
Subset2,3,,,,,,Stimuli/positiv_35.png,positive_man_woman,Stimuli/positiv_33.png,yellow,3,6,63,0,1,1,1,,,,,0,2,2,82,,,,,1.2492249879863093,1.301567176357497,570.4545926320934,None,570.4545926320934,None,,,,,,,,,,63,99,1,571.7390240999575,573.0401457852495,573.0234622771623,None,3,1,1.316707457521261,None,573.0234622771623,None,False,None,None,None,0.6847863628827326,,,AU06EL20,1,0xC010,G:\Experimente\CoScience\Tasks\Logfiles\,2022_Mar_01_1114,Stroop,2020.1.3,59.94823690726359,
Subset2,3,,,,,,Stimuli/couple_35.png,erotic_couple,Stimuli/couple_32.png,red,2,2,23,0,1,1,1,,,,,0,3,3,32,,,,,1.3197371322040357,1.2924572665151814,573.7407475257114,None,573.7407475257114,None,,,,,,,,,,23,99,0,575.1252698322314,576.4263877252888,576.4097153022012,577.4105670969202,None,0,1.3023901009801193,2.3032369366210332,576.4097153022012,577.4105670969202,False,None,None,None,,,,AU06EL20,1,0xC010,G:\Experimente\CoScience\Tasks\Logfiles\,2022_Mar_01_1114,Stroop,2020.1.3,59.94823690726359,
Subset2,3,,,,,,Stimuli/man_65.png,erotic_man,Stimuli/man_62.png,red,2,3,36,0,1,1,1,,,,,0,4,4,2,,,,,1.364477709464659,1.0712814438449647,577.4272476879032,None,577.4272476879032,None,,,,,,,,,,36,99,1,578.8451300095458,579.9293949690436,579.9127143780624,None,2,1,1.0861646367502544,None,579.9127143780624,None,False,None,None,None,0.4614609562977421,,,AU06EL20,1,0xC010,G:\Experimente\CoScience\Tasks\Logfiles\,2022_Mar_01_1114,Stroop,2020.1.3,59.94823690726359,
Subset2,3,,,,,,Stimuli/positiv_45.png,positive_man_woman,Stimuli/positiv_43.png,yellow,3,6,64,0,1,1,1,,,,,0,5,5,47,,,,,1.1822950777810175,1.2564496351199295,580.3964643518084,None,580.3964643518084,None,,,,,,,,,,64,99,1,581.6141769562691,582.8819313336771,582.8485692765807,None,3,1,1.2616800600699207,None,582.8485692765807,None,False,None,None,None,0.6945583736087428,,,AU06EL20,1,0xC010,G:\Experimente\CoScience\Tasks\Logfiles\,2022_Mar_01_1114,Stroop,2020.1.3,59.94823690726359,
Subset2,3,,,,,,Stimuli/woman_35.png,erotic_woman,Stimuli/woman_32.png,red,2,7,73,0,1,1,1,,,,,0,6,6,13,,,,,1.0189009985074982,1.181262847271146,583.565852483156,None,583.565852483156,None,,,,,,,,,,73,99,2,584.6501203597618,585.8344665314689,585.8177946918022,None,3,0,1.1892122532426583,None,585.8177946918022,None,False,None,None,None,0.5582968889648328,,,AU06EL20,1,0xC010,G:\Experimente\CoScience\Tasks\Logfiles\,2022_Mar_01_1114,Stroop,2020.1.3,59.94823690726359,
Subset2,3,,,,,,Stimuli/positiv_65.png,positive_man_woman,Stimuli/positiv_64.png,blue,4,6,66,0,1,1,1,,,,,0,7,7,12,,,,,1.4465535393774331,1.3085189331719298,586.4016212103888,None,586.4016212103888,None,,,,,,,,,,66,99,1,587.9029096957584,589.2207105134803,589.1873452475684,None,4,1,1.3075659207443096,None,589.1873452475684,None,False,None,None,None,0.627708532183533,,,AU06EL20,1,0xC010,G:\Experimente\CoScience\Tasks\Logfiles\,2022_Mar_01_1114,Stroop,2020.1.3,59.94823690726359,
Subset2,3,,,,,,Stimuli/neutral_35.png,neutral_man_woman,Stimuli/neutral_31.png,green,1,4,43,0,1,1,1,,,,,0,8,8,97,,,,,1.4491278011200879,1.4845152091526839,589.8379057985057,None,589.8379057985057,None,,,,,,,,,,43,99,1,591.3225230276294,592.8071210038579,592.7904409962975,None,1,1,1.4905017887685972,None,592.7904409962975,None,False,None,None,None,0.621555190464278,,,AU06EL20,1,0xC010,G:\Experimente\CoScience\Tasks\Logfiles\,2022_Mar_01_1114,Stroop,2020.1.3,59.94823690726359,
Subset2,3,,,,,,Stimuli/positiv_85.png,positive_man_woman,Stimuli/positiv_84.png,blue,4,6,68,0,1,1,1,,,,,0,9,9,101,,,,,1.2934918223960148,1.3967115248600979,593.4409992135479,None,593.4409992135479,None,,,,,,,,,,68,99,1,594.7921603381037,596.1933617770537,596.1766817694934,None,4,1,1.4020159530646197,None,596.1766817694934,None,False,None,None,None,0.6772634402714175,,,AU06EL20,1,0xC010,G:\Experimente\CoScience\Tasks\Logfiles\,2022_Mar_01_1114,Stroop,2020.1.3,59.94823690726359,
Subset2,3,,,,,,Stimuli/woman_65.png,erotic_woman,Stimuli/woman_63.png,yellow,3,7,76,0,1,1,1,,,,,0,10,10,23,,,,,1.3182945212813786,1.0081441258723405,596.8772852602178,None,596.8772852602178,None,,,,,,,,,,76,99,1,598.2284446345111,599.2460064829756,599.2293028468612,None,3,1,1.0202358421229292,None,599.2293028468612,None,False,None,None,None,0.6916074299842876,,,AU06EL20,1,0xC010,G:\Experimente\CoScience\Tasks\Logfiles\,2022_Mar_01_1114,Stroop,2020.1.3,59.94823690726359,
Subset2,3,,,,,,Stimuli/man_25.png,erotic_man,Stimuli/man_24.png,blue,4,3,32,0,1,1,1,,,,,0,11,11,94,,,,,1.3361949861883744,1.249056411962334,599.9465860534365,None,599.9465860534365,None,,,,,,,,,,32,99,1,601.3311185698258,602.5821821463833,602.5655027222438,None,4,1,1.2550960661083082,None,602.5655027222438,None,False,None,None,None,0.630371849234507,,,AU06EL20,1,0xC010,G:\Experimente\CoScience\Tasks\Logfiles\,2022_Mar_01_1114,Stroop,2020.1.3,59.94823690726359,
Subset2,3,,,,,,Stimuli/neutral_couple_55.png,neutral_couple,Stimuli/neutral_couple_51.png,green,1,5,55,0,1,1,1,,,,,0,12,12,96,,,,,1.409539243554552,1.248616317021657,603.2160594809429,None,603.2160594809429,None,,,,,,,,,,55,99,1,604.683989993162,605.9350620293262,605.9017002639393,None,1,1,1.248786834288694,None,605.9017002639393,None,False,None,None,None,0.5871324739146075,,,AU06EL20,1,0xC010,G:\Experimente\CoScience\Tasks\Logfiles\,2022_Mar_01_1114,Stroop,2020.1.3,59.94823690726359,
Subset2,3,,,,,,Stimuli/neutral_couple_45.png,neutral_couple,Stimuli/neutral_couple_43.png,yellow,3,5,54,0,1,1,1,,,,,0,13,13,76,,,,,1.2214820184570963,1.3825751105041015,606.5188964240951,None,606.5188964240951,None,,,,,,,,,,54,99,1,607.820016067415,609.2045351651195,609.1878563244009,None,3,1,1.3902312272603012,None,609.1878563244009,None,False,None,None,None,0.6869135159977304,,,AU06EL20,1,0xC010,G:\Experimente\CoScience\Tasks\Logfiles\,2022_Mar_01_1114,Stroop,2020.1.3,59.94823690726359,
Subset2,3,,,,,,Stimuli/positiv_45.png,positive_man_woman,Stimuli/positiv_41.png,green,1,6,64,0,1,1,1,,,,,0,14,14,65,,,,,1.2345828711650262,1.4327952618423985,609.9051383641345,None,609.9051383641345,None,,,,,,,,,,64,99,1,611.1728930332538,612.6074574044305,612.5907771051588,None,1,1,1.4418613931629807,None,612.5907771051588,None,False,None,None,None,0.6329692397084727,,,AU06EL20,1,0xC010,G:\Experimente\CoScience\Tasks\Logfiles\,2022_Mar_01_1114,Stroop,2020.1.3,59.94823690726359,
Subset2,3,,,,,,Stimuli/positiv_55.png,positive_man_woman,Stimuli/positiv_52.png,red,2,6,65,0,1,1,1,,,,,0,15,15,79,,,,,1.1179954020597676,1.2798953327468414,613.2413364892527,None,613.2413364892527,None,,,,,,,,,,65,99,1,614.4090070290567,615.6934396637625,615.6767713246227,None,2,1,1.2896044288645498,None,615.6767713246227,None,False,None,None,None,0.6229233128051419,,,AU06EL20,1,0xC010,G:\Experimente\CoScience\Tasks\Logfiles\,2022_Mar_01_1114,Stroop,2020.1.3,59.94823690726359,
Subset2,3,,,,,,Stimuli/neutral_couple_25.png,neutral_couple,Stimuli/neutral_couple_21.png,green,1,5,52,0,1,1,1,,,,,0,16,16,83,,,,,1.1337690206590667,1.281696010876433,616.3273353760851,None,616.3273353760851,None,,,,,,,,,,52,99,1,617.4949898718114,618.7794248402006,618.7627454160611,None,1,1,1.2892644110834226,None,618.7627454160611,None,False,None,None,None,0.612917641952663,,,AU06EL20,1,0xC010,G:\Experimente\CoScience\Tasks\Logfiles\,2022_Mar_01_1114,Stroop,2020.1.3,59.94823690726359,
Subset2,3,,,,,,Stimuli/positiv_45.png,positive_man_woman,Stimuli/positiv_43.png,yellow,3,6,64,0,1,1,1,,,,,0,17,17,8,,,,,1.2973215643743543,1.4822400619591587,619.3966245008833,None,619.3966245008833,None,,,,,,,,,,64,99,1,620.7310997836685,622.2157088448967,622.199030004178,None,3,1,1.4909708592858806,None,622.199030004178,None,False,None,None,None,0.5785824385602609,,,AU06EL20,1,0xC010,G:\Experimente\CoScience\Tasks\Logfiles\,2022_Mar_01_1114,Stroop,2020.1.3,59.94823690726359,
Subset2,3,,,,,,Stimuli/neutral_45.png,neutral_man_woman,Stimuli/neutral_43.png,yellow,3,4,44,0,1,1,1,,,,,0,18,18,45,,,,,1.0585438847967483,1.4674061753974437,622.7995989563769,None,622.7995989563769,None,,,,,,,,,,44,99,1,623.9338525975072,625.4017950698599,625.38509901822,None,3,1,1.4777012102495064,None,625.38509901822,None,False,None,None,None,0.5006656834066234,,,AU06EL20,1,0xC010,G:\Experimente\CoScience\Tasks\Logfiles\,2022_Mar_01_1114,Stroop,2020.1.3,59.94823690726359,
Subset2,3,,,,,,Stimuli/man_85.png,erotic_man,Stimuli/man_81.png,green,1,3,38,0,1,1,1,,,,,0,19,19,51,,,,,1.0892749628440992,1.1125517805646852,625.9188910566227,None,625.9188910566227,None,,,,,,,,,,38,99,1,627.0698786717603,628.187503938092,628.15414363126,None,1,1,1.1119926862338616,None,628.15414363126,None,False,None,None,None,0.6774057950042334,,,AU06EL20,1,0xC010,G:\Experimente\CoScience\Tasks\Logfiles\,2022_Mar_01_1114,Stroop,2020.1.3,59.94823690726359,
Subset2,3,,,,,,Stimuli/positiv_25.png,positive_man_woman,Stimuli/positiv_22.png,red,2,6,62,0,1,1,1,,,,,0,20,20,58,,,,,1.3632519749102365,1.2119779699087514,628.8547456634315,None,628.8547456634315,None,,,,,,,,,,62,99,1,630.255947394091,631.4736597068422,631.4569802827027,None,2,1,1.2242683900149132,None,631.4569802827027,None,False,None,None,None,0.6985128014239308,,,AU06EL20,1,0xC010,G:\Experimente\CoScience\Tasks\Logfiles\,2022_Mar_01_1114,Stroop,2020.1.3,59.94823690726359,
Subset2,3,,,,,,Stimuli/tree_25.png,tree,Stimuli/tree_21.png,green,1,1,12,0,1,1,1,,,,,0,21,21,15,,,,,1.4433274066160509,1.332644266432027,632.1742617390155,None,632.1742617390155,None,,,,,,,,,,12,99,1,633.6755519746475,635.0100298828256,634.9933504586861,None,1,1,1.3420233508441015,None,634.9933504586861,None,False,None,None,None,0.7110916507790535,,,AU06EL20,1,0xC010,G:\Experimente\CoScience\Tasks\Logfiles\,2022_Mar_01_1114,Stroop,2020.1.3,59.94823690726359,
Subset2,3,,,,,,Stimuli/tree_45.png,tree,Stimuli/tree_44.png,blue,4,1,14,0,1,1,1,,,,,0,22,22,48,,,,,1.3587980331515541,1.4807889050032639,635.7273270915066,None,635.7273270915066,None,,,,,,,,,,14,99,1,637.1451992032798,638.6298053474038,638.6131241730018,None,4,1,1.4902245470912021,None,638.6131241730018,None,False,None,None,None,0.7062863033752365,,,AU06EL20,1,0xC010,G:\Experimente\CoScience\Tasks\Logfiles\,2022_Mar_01_1114,Stroop,2020.1.3,59.94823690726359,
Subset2,3,,,,,,Stimuli/woman_65.png,erotic_woman,Stimuli/woman_62.png,red,2,7,76,0,1,1,1,,,,,0,23,23,16,,,,,1.101248172536823,1.423875334879082,639.3470876788488,None,639.3470876788488,None,,,,,,,,,,76,99,1,640.4980592499069,641.9326510418741,641.915961116154,None,2,1,1.4377694530103327,None,641.915961116154,None,False,None,None,None,0.6854170410279039,,,AU06EL20,1,0xC010,G:\Experimente\CoScience\Tasks\Logfiles\,2022_Mar_01_1114,Stroop,2020.1.3,59.94823690726359,
Subset2,3,,,,,,Stimuli/tree_75.png,tree,Stimuli/tree_71.png,green,1,1,17,0,1,1,1,,,,,0,24,24,104,,,,,1.3422102435179069,1.4723969586781998,642.6332434475989,None,642.6332434475989,None,,,,,,,,,,17,99,1,644.0344475119437,645.5190554063302,645.4857032673917,None,1,1,1.4779645373364474,None,645.4857032673917,None,False,None,None,None,0.6376223142215167,,,AU06EL20,1,0xC010,G:\Experimente\CoScience\Tasks\Logfiles\,2022_Mar_01_1114,Stroop,2020.1.3,59.94823690726359,
Subset2,3,,,,,,Stimuli/neutral_couple_25.png,neutral_couple,Stimuli/neutral_couple_22.png,red,2,5,52,0,1,1,1,,,,,0,25,25,39,,,,,1.4523240069573862,1.3082402549965353,646.1529350745732,None,646.1529350745732,None,,,,,,,,,,52,99,1,647.6875850336164,649.0053829342341,648.9720194185866,None,2,1,1.3128156307848258,None,648.9720194185866,None,False,None,None,None,0.6262727329994959,,,AU06EL20,1,0xC010,G:\Experimente\CoScience\Tasks\Logfiles\,2022_Mar_01_1114,Stroop,2020.1.3,59.94823690726359,
Subset2,3,,,,,,Stimuli/neutral_couple_65.png,neutral_couple,Stimuli/neutral_couple_63.png,yellow,3,5,56,0,1,1,1,,,,,0,26,26,35,,,,,1.1257346254681315,1.193268344126193,649.6225785109691,None,649.6225785109691,None,,,,,,,,,,56,99,1,650.806933142283,652.0079616552357,651.9746086411651,None,3,1,1.1951838593067805,None,651.9746086411651,None,False,None,None,None,0.7346930738585797,,,AU06EL20,1,0xC010,G:\Experimente\CoScience\Tasks\Logfiles\,2022_Mar_01_1114,Stroop,2020.1.3,59.94823690726359,
Subset2,3,,,,,,Stimuli/couple_35.png,erotic_couple,Stimuli/couple_31.png,green,1,2,23,0,1,1,1,,,,,0,27,27,9,,,,,1.145984261297609,1.0096242092600638,652.741923994241,None,652.741923994241,None,,,,,,,,,,23,99,0,653.9763163145526,654.9938586184126,654.9771774440087,655.9780353646493,None,0,1.0243360960248538,2.025192849823725,654.9771774440087,655.9780353646493,False,None,None,None,,,,AU06EL20,1,0xC010,G:\Experimente\CoScience\Tasks\Logfiles\,2022_Mar_01_1114,Stroop,2020.1.3,59.94823690726359,
Subset2,3,,,,,,Stimuli/man_35.png,erotic_man,Stimuli/man_33.png,yellow,3,3,33,0,1,1,1,,,,,0,28,28,42,,,,,1.4853087658337119,1.370641017699188,655.9947174141853,None,655.9947174141853,None,,,,,,,,,,33,99,1,657.5460508813158,658.9305726044149,658.9138914300111,None,3,1,1.3861402789225394,None,658.9138914300111,None,False,None,None,None,0.6642455665842135,,,AU06EL20,1,0xC010,G:\Experimente\CoScience\Tasks\Logfiles\,2022_Mar_01_1114,Stroop,2020.1.3,59.94823690726359,
Subset2,3,,,,,,Stimuli/tree_25.png,tree,Stimuli/tree_21.png,green,1,1,12,0,1,1,1,,,,,0,29,29,10,,,,,1.1789228424886558,1.1016157464975933,659.5978111209388,None,659.5978111209388,None,,,,,,,,,,12,99,1,660.815521975137,661.9164686924596,661.8997892683201,None,1,1,1.105919681591331,None,661.8997892683201,None,False,None,None,None,0.5703150706976885,,,AU06EL20,1,0xC010,G:\Experimente\CoScience\Tasks\Logfiles\,2022_Mar_01_1114,Stroop,2020.1.3,59.94823690726359,
Subset2,3,,,,,,Stimuli/positiv_85.png,positive_man_woman,Stimuli/positiv_82.png,red,2,6,68,0,1,1,1,,,,,0,30,30,59,,,,,1.487362194777134,1.1754992569561504,662.500303670653,None,662.500303670653,None,,,,,,,,,,68,99,1,664.0516377212043,665.2359853514645,665.2193143869299,None,2,1,1.18963260810051,None,665.2193143869299,None,False,None,None,None,0.5707427183224354,,,AU06EL20,1,0xC010,G:\Experimente\CoScience\Tasks\Logfiles\,2022_Mar_01_1114,Stroop,2020.1.3,59.94823690726359,
Subset2,3,,,,,,Stimuli/positiv_85.png,positive_man_woman,Stimuli/positiv_83.png,yellow,3,6,68,0,1,1,1,,,,,0,31,31,31,,,,,1.0866960309129297,1.3981191573837428,665.8198194545257,None,665.8198194545257,None,,,,,,,,,,68,99,2,666.9541285206542,668.3553320015781,668.3386499520439,None,1,0,1.4045070733955072,None,668.3386499520439,None,False,None,None,None,0.5503798654408456,,,AU06EL20,1,0xC010,G:\Experimente\CoScience\Tasks\Logfiles\,2022_Mar_01_1114,Stroop,2020.1.3,59.94823690726359,
Subset2,3,,,,,,Stimuli/neutral_25.png,neutral_man_woman,Stimuli/neutral_21.png,green,1,4,42,0,1,1,1,,,,,0,32,32,77,,,,,1.1039889562110772,1.4738731018100666,668.9058046309638,None,668.9058046309638,None,,,,,,,,,,42,99,1,670.0901525529334,671.5747627810051,671.541399557067,None,1,1,1.4839235998479126,None,671.541399557067,None,False,None,None,None,0.5635899763583438,,,AU06EL20,1,0xC010,G:\Experimente\CoScience\Tasks\Logfiles\,2022_Mar_01_1114,Stroop,2020.1.3,59.94823690726359,
Subset2,3,,,,,,Stimuli/man_65.png,erotic_man,Stimuli/man_61.png,green,1,3,36,0,1,1,1,,,,,0,33,33,62,,,,,1.0520790277039092,1.1423208771259528,672.1252345352586,None,672.1252345352586,None,,,,,,,,,,36,99,1,673.2428644689589,674.3938506255436,674.3771682842998,None,1,1,1.1521113424041687,None,674.3771682842998,None,False,None,None,None,0.5717750818548666,,,AU06EL20,1,0xC010,G:\Experimente\CoScience\Tasks\Logfiles\,2022_Mar_01_1114,Stroop,2020.1.3,59.94823690726359,
Subset2,3,,,,,,Stimuli/man_35.png,erotic_man,Stimuli/man_32.png,red,2,3,33,0,1,1,1,,,,,0,34,34,28,,,,,1.366372791326237,1.3951592942522182,674.9776853120256,None,674.9776853120256,None,,,,,,,,,,33,99,1,676.4122490997815,677.8134534558358,677.7967719897224,None,2,1,1.4059630881183693,None,677.7967719897224,None,False,None,None,None,0.5971238509519026,,,AU06EL20,1,0xC010,G:\Experimente\CoScience\Tasks\Logfiles\,2022_Mar_01_1114,Stroop,2020.1.3,59.94823690726359,
Subset2,3,,,,,,Stimuli/woman_75.png,erotic_woman,Stimuli/woman_73.png,yellow,3,7,77,0,1,1,1,,,,,0,35,35,61,,,,,1.2687993340194286,1.1393442756086447,678.4139731089581,None,678.4139731089581,None,,,,,,,,,,77,99,1,679.7484486834528,680.8994357151696,680.8660803674156,None,3,1,1.141170739334484,None,680.8660803674156,None,False,None,None,None,0.5797912869566062,,,AU06EL20,1,0xC010,G:\Experimente\CoScience\Tasks\Logfiles\,2022_Mar_01_1114,Stroop,2020.1.3,59.94823690726359,
Subset2,3,,,,,,Stimuli/woman_45.png,erotic_woman,Stimuli/woman_41.png,green,1,7,74,0,1,1,1,,,,,0,36,36,22,,,,,1.2518868966819694,1.471767635206834,681.4665915609312,None,681.4665915609312,None,,,,,,,,,,74,99,1,682.7677079954356,684.2523190986376,684.2189535410162,None,1,1,1.4795523176981078,None,684.2189535410162,None,False,None,None,None,0.5808930775929184,,,AU06EL20,1,0xC010,G:\Experimente\CoScience\Tasks\Logfiles\,2022_Mar_01_1114,Stroop,2020.1.3,59.94823690726359,
Subset2,3,,,,,,Stimuli/neutral_couple_85.png,neutral_couple,Stimuli/neutral_couple_83.png,yellow,3,5,58,0,1,1,1,,,,,0,37,37,100,,,,,1.4921905876316885,1.2535020366572711,684.8194711521628,None,684.8194711521628,None,,,,,,,,,,58,99,1,686.3541249034442,687.6218763637462,687.5885163486255,None,3,1,1.2542320195461798,None,687.5885163486255,None,False,None,None,None,0.5832702266252454,,,AU06EL20,1,0xC010,G:\Experimente\CoScience\Tasks\Logfiles\,2022_Mar_01_1114,Stroop,2020.1.3,59.94823690726359,
Subset2,3,,,,,,Stimuli/tree_15.png,tree,Stimuli/tree_13.png,yellow,3,1,11,0,1,1,1,,,,,0,38,38,54,,,,,1.4494737677594736,1.2205289290882488,688.1890292924036,None,688.1890292924036,None,,,,,,,,,,11,99,1,689.7069939930971,690.9413936061719,690.9247115566377,None,3,1,1.2346449999658944,None,690.9247115566377,None,False,None,None,None,0.4260157943754166,,,AU06EL20,1,0xC010,G:\Experimente\CoScience\Tasks\Logfiles\,2022_Mar_01_1114,Stroop,2020.1.3,59.94823690726359,
Subset2,3,,,,,,Stimuli/couple_15.png,erotic_couple,Stimuli/couple_14.png,blue,4,2,21,0,1,1,1,,,,,0,39,39,56,,,,,1.436755867298984,1.0366551940388695,691.3750983064456,None,691.3750983064456,None,,,,,,,,,,21,99,1,692.8763879586568,693.9272899859279,693.893927637122,None,4,1,1.0388348965134355,None,693.893927637122,None,False,None,None,None,0.6967692476428056,,,AU06EL20,1,0xC010,G:\Experimente\CoScience\Tasks\Logfiles\,2022_Mar_01_1114,Stroop,2020.1.3,59.94823690726359,
Subset2,3,,,,,,Stimuli/neutral_75.png,neutral_man_woman,Stimuli/neutral_71.png,green,1,4,47,0,1,1,1,,,,,0,40,40,87,,,,,1.095112855922751,1.2189050762999678,694.6112099685652,None,694.6112099685652,None,,,,,,,,,,47,99,1,695.7788974275809,697.0132742872356,696.9799373172445,None,1,1,1.2185289563549304,None,696.9799373172445,None,False,None,None,None,0.570725507401221,,,AU06EL20,1,0xC010,G:\Experimente\CoScience\Tasks\Logfiles\,2022_Mar_01_1114,Stroop,2020.1.3,59.94823690726359,
Subset2,3,,,,,,Stimuli/tree_45.png,tree,Stimuli/tree_43.png,yellow,3,1,14,0,1,1,1,,,,,0,41,41,63,,,,,1.169579346566399,1.0836826298132116,697.5804269241817,None,697.5804269241817,None,,,,,,,,,,14,99,1,698.8148253704148,699.8990900382032,699.8824030295891,None,3,1,1.0944740109262057,None,699.8824030295891,None,False,None,None,None,0.5202231235434738,,,AU06EL20,1,0xC010,G:\Experimente\CoScience\Tasks\Logfiles\,2022_Mar_01_1114,Stroop,2020.1.3,59.94823690726359,
Subset2,3,,,,,,Stimuli/woman_55.png,erotic_woman,Stimuli/woman_52.png,red,2,7,75,0,1,1,1,,,,,0,42,42,107,,,,,1.2806300665252348,1.4367301584854586,700.4328759506843,None,700.4328759506843,None,,,,,,,,,,75,99,1,701.7840359083984,703.2353252105568,703.2019208554357,None,2,1,1.4436955522323842,None,703.2019208554357,None,False,None,None,None,0.5716586893558997,,,AU06EL20,1,0xC010,G:\Experimente\CoScience\Tasks\Logfiles\,2022_Mar_01_1114,Stroop,2020.1.3,59.94823690726359,
Subset2,3,,,,,,Stimuli/tree_65.png,tree,Stimuli/tree_61.png,green,1,1,16,0,1,1,1,,,,,0,43,43,41,,,,,1.2352113123084543,1.4902315796920016,703.802436132899,None,703.802436132899,None,,,,,,,,,,16,99,1,705.0868740183942,706.5881627954732,706.5715008739644,None,1,1,1.5026339126325183,None,706.5715008739644,None,False,None,None,None,0.5200224267045996,,,AU06EL20,1,0xC010,G:\Experimente\CoScience\Tasks\Logfiles\,2022_Mar_01_1114,Stroop,2020.1.3,59.94823690726359,
Subset2,3,,,,,,Stimuli/woman_35.png,erotic_woman,Stimuli/woman_34.png,blue,4,7,73,0,1,1,1,,,,,0,44,44,80,,,,,1.2526285495198706,1.3645676481165323,707.1219525001925,None,707.1219525001925,None,,,,,,,,,,73,99,1,708.4397533179163,709.8075985339801,709.7909118170774,None,4,1,1.3722445607654663,None,709.7909118170774,None,False,None,None,None,0.5325808563211467,,,AU06EL20,1,0xC010,G:\Experimente\CoScience\Tasks\Logfiles\,2022_Mar_01_1114,Stroop,2020.1.3,59.94823690726359,
Subset2,3,,,,,,Stimuli/positiv_75.png,positive_man_woman,Stimuli/positiv_71.png,green,1,6,67,0,1,1,1,,,,,0,45,45,81,,,,,1.3548371448159053,1.3843316725955013,710.3413844464612,None,710.3413844464612,None,,,,,,,,,,67,99,1,711.7425893859381,713.1271073168009,713.1104287677917,None,1,1,1.3860490027000196,None,713.1104287677917,None,False,None,None,None,0.7599992532213946,,,AU06EL20,1,0xC010,G:\Experimente\CoScience\Tasks\Logfiles\,2022_Mar_01_1114,Stroop,2020.1.3,59.94823690726359,
Subset2,3,,,,,,Stimuli/tree_75.png,tree,Stimuli/tree_73.png,yellow,3,1,17,0,1,1,1,,,,,0,46,46,19,,,,,1.087771236326958,1.393080859764574,713.8944346300068,None,713.8944346300068,None,,,,,,,,,,17,99,1,715.0287469049508,716.4299445516644,716.3965839531211,None,3,1,1.3945244476763037,None,716.3965839531211,None,False,None,None,None,0.8498230483983207,,,AU06EL20,1,0xC010,G:\Experimente\CoScience\Tasks\Logfiles\,2022_Mar_01_1114,Stroop,2020.1.3,59.94823690726359,
Subset2,3,,,,,,Stimuli/positiv_35.png,positive_man_woman,Stimuli/positiv_31.png,green,1,6,63,0,1,1,1,,,,,0,47,47,0,,,,,1.0350037810335821,1.3805107675858794,717.2640213578779,None,717.2640213578779,None,,,,,,,,,,63,99,1,718.3482618136932,719.7327803279768,719.7161076131779,None,1,1,1.3910633898631204,None,719.7161076131779,None,False,None,None,None,0.5022505466658913,,,AU06EL20,1,0xC010,G:\Experimente\CoScience\Tasks\Logfiles\,2022_Mar_01_1114,Stroop,2020.1.3,59.94823690726359,
Subset2,3,,,,,,Stimuli/tree_75.png,tree,Stimuli/tree_72.png,red,2,1,17,0,1,1,1,,,,,0,48,48,109,,,,,1.0940942703812175,1.116083489577583,720.2498932339495,None,720.2498932339495,None,,,,,,,,,,17,99,1,721.3841958824487,722.5018258161472,722.4851446417451,None,2,1,1.1229835801968875,None,722.4851446417451,None,False,None,None,None,0.7821660439622065,,,AU06EL20,1,0xC010,G:\Experimente\CoScience\Tasks\Logfiles\,2022_Mar_01_1114,Stroop,2020.1.3,59.94823690726359,
Subset2,3,,,,,,Stimuli/tree_75.png,tree,Stimuli/tree_73.png,yellow,3,1,17,0,1,1,1,,,,,0,49,49,40,,,,,1.1444629301195004,1.3671194248268326,723.2858328452039,None,723.2858328452039,None,,,,,,,,,,17,99,1,724.4701825174379,725.8380239412654,725.8213433502842,None,3,1,1.3730118761177437,None,725.8213433502842,None,False,None,None,None,0.5539331912896159,,,AU06EL20,1,0xC010,G:\Experimente\CoScience\Tasks\Logfiles\,2022_Mar_01_1114,Stroop,2020.1.3,59.94823690726359,
Subset2,3,,,,,,Stimuli/neutral_15.png,neutral_man_woman,Stimuli/neutral_11.png,green,1,4,41,0,1,1,1,,,,,0,50,50,24,,,,,1.4750187604262608,1.1312425756480833,726.405179203608,None,726.405179203608,None,,,,,,,,,,41,99,1,727.9231474048265,729.057455887536,729.0407732545791,None,1,1,1.1395798668399948,None,729.0407732545791,None,False,None,None,None,0.538441904100182,,,AU06EL20,1,0xC010,G:\Experimente\CoScience\Tasks\Logfiles\,2022_Mar_01_1114,Stroop,2020.1.3,59.94823690726359,
Subset2,3,,,,,,Stimuli/tree_85.png,tree,Stimuli/tree_83.png,yellow,3,1,18,0,1,1,1,,,,,0,51,51,92,,,,,1.4714967487641788,1.0270311222168331,729.6079288086312,None,729.6079288086312,None,,,,,,,,,,18,99,0,731.1926336675951,732.2268451857271,732.1934825452099,733.1943410492713,None,0,1.0303904311949736,2.0312439761783025,732.1934825452099,733.1943410492713,False,None,None,None,,,,AU06EL20,1,0xC010,G:\Experimente\CoScience\Tasks\Logfiles\,2022_Mar_01_1114,Stroop,2020.1.3,59.94823690726359,
Subset2,3,,,,,,Stimuli/couple_55.png,erotic_couple,Stimuli/couple_52.png,red,2,2,25,0,1,1,1,,,,,0,52,52,95,,,,,1.1838625463378059,1.1398974092623884,733.2110219319638,None,733.2110219319638,None,,,,,,,,,,25,99,1,734.4287345364264,735.5797218598527,735.5630424357132,None,2,1,1.1528194405218528,None,735.5630424357132,None,False,None,None,None,0.7131082456071454,,,AU06EL20,1,0xC010,G:\Experimente\CoScience\Tasks\Logfiles\,2022_Mar_01_1114,Stroop,2020.1.3,59.94823690726359,
Subset2,3,,,,,,Stimuli/neutral_couple_75.png,neutral_couple,Stimuli/neutral_couple_72.png,red,2,5,57,0,1,1,1,,,,,0,53,53,103,,,,,1.0522809934103647,1.343870253262175,736.2970041912977,None,736.2970041912977,None,,,,,,,,,,57,99,1,737.414632666445,738.7657923324477,738.7491295358068,None,2,1,1.351325707631986,None,738.7491295358068,None,False,None,None,None,0.46098896867624717,,,AU06EL20,1,0xC010,G:\Experimente\CoScience\Tasks\Logfiles\,2022_Mar_01_1114,Stroop,2020.1.3,59.94823690726359,
Subset2,3,,,,,,Stimuli/neutral_25.png,neutral_man_woman,Stimuli/neutral_24.png,blue,4,4,42,0,1,1,1,,,,,0,54,54,98,,,,,1.2167126827071937,1.1492187840174115,739.2328596732386,None,739.2328596732386,None,,,,,,,,,,42,99,1,740.4839372519,741.6349222416447,741.6182693631617,None,4,1,1.1541826037864666,None,741.6182693631617,None,False,None,None,None,0.6358081664948259,,,AU06EL20,1,0xC010,G:\Experimente\CoScience\Tasks\Logfiles\,2022_Mar_01_1114,Stroop,2020.1.3,59.94823690726359,
Subset2,3,,,,,,Stimuli/positiv_55.png,positive_man_woman,Stimuli/positiv_53.png,yellow,3,6,65,0,1,1,1,,,,,0,55,55,108,,,,,1.2232363132795196,1.498208512871161,742.2854816257386,None,742.2854816257386,None,,,,,,,,,,65,99,1,743.5865957265578,745.0878862539012,745.0712065380503,None,3,1,1.511354598642356,None,745.0712065380503,None,False,None,None,None,0.5448274473928905,,,AU06EL20,1,0xC010,G:\Experimente\CoScience\Tasks\Logfiles\,2022_Mar_01_1114,Stroop,2020.1.3,59.94823690726359,
Subset2,3,,,,,,Stimuli/couple_15.png,erotic_couple,Stimuli/couple_13.png,yellow,3,2,21,0,1,1,1,,,,,0,56,56,102,,,,,1.302780254493648,1.1052556294108637,745.6383606335494,None,745.6383606335494,None,,,,,,,,,,21,99,0,747.0228820649372,748.1405079146898,748.1071464410161,749.108005236787,None,0,1.1098658248301945,2.11072374547075,748.1071464410161,749.108005236787,False,None,None,None,,,,AU06EL20,1,0xC010,G:\Experimente\CoScience\Tasks\Logfiles\,2022_Mar_01_1114,Stroop,2020.1.3,59.94823690726359,
Subset2,3,,,,,,Stimuli/neutral_55.png,neutral_man_woman,Stimuli/neutral_52.png,red,2,4,45,0,1,1,1,,,,,0,57,57,4,,,,,1.389930446448169,1.1157484292842434,749.12468582777,None,749.12468582777,None,,,,,,,,,,45,99,1,750.6092943055774,751.7269227807246,751.7102413146113,None,2,1,1.129005039592812,None,751.7102413146113,None,False,None,None,None,0.5486681081056304,,,AU06EL20,1,0xC010,G:\Experimente\CoScience\Tasks\Logfiles\,2022_Mar_01_1114,Stroop,2020.1.3,59.94823690726359,
Subset2,3,,,,,,Stimuli/neutral_couple_35.png,neutral_couple,Stimuli/neutral_couple_34.png,blue,4,5,53,0,1,1,1,,,,,0,58,58,89,,,,,1.1812999970547702,1.0168975104270441,752.2773992023467,None,752.2773992023467,None,,,,,,,,,,53,99,1,753.5117874387124,754.5293274088872,754.5126459427738,None,4,1,1.03097096430065,None,754.5126459427738,None,False,None,None,None,0.7032615569860354,,,AU06EL20,1,0xC010,G:\Experimente\CoScience\Tasks\Logfiles\,2022_Mar_01_1114,Stroop,2020.1.3,59.94823690726359,
Subset2,3,,,,,,Stimuli/couple_25.png,erotic_couple,Stimuli/couple_24.png,blue,4,2,22,0,1,1,1,,,,,0,59,59,6,,,,,1.3029146022810394,1.302277385106379,755.2466111988833,None,755.2466111988833,None,,,,,,,,,,22,99,1,756.6144499973161,757.9322496481982,757.8988881745227,None,4,1,1.3013638633674418,None,757.8988881745227,None,False,None,None,None,0.485997311596293,,,AU06EL20,1,0xC010,G:\Experimente\CoScience\Tasks\Logfiles\,2022_Mar_01_1114,Stroop,2020.1.3,59.94823690726359,
Subset2,3,,,,,,Stimuli/neutral_couple_55.png,neutral_couple,Stimuli/neutral_couple_53.png,yellow,3,5,55,0,1,1,1,,,,,0,60,60,93,,,,,1.045408690132809,1.3565592230224195,758.4159993302328,None,758.4159993302328,None,,,,,,,,,,55,99,1,759.5002619560473,760.8681025047426,760.8347416144898,None,3,1,1.3562910290838772,None,760.8347416144898,None,False,None,None,None,0.5631176970255183,,,AU06EL20,1,0xC010,G:\Experimente\CoScience\Tasks\Logfiles\,2022_Mar_01_1114,Stroop,2020.1.3,59.94823690726359,
Subset2,3,,,,,,Stimuli/tree_65.png,tree,Stimuli/tree_62.png,red,2,1,16,0,1,1,1,,,,,0,61,61,25,,,,,1.1006576839305438,1.4837268339051923,761.4185757175492,None,761.4185757175492,None,,,,,,,,,,16,99,1,762.5862468407759,764.0708515263468,764.0541721022055,None,2,1,1.4873848326860752,None,764.0541721022055,None,False,None,None,None,0.6356290562343929,,,AU06EL20,1,0xC010,G:\Experimente\CoScience\Tasks\Logfiles\,2022_Mar_01_1114,Stroop,2020.1.3,59.94823690726359,
Subset2,3,,,,,,Stimuli/woman_25.png,erotic_woman,Stimuli/woman_23.png,yellow,3,7,72,0,1,1,1,,,,,0,62,62,105,,,,,1.4507122950759286,1.1059575992676258,764.7214348307025,None,764.7214348307025,None,,,,,,,,,,72,99,1,766.2227023129144,767.3403290377992,767.3069658138611,None,3,1,1.115603770766029,None,767.3069658138611,None,False,None,None,None,0.5397925238103198,,,AU06EL20,1,0xC010,G:\Experimente\CoScience\Tasks\Logfiles\,2022_Mar_01_1114,Stroop,2020.1.3,59.94823690726359,
Subset2,3,,,,,,Stimuli/neutral_couple_55.png,neutral_couple,Stimuli/neutral_couple_54.png,blue,4,5,55,0,1,1,1,,,,,0,63,63,29,,,,,1.2947951099218389,1.2645544035807088,767.8741193259393,None,767.8741193259393,None,,,,,,,,,,55,99,1,769.2252816173368,770.493035411324,770.4763539452106,None,4,1,1.2738800649694895,None,770.4763539452106,None,False,None,None,None,0.6503616043610236,,,AU06EL20,1,0xC010,G:\Experimente\CoScience\Tasks\Logfiles\,2022_Mar_01_1114,Stroop,2020.1.3,59.94823690726359,
Subset2,3,,,,,,Stimuli/positiv_75.png,positive_man_woman,Stimuli/positiv_73.png,yellow,3,6,67,0,1,1,1,,,,,0,64,64,44,,,,,1.2269596370757974,1.133493113647327,771.1435933368648,None,771.1435933368648,None,,,,,,,,,,67,99,1,772.4280315140713,773.5623373713843,773.5456570721126,None,3,1,1.1451744662281271,None,773.5456570721126,None,False,None,None,None,0.5080051201020979,,,AU06EL20,1,0xC010,G:\Experimente\CoScience\Tasks\Logfiles\,2022_Mar_01_1114,Stroop,2020.1.3,59.94823690726359,
