Instruction_Condition,MarkCondition,Type,Letter,CorrectResponse,Condition,RandomizeBlocks.thisRepN,RandomizeBlocks.thisTrialN,RandomizeBlocks.thisN,RandomizeBlocks.thisIndex,Practice.thisRepN,Practice.thisTrialN,Practice.thisN,Practice.thisIndex,Trials.thisRepN,Trials.thisTrialN,Trials.thisN,Trials.thisIndex,Target_Mapping,Fixation_practice.started,Fixation_practice.stopped,Target_practice.started,Target_practice.stopped,Target_resp_practice.keys,Target_resp_practice.corr,Target_resp_practice.rt,Target_resp_practice.started,Target_resp_practice.stopped,ITI_resp_practice.started,ITI_resp_practice.stopped,ITI_Duration,ITI.started,ITI.stopped,square2.started,square2.stopped,Instr_Repe.started,Instr_Repe.stopped,Trigger_Target,TriggerResp,Fixation.started,Fixation.stopped,Target.started,Target.stopped,Target_resp.keys,Target_resp.corr,Target_resp.rt,Target_resp.started,Target_resp.stopped,ITI_resp.started,ITI_resp.stopped,square1.started,square1.stopped,showReminder,ReminderErrors.started,ReminderErrors.stopped,ReminderErrorsResp.keys,ReminderErrorsResp.started,ReminderErrorsResp.stopped,break_block.started,break_block.stopped,break_block_resp.keys,break_block_resp.rt,SelfReport.started,SelfReport.stopped,anxious.response,anxious.rt,peppy.response,peppy.rt,peeved.response,peeved.rt,happy.response,happy.rt,tired.response,tired.rt,relaxed.response,relaxed.rt,sad.response,sad.rt,calm.response,calm.rt,exhausted.response,exhausted.rt,irritated.response,irritated.rt,break_cond.started,break_cond.stopped,break_cond_resp.keys,break_cond_resp.rt,participant,session,EEGPort,LogFilesFolder,date,expName,psychopyVersion,frameRate,
IN DIESEM BLOCK KÖNNEN SIE EINFACH ENTSPANNT AN DIE AUFGABE HERANGEHEN. SIE SOLLEN SICH NICHT VERAUSGABEN.,100,Go,go,4,0,0,0,0,0,0,0,0,1,,,,,circle,63.34555209999962,63.84863779999978,63.83217909999985,63.932148199999574,4,1,0.6175677000001087,63.83217909999985,None,63.932148199999574,None,0.9824322999998912,64.46649289999914,None,64.46649289999914,None,,,,,,,,,,,,,,,,,,,,,,,,,,,,,,,,,,,,,,,,,,,,,,,,,,,,,,AG05AS29,1,0x5FB8,D:\CoScience\Logfiles\,2022_Mar_17_1032,GoNoGo,2020.1.3,59.965088325560025,
IN DIESEM BLOCK KÖNNEN SIE EINFACH ENTSPANNT AN DIE AUFGABE HERANGEHEN. SIE SOLLEN SICH NICHT VERAUSGABEN.,100,Go,go,4,0,0,0,0,0,0,1,1,0,,,,,,65.44823079999969,65.94875579999916,65.93234229999962,66.03220169999986,4,1,0.4724223000002894,65.93234229999962,None,66.03220169999986,None,1,66.43229569999949,None,66.43229569999949,None,,,,,,,,,,,,,,,,,,,,,,,,,,,,,,,,,,,,,,,,,,,,,,,,,,,,,,AG05AS29,1,0x5FB8,D:\CoScience\Logfiles\,2022_Mar_17_1032,GoNoGo,2020.1.3,59.965088325560025,
IN DIESEM BLOCK KÖNNEN SIE EINFACH ENTSPANNT AN DIE AUFGABE HERANGEHEN. SIE SOLLEN SICH NICHT VERAUSGABEN.,100,NoGo,nogo,None,0,0,0,0,0,0,2,2,2,,,,,,67.43263789999946,67.93218329999945,67.93218329999945,68.0318002999993,None,1,,67.93218329999945,None,68.0318002999993,None,0.9,68.63154889999987,None,68.63154889999987,None,,,,,,,,,,,,,,,,,,,,,,,,,,,,,,,,,,,,,,,,,,,,,,,,,,,,,,AG05AS29,1,0x5FB8,D:\CoScience\Logfiles\,2022_Mar_17_1032,GoNoGo,2020.1.3,59.965088325560025,
IN DIESEM BLOCK KÖNNEN SIE EINFACH ENTSPANNT AN DIE AUFGABE HERANGEHEN. SIE SOLLEN SICH NICHT VERAUSGABEN.,100,Go,go,4,0,0,0,0,0,1,0,3,1,,,,,,69.53165439999975,70.03210249999938,70.01551469999958,70.11543289999918,4,1,0.4523922999997012,70.01551469999958,None,70.11543289999918,None,1,70.49871099999928,None,70.49871099999928,None,,,,,,,,,,,,,,,,,,,,,,,,,,,,,,,,,,,,,,,,,,,,,,,,,,,,,,AG05AS29,1,0x5FB8,D:\CoScience\Logfiles\,2022_Mar_17_1032,GoNoGo,2020.1.3,59.965088325560025,
IN DIESEM BLOCK KÖNNEN SIE EINFACH ENTSPANNT AN DIE AUFGABE HERANGEHEN. SIE SOLLEN SICH NICHT VERAUSGABEN.,100,Go,go,4,0,0,0,0,0,1,1,4,0,,,,,,71.49870349999946,71.99878079999962,71.98210209999979,72.08208389999982,4,1,0.5146351000003051,71.98210209999979,None,72.08208389999982,None,1,72.51590509999915,None,72.51590509999915,None,,,,,,,,,,,,,,,,,,,,,,,,,,,,,,,,,,,,,,,,,,,,,,,,,,,,,,AG05AS29,1,0x5FB8,D:\CoScience\Logfiles\,2022_Mar_17_1032,GoNoGo,2020.1.3,59.965088325560025,
IN DIESEM BLOCK KÖNNEN SIE EINFACH ENTSPANNT AN DIE AUFGABE HERANGEHEN. SIE SOLLEN SICH NICHT VERAUSGABEN.,100,Go,go,4,0,0,0,0,0,1,2,5,1,,,,,,73.51518269999997,74.01544659999945,73.99885919999997,74.09879379999984,4,1,0.4609854999998788,73.99885919999997,None,74.09879379999984,None,1,74.48259869999947,None,74.48259869999947,None,,,,,,,,,,,,,,,,,,,,,,,,,,,,,,,,,,,,,,,,,,,,,,,,,,,,,,AG05AS29,1,0x5FB8,D:\CoScience\Logfiles\,2022_Mar_17_1032,GoNoGo,2020.1.3,59.965088325560025,
IN DIESEM BLOCK KÖNNEN SIE EINFACH ENTSPANNT AN DIE AUFGABE HERANGEHEN. SIE SOLLEN SICH NICHT VERAUSGABEN.,100,Go,go,4,0,0,0,0,0,2,0,6,0,,,,,,75.48172119999981,75.98216749999938,75.96550829999978,76.06554269999924,4,1,0.4053853000004892,75.96550829999978,None,76.06554269999924,None,1,76.39950769999996,None,76.39950769999996,None,,,,,,,,,,,,,,,,,,,,,,,,,,,,,,,,,,,,,,,,,,,,,,,,,,,,,,AG05AS29,1,0x5FB8,D:\CoScience\Logfiles\,2022_Mar_17_1032,GoNoGo,2020.1.3,59.965088325560025,
IN DIESEM BLOCK KÖNNEN SIE EINFACH ENTSPANNT AN DIE AUFGABE HERANGEHEN. SIE SOLLEN SICH NICHT VERAUSGABEN.,100,Go,go,4,0,0,0,0,0,2,1,7,1,,,,,,77.39850419999948,77.89879589999964,77.88225689999945,77.98218519999955,4,1,0.47747119999985443,77.88225689999945,None,77.98218519999955,None,1,78.38272379999944,None,78.38272379999944,None,,,,,,,,,,,,,,,,,,,,,,,,,,,,,,,,,,,,,,,,,,,,,,,,,,,,,,AG05AS29,1,0x5FB8,D:\CoScience\Logfiles\,2022_Mar_17_1032,GoNoGo,2020.1.3,59.965088325560025,
IN DIESEM BLOCK KÖNNEN SIE EINFACH ENTSPANNT AN DIE AUFGABE HERANGEHEN. SIE SOLLEN SICH NICHT VERAUSGABEN.,100,Go,go,4,0,0,0,0,0,2,2,8,1,,,,,,79.38192329999947,79.88203109999995,79.86551099999997,79.96551369999997,4,1,0.48332900000059453,79.86551099999997,None,79.96551369999997,None,1,80.36568279999938,None,80.36568279999938,None,,,,,,,,,,,,,,,,,,,,,,,,,,,,,,,,,,,,,,,,,,,,,,,,,,,,,,AG05AS29,1,0x5FB8,D:\CoScience\Logfiles\,2022_Mar_17_1032,GoNoGo,2020.1.3,59.965088325560025,
IN DIESEM BLOCK KÖNNEN SIE EINFACH ENTSPANNT AN DIE AUFGABE HERANGEHEN. SIE SOLLEN SICH NICHT VERAUSGABEN.,100,NoGo,nogo,None,0,0,0,0,0,3,0,9,2,,,,,,81.36485599999924,81.86529949999931,81.84845719999976,81.94886929999939,None,1,,81.84845719999976,None,81.94886929999939,None,0.9,82.54828539999926,None,82.54828539999926,None,,,,,,,,,,,,,,,,,,,,,,,,,,,,,,,,,,,,,,,,,,,,,,,,,,,,,,AG05AS29,1,0x5FB8,D:\CoScience\Logfiles\,2022_Mar_17_1032,GoNoGo,2020.1.3,59.965088325560025,
IN DIESEM BLOCK KÖNNEN SIE EINFACH ENTSPANNT AN DIE AUFGABE HERANGEHEN. SIE SOLLEN SICH NICHT VERAUSGABEN.,100,NoGo,nogo,None,0,0,0,0,0,3,1,10,2,,,,,,83.44850119999955,83.94864249999955,83.93218529999922,84.03215749999981,None,1,,83.93218529999922,None,84.03215749999981,None,0.9,84.63169349999953,None,84.63169349999953,None,,,,,,,,,,,,,,,,,,,,,,,,,,,,,,,,,,,,,,,,,,,,,,,,,,,,,,AG05AS29,1,0x5FB8,D:\CoScience\Logfiles\,2022_Mar_17_1032,GoNoGo,2020.1.3,59.965088325560025,
IN DIESEM BLOCK KÖNNEN SIE EINFACH ENTSPANNT AN DIE AUFGABE HERANGEHEN. SIE SOLLEN SICH NICHT VERAUSGABEN.,100,NoGo,nogo,None,0,0,0,0,0,3,2,11,2,,,,,,85.53191259999949,86.04888879999999,86.0155006999994,86.11547789999986,None,1,,86.0155006999994,None,86.11547789999986,None,0.9,86.71485799999937,None,86.71485799999937,None,,,,,,,,,,,,,,,,,,,,,,,,,,,,,,,,,,,,,,,,,,,,,,,,,,,,,,AG05AS29,1,0x5FB8,D:\CoScience\Logfiles\,2022_Mar_17_1032,GoNoGo,2020.1.3,59.965088325560025,
IN DIESEM BLOCK KÖNNEN SIE EINFACH ENTSPANNT AN DIE AUFGABE HERANGEHEN. SIE SOLLEN SICH NICHT VERAUSGABEN.,100,Go,go,4,0,0,0,0,0,4,0,12,0,,,,,,87.61462549999942,88.11531130000003,88.0989170999992,88.1988296999998,4,1,0.43977320000067266,88.0989170999992,None,88.1988296999998,None,1,88.56546049999997,None,88.56546049999997,None,,,,,,,,,,,,,,,,,,,,,,,,,,,,,,,,,,,,,,,,,,,,,,,,,,,,,,AG05AS29,1,0x5FB8,D:\CoScience\Logfiles\,2022_Mar_17_1032,GoNoGo,2020.1.3,59.965088325560025,
IN DIESEM BLOCK KÖNNEN SIE EINFACH ENTSPANNT AN DIE AUFGABE HERANGEHEN. SIE SOLLEN SICH NICHT VERAUSGABEN.,100,NoGo,nogo,None,0,0,0,0,0,4,1,13,2,,,,,,89.56460159999915,90.06538289999935,90.04898239999966,90.14883999999984,None,1,,90.04898239999966,None,90.14883999999984,None,0.9,90.7484418999993,None,90.7484418999993,None,,,,,,,,,,,,,,,,,,,,,,,,,,,,,,,,,,,,,,,,,,,,,,,,,,,,,,AG05AS29,1,0x5FB8,D:\CoScience\Logfiles\,2022_Mar_17_1032,GoNoGo,2020.1.3,59.965088325560025,
IN DIESEM BLOCK KÖNNEN SIE EINFACH ENTSPANNT AN DIE AUFGABE HERANGEHEN. SIE SOLLEN SICH NICHT VERAUSGABEN.,100,Go,go,4,0,0,0,0,0,4,2,14,0,,,,,,91.64814599999954,92.14886359999946,92.13220479999927,92.23224159999972,4,1,0.4024758000005022,92.13220479999927,None,92.23224159999972,None,1,92.56582259999959,None,92.56582259999959,None,,,,,,,,,,,,,,,,,,,,,,,,,,,,,,,,,,,,,,,,,,,,,,,,,,,,,,AG05AS29,1,0x5FB8,D:\CoScience\Logfiles\,2022_Mar_17_1032,GoNoGo,2020.1.3,59.965088325560025,
IN DIESEM BLOCK KÖNNEN SIE EINFACH ENTSPANNT AN DIE AUFGABE HERANGEHEN. SIE SOLLEN SICH NICHT VERAUSGABEN.,100,Go,go,4,1,0,0,0,0,,,,,0,0,0,0,,,,,,,,,,,,,1,104.80280729999959,None,104.80280729999959,None,93.59087229999932,None,101,111,103.84291839999969,104.34860769999977,104.33158899999944,104.43210719999934,4,1,0.45208220000040455,104.33158899999944,None,104.43210719999934,None,104.33158899999944,None,False,None,None,None,None,None,None,None,None,,,,,,,,,,,,,,,,,,,,,,,,,,,,AG05AS29,1,0x5FB8,D:\CoScience\Logfiles\,2022_Mar_17_1032,GoNoGo,2020.1.3,59.965088325560025,
IN DIESEM BLOCK KÖNNEN SIE EINFACH ENTSPANNT AN DIE AUFGABE HERANGEHEN. SIE SOLLEN SICH NICHT VERAUSGABEN.,100,Go,go,4,1,0,0,0,0,,,,,0,1,1,0,,,,,,,,,,,,,1,106.75226719999955,None,106.75226719999955,None,,,101,111,105.82580159999998,106.33191679999982,106.31552049999937,106.41537299999982,4,1,0.41221459999997023,106.31552049999937,None,106.41537299999982,None,106.31552049999937,None,False,None,None,None,None,None,None,None,None,,,,,,,,,,,,,,,,,,,,,,,,,,,,AG05AS29,1,0x5FB8,D:\CoScience\Logfiles\,2022_Mar_17_1032,GoNoGo,2020.1.3,59.965088325560025,
IN DIESEM BLOCK KÖNNEN SIE EINFACH ENTSPANNT AN DIE AUFGABE HERANGEHEN. SIE SOLLEN SICH NICHT VERAUSGABEN.,100,Go,go,4,1,0,0,0,0,,,,,0,2,2,1,,,,,,,,,,,,,1,108.85150099999919,None,108.85150099999919,None,,,101,111,107.7796314999996,108.28204039999946,108.26545819999956,108.36535430000004,4,1,0.5601970000006986,108.26545819999956,None,108.36535430000004,None,108.26545819999956,None,False,None,None,None,None,None,None,None,None,,,,,,,,,,,,,,,,,,,,,,,,,,,,AG05AS29,1,0x5FB8,D:\CoScience\Logfiles\,2022_Mar_17_1032,GoNoGo,2020.1.3,59.965088325560025,
IN DIESEM BLOCK KÖNNEN SIE EINFACH ENTSPANNT AN DIE AUFGABE HERANGEHEN. SIE SOLLEN SICH NICHT VERAUSGABEN.,100,Go,go,4,1,0,0,0,0,,,,,1,0,3,1,,,,,,,,,,,,,1,110.81851819999974,None,110.81851819999974,None,,,101,111,109.87960249999924,110.3820412999994,110.3654334999992,110.46534629999951,4,1,0.42024919999948906,110.3654334999992,None,110.46534629999951,None,110.3654334999992,None,False,None,None,None,None,None,None,None,None,,,,,,,,,,,,,,,,,,,,,,,,,,,,AG05AS29,1,0x5FB8,D:\CoScience\Logfiles\,2022_Mar_17_1032,GoNoGo,2020.1.3,59.965088325560025,
IN DIESEM BLOCK KÖNNEN SIE EINFACH ENTSPANNT AN DIE AUFGABE HERANGEHEN. SIE SOLLEN SICH NICHT VERAUSGABEN.,100,Go,go,4,1,0,0,0,0,,,,,1,1,4,0,,,,,,,,,,,,,1,112.8844182999992,None,112.8844182999992,None,,,101,111,111.8465370999993,112.34866749999946,112.33216229999925,112.43214079999962,4,1,0.521486200000254,112.33216229999925,None,112.43214079999962,None,112.33216229999925,None,False,None,None,None,None,None,None,None,None,,,,,,,,,,,,,,,,,,,,,,,,,,,,AG05AS29,1,0x5FB8,D:\CoScience\Logfiles\,2022_Mar_17_1032,GoNoGo,2020.1.3,59.965088325560025,
IN DIESEM BLOCK KÖNNEN SIE EINFACH ENTSPANNT AN DIE AUFGABE HERANGEHEN. SIE SOLLEN SICH NICHT VERAUSGABEN.,100,Go,go,4,1,0,0,0,0,,,,,1,2,5,0,,,,,,,,,,,,,0.9,115.10032629999932,None,115.10032629999932,None,,,101,0,113.91323329999977,114.41528559999915,114.39869699999963,114.4987543999996,None,0,,114.39869699999963,None,114.4987543999996,None,114.39869699999963,None,False,None,None,None,None,None,None,None,None,,,,,,,,,,,,,,,,,,,,,,,,,,,,AG05AS29,1,0x5FB8,D:\CoScience\Logfiles\,2022_Mar_17_1032,GoNoGo,2020.1.3,59.965088325560025,
IN DIESEM BLOCK KÖNNEN SIE EINFACH ENTSPANNT AN DIE AUFGABE HERANGEHEN. SIE SOLLEN SICH NICHT VERAUSGABEN.,100,NoGo,nogo,None,2,0,0,0,0,,,,,2,0,6,2,,,,,,,,,,,,,0.9,117.21653979999974,None,117.21653979999974,None,,,102,0,116.0297756,116.53179,116.5154950999995,116.61550859999988,None,1,,116.5154950999995,None,116.61550859999988,None,116.5154950999995,None,False,None,None,None,None,None,None,None,None,,,,,,,,,,,,,,,,,,,,,,,,,,,,AG05AS29,1,0x5FB8,D:\CoScience\Logfiles\,2022_Mar_17_1032,GoNoGo,2020.1.3,59.965088325560025,
IN DIESEM BLOCK KÖNNEN SIE EINFACH ENTSPANNT AN DIE AUFGABE HERANGEHEN. SIE SOLLEN SICH NICHT VERAUSGABEN.,100,Go,go,4,1,0,0,0,0,,,,,2,1,7,1,,,,,,,,,,,,,1,119.06795489999968,None,119.06795489999968,None,,,101,111,118.11627679999947,118.61547169999994,118.61547169999994,118.71541639999941,4,1,0.4262438000005204,118.61547169999994,None,118.71541639999941,None,118.61547169999994,None,False,None,None,None,None,None,None,None,None,,,,,,,,,,,,,,,,,,,,,,,,,,,,AG05AS29,1,0x5FB8,D:\CoScience\Logfiles\,2022_Mar_17_1032,GoNoGo,2020.1.3,59.965088325560025,
IN DIESEM BLOCK KÖNNEN SIE EINFACH ENTSPANNT AN DIE AUFGABE HERANGEHEN. SIE SOLLEN SICH NICHT VERAUSGABEN.,100,Go,go,4,1,0,0,0,0,,,,,2,2,8,0,,,,,,,,,,,,,1,121.06824159999996,None,121.06824159999996,None,,,101,111,120.09650599999986,120.59858709999935,120.58203089999915,120.68208340000001,4,1,0.4638671000002432,120.58203089999915,None,120.68208340000001,None,120.58203089999915,None,False,None,None,None,None,None,None,None,None,,,,,,,,,,,,,,,,,,,,,,,,,,,,AG05AS29,1,0x5FB8,D:\CoScience\Logfiles\,2022_Mar_17_1032,GoNoGo,2020.1.3,59.965088325560025,
IN DIESEM BLOCK KÖNNEN SIE EINFACH ENTSPANNT AN DIE AUFGABE HERANGEHEN. SIE SOLLEN SICH NICHT VERAUSGABEN.,100,Go,go,4,1,0,0,0,0,,,,,3,0,9,0,,,,,,,,,,,,,1,123.03540579999935,None,123.03540579999935,None,,,101,111,122.09645409999939,122.59868109999934,122.58213099999921,122.68205919999946,4,1,0.4256122000006144,122.58213099999921,None,122.68205919999946,None,122.58213099999921,None,False,None,None,None,None,None,None,None,None,,,,,,,,,,,,,,,,,,,,,,,,,,,,AG05AS29,1,0x5FB8,D:\CoScience\Logfiles\,2022_Mar_17_1032,GoNoGo,2020.1.3,59.965088325560025,
IN DIESEM BLOCK KÖNNEN SIE EINFACH ENTSPANNT AN DIE AUFGABE HERANGEHEN. SIE SOLLEN SICH NICHT VERAUSGABEN.,100,Go,go,4,1,0,0,0,0,,,,,3,1,10,1,,,,,,,,,,,,,1,125.01800409999942,None,125.01800409999942,None,,,101,111,124.06335760000002,124.5653782999998,124.54876069999955,124.64866139999958,4,1,0.44400059999952646,124.54876069999955,None,124.64866139999958,None,124.54876069999955,None,False,None,None,None,None,None,None,None,None,,,,,,,,,,,,,,,,,,,,,,,,,,,,AG05AS29,1,0x5FB8,D:\CoScience\Logfiles\,2022_Mar_17_1032,GoNoGo,2020.1.3,59.965088325560025,
IN DIESEM BLOCK KÖNNEN SIE EINFACH ENTSPANNT AN DIE AUFGABE HERANGEHEN. SIE SOLLEN SICH NICHT VERAUSGABEN.,100,Go,go,4,1,0,0,0,0,,,,,3,2,11,1,,,,,,,,,,,,,1,127.08538999999928,None,127.08538999999928,None,,,101,111,126.04667099999915,126.5484392999997,126.53210679999938,126.63225169999987,4,1,0.527820199999951,126.53210679999938,None,126.63225169999987,None,126.53210679999938,None,False,None,None,None,None,None,None,None,None,,,,,,,,,,,,,,,,,,,,,,,,,,,,AG05AS29,1,0x5FB8,D:\CoScience\Logfiles\,2022_Mar_17_1032,GoNoGo,2020.1.3,59.965088325560025,
IN DIESEM BLOCK KÖNNEN SIE EINFACH ENTSPANNT AN DIE AUFGABE HERANGEHEN. SIE SOLLEN SICH NICHT VERAUSGABEN.,100,Go,go,4,1,0,0,0,0,,,,,4,0,12,0,,,,,,,,,,,,,1,129.0528236,None,129.0528236,None,,,101,111,128.11335449999933,128.61534529999972,128.59872749999977,128.69871289999992,4,1,0.42802430000028835,128.59872749999977,None,128.69871289999992,None,128.59872749999977,None,False,None,None,None,None,None,None,None,None,,,,,,,,,,,,,,,,,,,,,,,,,,,,AG05AS29,1,0x5FB8,D:\CoScience\Logfiles\,2022_Mar_17_1032,GoNoGo,2020.1.3,59.965088325560025,
IN DIESEM BLOCK KÖNNEN SIE EINFACH ENTSPANNT AN DIE AUFGABE HERANGEHEN. SIE SOLLEN SICH NICHT VERAUSGABEN.,100,Go,go,4,1,0,0,0,0,,,,,4,1,13,1,,,,,,,,,,,,,1,131.05172709999988,None,131.05172709999988,None,,,101,111,130.07977399999982,130.58197299999938,130.5654872999994,130.6653237999999,4,1,0.4581140000000232,130.5654872999994,None,130.6653237999999,None,130.5654872999994,None,False,None,None,None,None,None,None,None,None,,,,,,,,,,,,,,,,,,,,,,,,,,,,AG05AS29,1,0x5FB8,D:\CoScience\Logfiles\,2022_Mar_17_1032,GoNoGo,2020.1.3,59.965088325560025,
IN DIESEM BLOCK KÖNNEN SIE EINFACH ENTSPANNT AN DIE AUFGABE HERANGEHEN. SIE SOLLEN SICH NICHT VERAUSGABEN.,100,NoGo,nogo,None,2,0,0,0,0,,,,,4,2,14,2,,,,,,,,,,,,,0.9,133.26611279999997,None,133.26611279999997,None,,,102,0,132.0661410999992,132.56542329999957,132.56542329999957,132.66541589999997,None,1,,132.56542329999957,None,132.66541589999997,None,132.56542329999957,None,False,None,None,None,None,None,None,None,None,,,,,,,,,,,,,,,,,,,,,,,,,,,,AG05AS29,1,0x5FB8,D:\CoScience\Logfiles\,2022_Mar_17_1032,GoNoGo,2020.1.3,59.965088325560025,
IN DIESEM BLOCK KÖNNEN SIE EINFACH ENTSPANNT AN DIE AUFGABE HERANGEHEN. SIE SOLLEN SICH NICHT VERAUSGABEN.,100,Go,go,4,1,0,0,0,0,,,,,5,0,15,0,,,,,,,,,,,,,1,135.11887169999954,None,135.11887169999954,None,,,101,111,134.16735619999963,134.68194589999985,134.66536279999946,134.76536749999923,4,1,0.4283672999999908,134.66536279999946,None,134.76536749999923,None,134.66536279999946,None,False,None,None,None,None,None,None,None,None,,,,,,,,,,,,,,,,,,,,,,,,,,,,AG05AS29,1,0x5FB8,D:\CoScience\Logfiles\,2022_Mar_17_1032,GoNoGo,2020.1.3,59.965088325560025,
IN DIESEM BLOCK KÖNNEN SIE EINFACH ENTSPANNT AN DIE AUFGABE HERANGEHEN. SIE SOLLEN SICH NICHT VERAUSGABEN.,100,Go,go,4,1,0,0,0,0,,,,,5,1,16,1,,,,,,,,,,,,,1,137.11909119999927,None,137.11909119999927,None,,,101,111,136.13265859999956,136.63180829999965,136.63180829999965,136.73213880000003,4,1,0.4658102000003055,136.63180829999965,None,136.73213880000003,None,136.63180829999965,None,False,None,None,None,None,None,None,None,None,,,,,,,,,,,,,,,,,,,,,,,,,,,,AG05AS29,1,0x5FB8,D:\CoScience\Logfiles\,2022_Mar_17_1032,GoNoGo,2020.1.3,59.965088325560025,
IN DIESEM BLOCK KÖNNEN SIE EINFACH ENTSPANNT AN DIE AUFGABE HERANGEHEN. SIE SOLLEN SICH NICHT VERAUSGABEN.,100,Go,go,4,1,0,0,0,0,,,,,5,2,17,1,,,,,,,,,,,,,1,139.15194119999978,None,139.15194119999978,None,,,101,111,138.1464720999993,138.64862229999926,138.63199149999946,138.73214279999956,4,1,0.4948804999994536,138.63199149999946,None,138.73214279999956,None,138.63199149999946,None,False,None,None,None,None,None,None,None,None,,,,,,,,,,,,,,,,,,,,,,,,,,,,AG05AS29,1,0x5FB8,D:\CoScience\Logfiles\,2022_Mar_17_1032,GoNoGo,2020.1.3,59.965088325560025,
IN DIESEM BLOCK KÖNNEN SIE EINFACH ENTSPANNT AN DIE AUFGABE HERANGEHEN. SIE SOLLEN SICH NICHT VERAUSGABEN.,100,Go,go,4,1,0,0,0,0,,,,,6,0,18,1,,,,,,,,,,,,,1,141.16959009999937,None,141.16959009999937,None,,,101,111,140.17978089999997,140.68185859999994,140.66541849999976,140.76542229999995,4,1,0.47920499999963795,140.66541849999976,None,140.76542229999995,None,140.66541849999976,None,False,None,None,None,None,None,None,None,None,,,,,,,,,,,,,,,,,,,,,,,,,,,,AG05AS29,1,0x5FB8,D:\CoScience\Logfiles\,2022_Mar_17_1032,GoNoGo,2020.1.3,59.965088325560025,
IN DIESEM BLOCK KÖNNEN SIE EINFACH ENTSPANNT AN DIE AUFGABE HERANGEHEN. SIE SOLLEN SICH NICHT VERAUSGABEN.,100,Go,go,4,1,0,0,0,0,,,,,6,1,19,1,,,,,,,,,,,,,1,143.1017116999992,None,143.1017116999992,None,,,101,111,142.19645799999944,142.6986268999999,142.6820388999995,142.78157309999915,4,1,0.3955554000003758,142.6820388999995,None,142.78157309999915,None,142.6820388999995,None,False,None,None,None,None,None,None,None,None,,,,,,,,,,,,,,,,,,,,,,,,,,,,AG05AS29,1,0x5FB8,D:\CoScience\Logfiles\,2022_Mar_17_1032,GoNoGo,2020.1.3,59.965088325560025,
IN DIESEM BLOCK KÖNNEN SIE EINFACH ENTSPANNT AN DIE AUFGABE HERANGEHEN. SIE SOLLEN SICH NICHT VERAUSGABEN.,100,Go,go,4,1,0,0,0,0,,,,,6,2,20,0,,,,,,,,,,,,,1,145.0019838999997,None,145.0019838999997,None,,,101,111,144.12952079999923,144.63188419999915,144.61532149999948,144.7152748999997,4,1,0.3532875000000786,144.61532149999948,None,144.7152748999997,None,144.61532149999948,None,False,None,None,None,None,None,None,None,None,,,,,,,,,,,,,,,,,,,,,,,,,,,,AG05AS29,1,0x5FB8,D:\CoScience\Logfiles\,2022_Mar_17_1032,GoNoGo,2020.1.3,59.965088325560025,
IN DIESEM BLOCK KÖNNEN SIE EINFACH ENTSPANNT AN DIE AUFGABE HERANGEHEN. SIE SOLLEN SICH NICHT VERAUSGABEN.,100,Go,go,4,1,0,0,0,0,,,,,7,0,21,0,,,,,,,,,,,,,1,146.95207949999985,None,146.95207949999985,None,,,101,111,146.02979049999976,146.5314773,146.51500959999976,146.61541489999945,4,1,0.40658890000031533,146.51500959999976,None,146.61541489999945,None,146.51500959999976,None,False,None,None,None,None,None,None,None,None,,,,,,,,,,,,,,,,,,,,,,,,,,,,AG05AS29,1,0x5FB8,D:\CoScience\Logfiles\,2022_Mar_17_1032,GoNoGo,2020.1.3,59.965088325560025,
IN DIESEM BLOCK KÖNNEN SIE EINFACH ENTSPANNT AN DIE AUFGABE HERANGEHEN. SIE SOLLEN SICH NICHT VERAUSGABEN.,100,NoGo,nogo,None,2,0,0,0,0,,,,,7,1,22,2,,,,,,,,,,,,,0.9,149.1665725999992,None,149.1665725999992,None,,,102,0,147.9655084999995,148.46535239999957,148.46535239999957,148.56525229999988,None,1,,148.46535239999957,None,148.56525229999988,None,148.46535239999957,None,False,None,None,None,None,None,None,None,None,,,,,,,,,,,,,,,,,,,,,,,,,,,,AG05AS29,1,0x5FB8,D:\CoScience\Logfiles\,2022_Mar_17_1032,GoNoGo,2020.1.3,59.965088325560025,
IN DIESEM BLOCK KÖNNEN SIE EINFACH ENTSPANNT AN DIE AUFGABE HERANGEHEN. SIE SOLLEN SICH NICHT VERAUSGABEN.,100,Go,go,4,1,0,0,0,0,,,,,7,2,23,0,,,,,,,,,,,,,1,150.95175569999992,None,150.95175569999992,None,,,101,111,150.06613149999976,150.56537859999935,150.56537859999935,150.66538760000003,4,1,0.35814100000061444,150.56537859999935,None,150.66538760000003,None,150.56537859999935,None,False,None,None,None,None,None,None,None,None,,,,,,,,,,,,,,,,,,,,,,,,,,,,AG05AS29,1,0x5FB8,D:\CoScience\Logfiles\,2022_Mar_17_1032,GoNoGo,2020.1.3,59.965088325560025,
IN DIESEM BLOCK KÖNNEN SIE EINFACH ENTSPANNT AN DIE AUFGABE HERANGEHEN. SIE SOLLEN SICH NICHT VERAUSGABEN.,100,NoGo,nogo,None,2,0,0,0,0,,,,,8,0,24,2,,,,,,,,,,,,,1,153.01932709999983,None,153.01932709999983,None,,,102,120,151.9667069999996,152.48198439999942,152.4655757999999,152.56547769999997,4,0,0.5339960999999676,152.4655757999999,None,152.56547769999997,None,152.4655757999999,None,False,None,None,None,None,None,None,None,None,,,,,,,,,,,,,,,,,,,,,,,,,,,,AG05AS29,1,0x5FB8,D:\CoScience\Logfiles\,2022_Mar_17_1032,GoNoGo,2020.1.3,59.965088325560025,
IN DIESEM BLOCK KÖNNEN SIE EINFACH ENTSPANNT AN DIE AUFGABE HERANGEHEN. SIE SOLLEN SICH NICHT VERAUSGABEN.,100,Go,go,4,1,0,0,0,0,,,,,8,1,25,0,,,,,,,,,,,,,1,155.01875139999993,None,155.01875139999993,None,,,101,111,154.03274859999965,154.53208610000001,154.53208610000001,154.6321199999993,4,1,0.46273139999993873,154.53208610000001,None,154.6321199999993,None,154.53208610000001,None,False,None,None,None,None,None,None,None,None,,,,,,,,,,,,,,,,,,,,,,,,,,,,AG05AS29,1,0x5FB8,D:\CoScience\Logfiles\,2022_Mar_17_1032,GoNoGo,2020.1.3,59.965088325560025,
IN DIESEM BLOCK KÖNNEN SIE EINFACH ENTSPANNT AN DIE AUFGABE HERANGEHEN. SIE SOLLEN SICH NICHT VERAUSGABEN.,100,NoGo,nogo,None,2,0,0,0,0,,,,,8,2,26,2,,,,,,,,,,,,,0.9,157.23264039999958,None,157.23264039999958,None,,,102,0,156.03358019999996,156.54830309999943,156.53193089999968,156.63212609999937,None,1,,156.53193089999968,None,156.63212609999937,None,156.53193089999968,None,False,None,None,None,None,None,None,None,None,,,,,,,,,,,,,,,,,,,,,,,,,,,,AG05AS29,1,0x5FB8,D:\CoScience\Logfiles\,2022_Mar_17_1032,GoNoGo,2020.1.3,59.965088325560025,
IN DIESEM BLOCK KÖNNEN SIE EINFACH ENTSPANNT AN DIE AUFGABE HERANGEHEN. SIE SOLLEN SICH NICHT VERAUSGABEN.,100,NoGo,nogo,None,2,0,0,0,0,,,,,9,0,27,2,,,,,,,,,,,,,0.9,159.33304429999953,None,159.33304429999953,None,,,102,0,158.14652579999984,158.64863459999924,158.63205449999987,158.73195339999984,None,1,,158.63205449999987,None,158.73195339999984,None,158.63205449999987,None,False,None,None,None,None,None,None,None,None,,,,,,,,,,,,,,,,,,,,,,,,,,,,AG05AS29,1,0x5FB8,D:\CoScience\Logfiles\,2022_Mar_17_1032,GoNoGo,2020.1.3,59.965088325560025,
IN DIESEM BLOCK KÖNNEN SIE EINFACH ENTSPANNT AN DIE AUFGABE HERANGEHEN. SIE SOLLEN SICH NICHT VERAUSGABEN.,100,Go,go,4,1,0,0,0,0,,,,,9,1,28,1,,,,,,,,,,,,,1,161.2352839999994,None,161.2352839999994,None,,,101,111,160.23350599999958,160.74843519999922,160.73199999999997,160.83202110000002,4,1,0.4827543000001242,160.73199999999997,None,160.83202110000002,None,160.73199999999997,None,False,None,None,None,None,None,None,None,None,,,,,,,,,,,,,,,,,,,,,,,,,,,,AG05AS29,1,0x5FB8,D:\CoScience\Logfiles\,2022_Mar_17_1032,GoNoGo,2020.1.3,59.965088325560025,
IN DIESEM BLOCK KÖNNEN SIE EINFACH ENTSPANNT AN DIE AUFGABE HERANGEHEN. SIE SOLLEN SICH NICHT VERAUSGABEN.,100,NoGo,nogo,None,2,0,0,0,0,,,,,9,2,29,2,,,,,,,,,,,,,0.9,163.44933749999927,None,163.44933749999927,None,,,102,0,162.24941789999957,162.74860269999954,162.74860269999954,162.84869479999998,None,1,,162.74860269999954,None,162.84869479999998,None,162.74860269999954,None,False,None,None,None,None,None,None,None,None,,,,,,,,,,,,,,,,,,,,,,,,,,,,AG05AS29,1,0x5FB8,D:\CoScience\Logfiles\,2022_Mar_17_1032,GoNoGo,2020.1.3,59.965088325560025,
IN DIESEM BLOCK KÖNNEN SIE EINFACH ENTSPANNT AN DIE AUFGABE HERANGEHEN. SIE SOLLEN SICH NICHT VERAUSGABEN.,100,Go,go,4,1,0,0,0,0,,,,,10,0,30,0,,,,,,,,,,,,,1,165.30199359999915,None,165.30199359999915,None,,,101,111,164.35018629999922,164.86514850000003,164.84864059999927,164.94854639999994,4,1,0.4199471000001722,164.84864059999927,None,164.94854639999994,None,164.84864059999927,None,False,None,None,None,None,None,None,None,None,,,,,,,,,,,,,,,,,,,,,,,,,,,,AG05AS29,1,0x5FB8,D:\CoScience\Logfiles\,2022_Mar_17_1032,GoNoGo,2020.1.3,59.965088325560025,
IN DIESEM BLOCK KÖNNEN SIE EINFACH ENTSPANNT AN DIE AUFGABE HERANGEHEN. SIE SOLLEN SICH NICHT VERAUSGABEN.,100,Go,go,4,1,0,0,0,0,,,,,10,1,31,0,,,,,,,,,,,,,1,167.33460149999974,None,167.33460149999974,None,,,101,111,166.32964709999942,166.83186679999926,166.8154414999999,166.91531509999913,4,1,0.498284600000261,166.8154414999999,None,166.91531509999913,None,166.8154414999999,None,False,None,None,None,None,None,None,None,None,,,,,,,,,,,,,,,,,,,,,,,,,,,,AG05AS29,1,0x5FB8,D:\CoScience\Logfiles\,2022_Mar_17_1032,GoNoGo,2020.1.3,59.965088325560025,
IN DIESEM BLOCK KÖNNEN SIE EINFACH ENTSPANNT AN DIE AUFGABE HERANGEHEN. SIE SOLLEN SICH NICHT VERAUSGABEN.,100,NoGo,nogo,None,2,0,0,0,0,,,,,10,2,32,2,,,,,,,,,,,,,0.9,169.5498949999992,None,169.5498949999992,None,,,102,0,168.3629177999992,168.86529919999975,168.8486954,168.9486726999994,None,1,,168.8486954,None,168.9486726999994,None,168.8486954,None,False,None,None,None,None,None,None,None,None,,,,,,,,,,,,,,,,,,,,,,,,,,,,AG05AS29,1,0x5FB8,D:\CoScience\Logfiles\,2022_Mar_17_1032,GoNoGo,2020.1.3,59.965088325560025,
IN DIESEM BLOCK KÖNNEN SIE EINFACH ENTSPANNT AN DIE AUFGABE HERANGEHEN. SIE SOLLEN SICH NICHT VERAUSGABEN.,100,Go,go,4,1,0,0,0,0,,,,,11,0,33,1,,,,,,,,,,,,,1,171.43411079999987,None,171.43411079999987,None,,,101,111,170.46670619999986,170.98180429999957,170.96547629999986,171.06536059999962,4,1,0.444203799999741,170.96547629999986,None,171.06536059999962,None,170.96547629999986,None,False,None,None,None,None,None,None,None,None,,,,,,,,,,,,,,,,,,,,,,,,,,,,AG05AS29,1,0x5FB8,D:\CoScience\Logfiles\,2022_Mar_17_1032,GoNoGo,2020.1.3,59.965088325560025,
IN DIESEM BLOCK KÖNNEN SIE EINFACH ENTSPANNT AN DIE AUFGABE HERANGEHEN. SIE SOLLEN SICH NICHT VERAUSGABEN.,100,Go,go,4,1,0,0,0,0,,,,,11,1,34,1,,,,,,,,,,,,,1,173.44940039999983,None,173.44940039999983,None,,,101,111,172.46287219999977,172.96528529999978,172.94872199999918,173.04871079999975,4,1,0.47184010000000853,172.94872199999918,None,173.04871079999975,None,172.94872199999918,None,False,None,None,None,None,None,None,None,None,,,,,,,,,,,,,,,,,,,,,,,,,,,,AG05AS29,1,0x5FB8,D:\CoScience\Logfiles\,2022_Mar_17_1032,GoNoGo,2020.1.3,59.965088325560025,
IN DIESEM BLOCK KÖNNEN SIE EINFACH ENTSPANNT AN DIE AUFGABE HERANGEHEN. SIE SOLLEN SICH NICHT VERAUSGABEN.,100,NoGo,nogo,None,2,0,0,0,0,,,,,11,2,35,2,,,,,,,,,,,,,0.9,175.66637209999953,None,175.66637209999953,None,,,102,0,174.46664429999964,174.98179359999995,174.96539329999996,175.06541930000003,None,1,,174.96539329999996,None,175.06541930000003,None,174.96539329999996,None,False,None,None,None,None,None,None,None,None,,,,,,,,,,,,,,,,,,,,,,,,,,,,AG05AS29,1,0x5FB8,D:\CoScience\Logfiles\,2022_Mar_17_1032,GoNoGo,2020.1.3,59.965088325560025,
IN DIESEM BLOCK KÖNNEN SIE EINFACH ENTSPANNT AN DIE AUFGABE HERANGEHEN. SIE SOLLEN SICH NICHT VERAUSGABEN.,100,Go,go,4,1,0,0,0,0,,,,,12,0,36,0,,,,,,,,,,,,,1,177.55114419999973,None,177.55114419999973,None,,,101,111,176.56599449999976,177.06533330000002,177.06533330000002,177.16546429999926,4,1,0.45922539999992296,177.06533330000002,None,177.16546429999926,None,177.06533330000002,None,False,None,None,None,None,None,None,None,None,,,,,,,,,,,,,,,,,,,,,,,,,,,,AG05AS29,1,0x5FB8,D:\CoScience\Logfiles\,2022_Mar_17_1032,GoNoGo,2020.1.3,59.965088325560025,
IN DIESEM BLOCK KÖNNEN SIE EINFACH ENTSPANNT AN DIE AUFGABE HERANGEHEN. SIE SOLLEN SICH NICHT VERAUSGABEN.,100,NoGo,nogo,None,2,0,0,0,0,,,,,12,1,37,2,,,,,,,,,,,,,0.9,179.7660576999997,None,179.7660576999997,None,,,102,0,178.56616309999936,179.06534649999958,179.06534649999958,179.16532469999947,None,1,,179.06534649999958,None,179.16532469999947,None,179.06534649999958,None,False,None,None,None,None,None,None,None,None,,,,,,,,,,,,,,,,,,,,,,,,,,,,AG05AS29,1,0x5FB8,D:\CoScience\Logfiles\,2022_Mar_17_1032,GoNoGo,2020.1.3,59.965088325560025,
IN DIESEM BLOCK KÖNNEN SIE EINFACH ENTSPANNT AN DIE AUFGABE HERANGEHEN. SIE SOLLEN SICH NICHT VERAUSGABEN.,100,Go,go,4,1,0,0,0,0,,,,,12,2,38,0,,,,,,,,,,,,,1,181.5516388999995,None,181.5516388999995,None,,,101,111,180.66585809999924,181.18119829999978,181.16423080000004,181.2653765999994,4,1,0.3664938000001712,181.16423080000004,None,181.2653765999994,None,181.16423080000004,None,False,None,None,None,None,None,None,None,None,,,,,,,,,,,,,,,,,,,,,,,,,,,,AG05AS29,1,0x5FB8,D:\CoScience\Logfiles\,2022_Mar_17_1032,GoNoGo,2020.1.3,59.965088325560025,
IN DIESEM BLOCK KÖNNEN SIE EINFACH ENTSPANNT AN DIE AUFGABE HERANGEHEN. SIE SOLLEN SICH NICHT VERAUSGABEN.,100,Go,go,4,1,0,0,0,0,,,,,13,0,39,0,,,,,,,,,,,,,1,183.56921559999955,None,183.56921559999955,None,,,101,111,182.57976019999933,183.08192429999963,183.0652242999995,183.16523849999976,4,1,0.48339499999929103,183.0652242999995,None,183.16523849999976,None,183.0652242999995,None,False,None,None,None,None,None,None,None,None,,,,,,,,,,,,,,,,,,,,,,,,,,,,AG05AS29,1,0x5FB8,D:\CoScience\Logfiles\,2022_Mar_17_1032,GoNoGo,2020.1.3,59.965088325560025,
IN DIESEM BLOCK KÖNNEN SIE EINFACH ENTSPANNT AN DIE AUFGABE HERANGEHEN. SIE SOLLEN SICH NICHT VERAUSGABEN.,100,Go,go,4,1,0,0,0,0,,,,,13,1,40,1,,,,,,,,,,,,,1,185.5525619,None,185.5525619,None,,,101,111,184.5965774999995,185.0984426999994,185.08200209999995,185.18200230000002,4,1,0.4515400000000227,185.08200209999995,None,185.18200230000002,None,185.08200209999995,None,False,None,None,None,None,None,None,None,None,,,,,,,,,,,,,,,,,,,,,,,,,,,,AG05AS29,1,0x5FB8,D:\CoScience\Logfiles\,2022_Mar_17_1032,GoNoGo,2020.1.3,59.965088325560025,
IN DIESEM BLOCK KÖNNEN SIE EINFACH ENTSPANNT AN DIE AUFGABE HERANGEHEN. SIE SOLLEN SICH NICHT VERAUSGABEN.,100,Go,go,4,1,0,0,0,0,,,,,13,2,41,0,,,,,,,,,,,,,1,187.61894389999998,None,187.61894389999998,None,,,101,111,186.57968999999957,187.08189239999956,187.06529839999985,187.16516559999945,4,1,0.5292970000000423,187.06529839999985,None,187.16516559999945,None,187.06529839999985,None,False,None,None,None,None,None,None,None,None,,,,,,,,,,,,,,,,,,,,,,,,,,,,AG05AS29,1,0x5FB8,D:\CoScience\Logfiles\,2022_Mar_17_1032,GoNoGo,2020.1.3,59.965088325560025,
IN DIESEM BLOCK KÖNNEN SIE EINFACH ENTSPANNT AN DIE AUFGABE HERANGEHEN. SIE SOLLEN SICH NICHT VERAUSGABEN.,100,NoGo,nogo,None,2,0,0,0,0,,,,,14,0,42,2,,,,,,,,,,,,,0.9,189.83356079999976,None,189.83356079999976,None,,,102,0,188.6327007,189.1316186999993,189.1316186999993,189.2320439999994,None,1,,189.1316186999993,None,189.2320439999994,None,189.1316186999993,None,False,None,None,None,None,None,None,None,None,,,,,,,,,,,,,,,,,,,,,,,,,,,,AG05AS29,1,0x5FB8,D:\CoScience\Logfiles\,2022_Mar_17_1032,GoNoGo,2020.1.3,59.965088325560025,
IN DIESEM BLOCK KÖNNEN SIE EINFACH ENTSPANNT AN DIE AUFGABE HERANGEHEN. SIE SOLLEN SICH NICHT VERAUSGABEN.,100,Go,go,4,1,0,0,0,0,,,,,14,1,43,0,,,,,,,,,,,,,1,191.7190041999993,None,191.7190041999993,None,,,101,111,190.75026379999963,191.2651681999996,191.2487457999996,191.3487370999992,4,1,0.44744139999966137,191.2487457999996,None,191.3487370999992,None,191.2487457999996,None,False,None,None,None,None,None,None,None,None,,,,,,,,,,,,,,,,,,,,,,,,,,,,AG05AS29,1,0x5FB8,D:\CoScience\Logfiles\,2022_Mar_17_1032,GoNoGo,2020.1.3,59.965088325560025,
IN DIESEM BLOCK KÖNNEN SIE EINFACH ENTSPANNT AN DIE AUFGABE HERANGEHEN. SIE SOLLEN SICH NICHT VERAUSGABEN.,100,NoGo,nogo,None,2,0,0,0,0,,,,,14,2,44,2,,,,,,,,,,,,,0.9,193.93309239999962,None,193.93309239999962,None,,,102,0,192.73268989999997,193.23203269999976,193.23203269999976,193.3319361999993,None,1,,193.23203269999976,None,193.3319361999993,None,193.23203269999976,None,False,None,None,None,None,None,None,None,None,,,,,,,,,,,,,,,,,,,,,,,,,,,,AG05AS29,1,0x5FB8,D:\CoScience\Logfiles\,2022_Mar_17_1032,GoNoGo,2020.1.3,59.965088325560025,
IN DIESEM BLOCK KÖNNEN SIE EINFACH ENTSPANNT AN DIE AUFGABE HERANGEHEN. SIE SOLLEN SICH NICHT VERAUSGABEN.,100,NoGo,nogo,None,2,0,0,0,0,,,,,15,0,45,2,,,,,,,,,,,,,0.9,196.0496061999993,None,196.0496061999993,None,,,102,0,194.86310569999932,195.3651265999997,195.34866799999963,195.44869589999962,None,1,,195.34866799999963,None,195.44869589999962,None,195.34866799999963,None,False,None,None,None,None,None,None,None,None,,,,,,,,,,,,,,,,,,,,,,,,,,,,AG05AS29,1,0x5FB8,D:\CoScience\Logfiles\,2022_Mar_17_1032,GoNoGo,2020.1.3,59.965088325560025,
IN DIESEM BLOCK KÖNNEN SIE EINFACH ENTSPANNT AN DIE AUFGABE HERANGEHEN. SIE SOLLEN SICH NICHT VERAUSGABEN.,100,Go,go,4,1,0,0,0,0,,,,,15,1,46,1,,,,,,,,,,,,,1,197.90168939999967,None,197.90168939999967,None,,,101,111,196.9493278,197.4484038999999,197.4484038999999,197.54868559999977,4,1,0.41908450000028097,197.4484038999999,None,197.54868559999977,None,197.4484038999999,None,False,None,None,None,None,None,None,None,None,,,,,,,,,,,,,,,,,,,,,,,,,,,,AG05AS29,1,0x5FB8,D:\CoScience\Logfiles\,2022_Mar_17_1032,GoNoGo,2020.1.3,59.965088325560025,
IN DIESEM BLOCK KÖNNEN SIE EINFACH ENTSPANNT AN DIE AUFGABE HERANGEHEN. SIE SOLLEN SICH NICHT VERAUSGABEN.,100,Go,go,4,1,0,0,0,0,,,,,15,2,47,1,,,,,,,,,,,,,1,199.9216007999994,None,199.9216007999994,None,,,101,111,198.92975879999995,199.43189859999984,199.4153542999993,199.5152791999999,4,1,0.47821339999973134,199.4153542999993,None,199.5152791999999,None,199.4153542999993,None,False,None,None,None,None,None,None,None,None,,,,,,,,,,,,,,,,,,,,,,,,,,,,AG05AS29,1,0x5FB8,D:\CoScience\Logfiles\,2022_Mar_17_1032,GoNoGo,2020.1.3,59.965088325560025,
IN DIESEM BLOCK KÖNNEN SIE EINFACH ENTSPANNT AN DIE AUFGABE HERANGEHEN. SIE SOLLEN SICH NICHT VERAUSGABEN.,100,Go,go,4,1,0,0,0,0,,,,,16,0,48,1,,,,,,,,,,,,,1,201.88492419999966,None,201.88492419999966,None,,,101,111,200.94626749999952,201.44844529999955,201.43197369999962,201.53196529999968,4,1,0.41964220000045316,201.43197369999962,None,201.53196529999968,None,201.43197369999962,None,False,None,None,None,None,None,None,None,None,,,,,,,,,,,,,,,,,,,,,,,,,,,,AG05AS29,1,0x5FB8,D:\CoScience\Logfiles\,2022_Mar_17_1032,GoNoGo,2020.1.3,59.965088325560025,
IN DIESEM BLOCK KÖNNEN SIE EINFACH ENTSPANNT AN DIE AUFGABE HERANGEHEN. SIE SOLLEN SICH NICHT VERAUSGABEN.,100,Go,go,4,1,0,0,0,0,,,,,16,1,49,1,,,,,,,,,,,,,1,203.85259699999915,None,203.85259699999915,None,,,101,111,202.9131123999996,203.41521749999993,203.39863779999996,203.4986457999994,4,1,0.4328883999996833,203.39863779999996,None,203.4986457999994,None,203.39863779999996,None,False,None,None,None,None,None,None,None,None,,,,,,,,,,,,,,,,,,,,,,,,,,,,AG05AS29,1,0x5FB8,D:\CoScience\Logfiles\,2022_Mar_17_1032,GoNoGo,2020.1.3,59.965088325560025,
IN DIESEM BLOCK KÖNNEN SIE EINFACH ENTSPANNT AN DIE AUFGABE HERANGEHEN. SIE SOLLEN SICH NICHT VERAUSGABEN.,100,NoGo,nogo,None,2,0,0,0,0,,,,,16,2,50,2,,,,,,,,,,,,,0.9,206.06643189999977,None,206.06643189999977,None,,,102,0,204.86602649999986,205.36521599999924,205.36521599999924,205.4652200999999,None,1,,205.36521599999924,None,205.4652200999999,None,205.36521599999924,None,False,None,None,None,None,None,None,None,None,,,,,,,,,,,,,,,,,,,,,,,,,,,,AG05AS29,1,0x5FB8,D:\CoScience\Logfiles\,2022_Mar_17_1032,GoNoGo,2020.1.3,59.965088325560025,
IN DIESEM BLOCK KÖNNEN SIE EINFACH ENTSPANNT AN DIE AUFGABE HERANGEHEN. SIE SOLLEN SICH NICHT VERAUSGABEN.,100,Go,go,4,1,0,0,0,0,,,,,17,0,51,1,,,,,,,,,,,,,0.9,208.1832375999993,None,208.1832375999993,None,,,101,0,206.98250909999933,207.48198189999948,207.48198189999948,207.5818518999995,None,0,,207.48198189999948,None,207.5818518999995,None,207.48198189999948,None,False,None,None,None,None,None,None,None,None,,,,,,,,,,,,,,,,,,,,,,,,,,,,AG05AS29,1,0x5FB8,D:\CoScience\Logfiles\,2022_Mar_17_1032,GoNoGo,2020.1.3,59.965088325560025,
IN DIESEM BLOCK KÖNNEN SIE EINFACH ENTSPANNT AN DIE AUFGABE HERANGEHEN. SIE SOLLEN SICH NICHT VERAUSGABEN.,100,NoGo,nogo,None,2,0,0,0,0,,,,,17,1,52,2,,,,,,,,,,,,,0.9,210.29955379999956,None,210.29955379999956,None,,,102,0,209.09871479999947,209.59865929999978,209.59865929999978,209.6986055999996,None,1,,209.59865929999978,None,209.6986055999996,None,209.59865929999978,None,False,None,None,None,None,None,None,None,None,,,,,,,,,,,,,,,,,,,,,,,,,,,,AG05AS29,1,0x5FB8,D:\CoScience\Logfiles\,2022_Mar_17_1032,GoNoGo,2020.1.3,59.965088325560025,
IN DIESEM BLOCK KÖNNEN SIE EINFACH ENTSPANNT AN DIE AUFGABE HERANGEHEN. SIE SOLLEN SICH NICHT VERAUSGABEN.,100,NoGo,nogo,None,2,0,0,0,0,,,,,17,2,53,2,,,,,,,,,,,,,0.9,212.41635009999936,None,212.41635009999936,None,,,102,0,211.22970129999976,211.73183289999997,211.7153159999998,211.8153442999992,None,1,,211.7153159999998,None,211.8153442999992,None,211.7153159999998,None,False,None,None,None,None,None,None,None,None,,,,,,,,,,,,,,,,,,,,,,,,,,,,AG05AS29,1,0x5FB8,D:\CoScience\Logfiles\,2022_Mar_17_1032,GoNoGo,2020.1.3,59.965088325560025,
IN DIESEM BLOCK KÖNNEN SIE EINFACH ENTSPANNT AN DIE AUFGABE HERANGEHEN. SIE SOLLEN SICH NICHT VERAUSGABEN.,100,Go,go,4,1,0,0,0,0,,,,,18,0,54,0,,,,,,,,,,,,,1,214.30192979999993,None,214.30192979999993,None,,,101,111,213.33346019999954,213.84832239999923,213.8318735999992,213.93188179999925,4,1,0.45065150000027643,213.8318735999992,None,213.93188179999925,None,213.8318735999992,None,False,None,None,None,None,None,None,None,None,,,,,,,,,,,,,,,,,,,,,,,,,,,,AG05AS29,1,0x5FB8,D:\CoScience\Logfiles\,2022_Mar_17_1032,GoNoGo,2020.1.3,59.965088325560025,
IN DIESEM BLOCK KÖNNEN SIE EINFACH ENTSPANNT AN DIE AUFGABE HERANGEHEN. SIE SOLLEN SICH NICHT VERAUSGABEN.,100,Go,go,4,1,0,0,0,0,,,,,18,1,55,1,,,,,,,,,,,,,1,216.23389549999956,None,216.23389549999956,None,,,101,111,215.31608209999922,215.81534639999973,215.81534639999973,215.91524029999982,4,1,0.388144900000043,215.81534639999973,None,215.91524029999982,None,215.81534639999973,None,False,None,None,None,None,None,None,None,None,,,,,,,,,,,,,,,,,,,,,,,,,,,,AG05AS29,1,0x5FB8,D:\CoScience\Logfiles\,2022_Mar_17_1032,GoNoGo,2020.1.3,59.965088325560025,
IN DIESEM BLOCK KÖNNEN SIE EINFACH ENTSPANNT AN DIE AUFGABE HERANGEHEN. SIE SOLLEN SICH NICHT VERAUSGABEN.,100,Go,go,4,1,0,0,0,0,,,,,18,2,56,1,,,,,,,,,,,,,1,218.18551829999979,None,218.18551829999979,None,,,101,111,217.26316629999928,217.76519969999936,217.7487042999992,217.84875739999916,4,1,0.4169675000002826,217.7487042999992,None,217.84875739999916,None,217.7487042999992,None,False,None,None,None,None,None,None,None,None,,,,,,,,,,,,,,,,,,,,,,,,,,,,AG05AS29,1,0x5FB8,D:\CoScience\Logfiles\,2022_Mar_17_1032,GoNoGo,2020.1.3,59.965088325560025,
IN DIESEM BLOCK KÖNNEN SIE EINFACH ENTSPANNT AN DIE AUFGABE HERANGEHEN. SIE SOLLEN SICH NICHT VERAUSGABEN.,100,Go,go,4,1,0,0,0,0,,,,,19,0,57,1,,,,,,,,,,,,,1,220.1022740999997,None,220.1022740999997,None,,,101,111,219.2130389999993,219.71515609999915,219.69850580000002,219.79844009999943,4,1,0.37898800000039046,219.69850580000002,None,219.79844009999943,None,219.69850580000002,None,False,None,None,None,None,None,None,None,None,,,,,,,,,,,,,,,,,,,,,,,,,,,,AG05AS29,1,0x5FB8,D:\CoScience\Logfiles\,2022_Mar_17_1032,GoNoGo,2020.1.3,59.965088325560025,
IN DIESEM BLOCK KÖNNEN SIE EINFACH ENTSPANNT AN DIE AUFGABE HERANGEHEN. SIE SOLLEN SICH NICHT VERAUSGABEN.,100,Go,go,4,1,0,0,0,0,,,,,19,1,58,1,,,,,,,,,,,,,1,222.0195404999995,None,222.0195404999995,None,,,101,111,221.1160646999997,221.6152878999992,221.6152878999992,221.71533049999925,4,1,0.38216820000070584,221.6152878999992,None,221.71533049999925,None,221.6152878999992,None,False,None,None,None,None,None,None,None,None,,,,,,,,,,,,,,,,,,,,,,,,,,,,AG05AS29,1,0x5FB8,D:\CoScience\Logfiles\,2022_Mar_17_1032,GoNoGo,2020.1.3,59.965088325560025,
IN DIESEM BLOCK KÖNNEN SIE EINFACH ENTSPANNT AN DIE AUFGABE HERANGEHEN. SIE SOLLEN SICH NICHT VERAUSGABEN.,100,NoGo,nogo,None,2,0,0,0,0,,,,,19,2,59,2,,,,,,,,,,,,,0.9,224.23257249999915,None,224.23257249999915,None,,,102,0,223.03341229999933,223.54849029999968,223.53174390000004,223.6318287999993,None,1,,223.53174390000004,None,223.6318287999993,None,223.53174390000004,None,False,None,None,None,None,None,None,None,None,,,,,,,,,,,,,,,,,,,,,,,,,,,,AG05AS29,1,0x5FB8,D:\CoScience\Logfiles\,2022_Mar_17_1032,GoNoGo,2020.1.3,59.965088325560025,
IN DIESEM BLOCK KÖNNEN SIE EINFACH ENTSPANNT AN DIE AUFGABE HERANGEHEN. SIE SOLLEN SICH NICHT VERAUSGABEN.,100,Go,go,4,1,0,0,0,0,,,,,20,0,60,0,,,,,,,,,,,,,1,226.16893039999923,None,226.16893039999923,None,,,101,111,225.13344929999948,225.64829729999929,225.63196489999973,225.73192019999988,4,1,0.5116015999992669,225.63196489999973,None,225.73192019999988,None,225.63196489999973,None,False,None,None,None,None,None,None,None,None,,,,,,,,,,,,,,,,,,,,,,,,,,,,AG05AS29,1,0x5FB8,D:\CoScience\Logfiles\,2022_Mar_17_1032,GoNoGo,2020.1.3,59.965088325560025,
IN DIESEM BLOCK KÖNNEN SIE EINFACH ENTSPANNT AN DIE AUFGABE HERANGEHEN. SIE SOLLEN SICH NICHT VERAUSGABEN.,100,Go,go,4,1,0,0,0,0,,,,,20,1,61,0,,,,,,,,,,,,,1,228.0851862999998,None,228.0851862999998,None,,,101,111,227.1962472999994,227.6984027999997,227.68196629999966,227.78196129999924,4,1,0.37953550000020186,227.68196629999966,None,227.78196129999924,None,227.68196629999966,None,False,None,None,None,None,None,None,None,None,,,,,,,,,,,,,,,,,,,,,,,,,,,,AG05AS29,1,0x5FB8,D:\CoScience\Logfiles\,2022_Mar_17_1032,GoNoGo,2020.1.3,59.965088325560025,
IN DIESEM BLOCK KÖNNEN SIE EINFACH ENTSPANNT AN DIE AUFGABE HERANGEHEN. SIE SOLLEN SICH NICHT VERAUSGABEN.,100,NoGo,nogo,None,2,0,0,0,0,,,,,20,2,62,2,,,,,,,,,,,,,0.9,230.29985719999968,None,230.29985719999968,None,,,102,0,229.09922319999987,229.59864619999917,229.59864619999917,229.69864809999945,None,1,,229.59864619999917,None,229.69864809999945,None,229.59864619999917,None,False,None,None,None,None,None,None,None,None,,,,,,,,,,,,,,,,,,,,,,,,,,,,AG05AS29,1,0x5FB8,D:\CoScience\Logfiles\,2022_Mar_17_1032,GoNoGo,2020.1.3,59.965088325560025,
IN DIESEM BLOCK KÖNNEN SIE EINFACH ENTSPANNT AN DIE AUFGABE HERANGEHEN. SIE SOLLEN SICH NICHT VERAUSGABEN.,100,NoGo,nogo,None,2,0,0,0,0,,,,,21,0,63,2,,,,,,,,,,,,,0.9,232.41617749999932,None,232.41617749999932,None,,,102,0,231.22974879999947,231.73183939999944,231.71533799999997,231.8152700999999,None,1,,231.71533799999997,None,231.8152700999999,None,231.71533799999997,None,False,None,None,None,None,None,None,None,None,,,,,,,,,,,,,,,,,,,,,,,,,,,,AG05AS29,1,0x5FB8,D:\CoScience\Logfiles\,2022_Mar_17_1032,GoNoGo,2020.1.3,59.965088325560025,
IN DIESEM BLOCK KÖNNEN SIE EINFACH ENTSPANNT AN DIE AUFGABE HERANGEHEN. SIE SOLLEN SICH NICHT VERAUSGABEN.,100,Go,go,4,1,0,0,0,0,,,,,21,1,64,0,,,,,,,,,,,,,0.9,234.51762459999918,None,234.51762459999918,None,,,101,0,233.3168556999999,233.8317823999996,233.8151552999998,233.9153467999995,None,0,,233.8151552999998,None,233.9153467999995,None,233.8151552999998,None,False,None,None,None,None,None,None,None,None,,,,,,,,,,,,,,,,,,,,,,,,,,,,AG05AS29,1,0x5FB8,D:\CoScience\Logfiles\,2022_Mar_17_1032,GoNoGo,2020.1.3,59.965088325560025,
IN DIESEM BLOCK KÖNNEN SIE EINFACH ENTSPANNT AN DIE AUFGABE HERANGEHEN. SIE SOLLEN SICH NICHT VERAUSGABEN.,100,NoGo,nogo,None,2,0,0,0,0,,,,,21,2,65,2,,,,,,,,,,,,,0.9,236.63270099999954,None,236.63270099999954,None,,,102,0,235.4323147999994,235.9317478999992,235.9317478999992,236.03186069999992,None,1,,235.9317478999992,None,236.03186069999992,None,235.9317478999992,None,False,None,None,None,None,None,None,None,None,,,,,,,,,,,,,,,,,,,,,,,,,,,,AG05AS29,1,0x5FB8,D:\CoScience\Logfiles\,2022_Mar_17_1032,GoNoGo,2020.1.3,59.965088325560025,
IN DIESEM BLOCK KÖNNEN SIE EINFACH ENTSPANNT AN DIE AUFGABE HERANGEHEN. SIE SOLLEN SICH NICHT VERAUSGABEN.,100,Go,go,4,1,0,0,0,0,,,,,22,0,66,0,,,,,,,,,,,,,1,238.63803889999963,None,238.63803889999963,None,,,101,111,237.5329585999998,238.04829539999992,238.0319357999997,238.13194889999977,4,1,0.5734627000001637,238.0319357999997,None,238.13194889999977,None,238.0319357999997,None,False,None,None,None,None,None,None,None,None,,,,,,,,,,,,,,,,,,,,,,,,,,,,AG05AS29,1,0x5FB8,D:\CoScience\Logfiles\,2022_Mar_17_1032,GoNoGo,2020.1.3,59.965088325560025,
IN DIESEM BLOCK KÖNNEN SIE EINFACH ENTSPANNT AN DIE AUFGABE HERANGEHEN. SIE SOLLEN SICH NICHT VERAUSGABEN.,100,Go,go,4,1,0,0,0,0,,,,,22,1,67,0,,,,,,,,,,,,,1,240.6850227999994,None,240.6850227999994,None,,,101,111,239.6493916999998,240.14864549999947,240.14864549999947,240.24859979999928,4,1,0.5029905999999755,240.14864549999947,None,240.24859979999928,None,240.14864549999947,None,False,None,None,None,None,None,None,None,None,,,,,,,,,,,,,,,,,,,,,,,,,,,,AG05AS29,1,0x5FB8,D:\CoScience\Logfiles\,2022_Mar_17_1032,GoNoGo,2020.1.3,59.965088325560025,
IN DIESEM BLOCK KÖNNEN SIE EINFACH ENTSPANNT AN DIE AUFGABE HERANGEHEN. SIE SOLLEN SICH NICHT VERAUSGABEN.,100,NoGo,nogo,None,2,0,0,0,0,,,,,22,2,68,2,,,,,,,,,,,,,0.9,242.89929979999943,None,242.89929979999943,None,,,102,0,241.69927929999994,242.19862999999987,242.19862999999987,242.29855379999935,None,1,,242.19862999999987,None,242.29855379999935,None,242.19862999999987,None,False,None,None,None,None,None,None,None,None,,,,,,,,,,,,,,,,,,,,,,,,,,,,AG05AS29,1,0x5FB8,D:\CoScience\Logfiles\,2022_Mar_17_1032,GoNoGo,2020.1.3,59.965088325560025,
IN DIESEM BLOCK KÖNNEN SIE EINFACH ENTSPANNT AN DIE AUFGABE HERANGEHEN. SIE SOLLEN SICH NICHT VERAUSGABEN.,100,NoGo,nogo,None,2,0,0,0,0,,,,,23,0,69,2,,,,,,,,,,,,,0.9,244.99980849999974,None,244.99980849999974,None,,,102,0,243.8129360999992,244.3151756999996,244.29860559999997,244.3985606999995,None,1,,244.29860559999997,None,244.3985606999995,None,244.29860559999997,None,False,None,None,None,None,None,None,None,None,,,,,,,,,,,,,,,,,,,,,,,,,,,,AG05AS29,1,0x5FB8,D:\CoScience\Logfiles\,2022_Mar_17_1032,GoNoGo,2020.1.3,59.965088325560025,
IN DIESEM BLOCK KÖNNEN SIE EINFACH ENTSPANNT AN DIE AUFGABE HERANGEHEN. SIE SOLLEN SICH NICHT VERAUSGABEN.,100,NoGo,nogo,None,2,0,0,0,0,,,,,23,1,70,2,,,,,,,,,,,,,0.9,247.0992225,None,247.0992225,None,,,102,0,245.91478459999962,246.41504429999986,246.39860669999962,246.49858929999937,None,1,,246.39860669999962,None,246.49858929999937,None,246.39860669999962,None,False,None,None,None,None,None,None,None,None,,,,,,,,,,,,,,,,,,,,,,,,,,,,AG05AS29,1,0x5FB8,D:\CoScience\Logfiles\,2022_Mar_17_1032,GoNoGo,2020.1.3,59.965088325560025,
IN DIESEM BLOCK KÖNNEN SIE EINFACH ENTSPANNT AN DIE AUFGABE HERANGEHEN. SIE SOLLEN SICH NICHT VERAUSGABEN.,100,Go,go,4,1,0,0,0,0,,,,,23,2,71,0,,,,,,,,,,,,,1,248.93572640000002,None,248.93572640000002,None,,,101,111,247.99923879999915,248.49858459999996,248.49858459999996,248.59825069999988,4,1,0.4129110000003493,248.49858459999996,None,248.59825069999988,None,248.49858459999996,None,False,None,None,None,None,None,None,None,None,,,,,,,,,,,,,,,,,,,,,,,,,,,,AG05AS29,1,0x5FB8,D:\CoScience\Logfiles\,2022_Mar_17_1032,GoNoGo,2020.1.3,59.965088325560025,
IN DIESEM BLOCK KÖNNEN SIE EINFACH ENTSPANNT AN DIE AUFGABE HERANGEHEN. SIE SOLLEN SICH NICHT VERAUSGABEN.,100,NoGo,nogo,None,2,0,0,0,0,,,,,24,0,72,2,,,,,,,,,,,,,0.9,251.1495686999997,None,251.1495686999997,None,,,102,0,249.9489885999992,250.4485468999992,250.4485468999992,250.54859229999965,None,1,,250.4485468999992,None,250.54859229999965,None,250.4485468999992,None,False,None,None,None,None,None,None,None,None,,,,,,,,,,,,,,,,,,,,,,,,,,,,AG05AS29,1,0x5FB8,D:\CoScience\Logfiles\,2022_Mar_17_1032,GoNoGo,2020.1.3,59.965088325560025,
IN DIESEM BLOCK KÖNNEN SIE EINFACH ENTSPANNT AN DIE AUFGABE HERANGEHEN. SIE SOLLEN SICH NICHT VERAUSGABEN.,100,NoGo,nogo,None,2,0,0,0,0,,,,,24,1,73,2,,,,,,,,,,,,,0.9,253.24918179999986,None,253.24918179999986,None,,,102,0,252.0630240999999,252.56516669999928,252.54864999999972,252.6482232999997,None,1,,252.54864999999972,None,252.6482232999997,None,252.54864999999972,None,False,None,None,None,None,None,None,None,None,,,,,,,,,,,,,,,,,,,,,,,,,,,,AG05AS29,1,0x5FB8,D:\CoScience\Logfiles\,2022_Mar_17_1032,GoNoGo,2020.1.3,59.965088325560025,
IN DIESEM BLOCK KÖNNEN SIE EINFACH ENTSPANNT AN DIE AUFGABE HERANGEHEN. SIE SOLLEN SICH NICHT VERAUSGABEN.,100,Go,go,4,1,0,0,0,0,,,,,24,2,74,0,,,,,,,,,,,,,1,255.0854405,None,255.0854405,None,,,101,111,254.14919079999981,254.64865869999994,254.64865869999994,254.74858289999975,4,1,0.41485089999969205,254.64865869999994,None,254.74858289999975,None,254.64865869999994,None,False,None,None,None,None,None,None,None,None,,,,,,,,,,,,,,,,,,,,,,,,,,,,AG05AS29,1,0x5FB8,D:\CoScience\Logfiles\,2022_Mar_17_1032,GoNoGo,2020.1.3,59.965088325560025,
IN DIESEM BLOCK KÖNNEN SIE EINFACH ENTSPANNT AN DIE AUFGABE HERANGEHEN. SIE SOLLEN SICH NICHT VERAUSGABEN.,100,Go,go,4,1,0,0,0,0,,,,,25,0,75,1,,,,,,,,,,,,,1,257.10148409999965,None,257.10148409999965,None,,,101,111,256.11294799999996,256.61511429999973,256.59847139999965,256.6985145999997,4,1,0.4731365999996342,256.59847139999965,None,256.6985145999997,None,256.59847139999965,None,False,None,None,None,None,None,None,None,None,,,,,,,,,,,,,,,,,,,,,,,,,,,,AG05AS29,1,0x5FB8,D:\CoScience\Logfiles\,2022_Mar_17_1032,GoNoGo,2020.1.3,59.965088325560025,
IN DIESEM BLOCK KÖNNEN SIE EINFACH ENTSPANNT AN DIE AUFGABE HERANGEHEN. SIE SOLLEN SICH NICHT VERAUSGABEN.,100,Go,go,4,1,0,0,0,0,,,,,25,1,76,0,,,,,,,,,,,,,1,259.0176918999996,None,259.0176918999996,None,,,101,111,258.1295978999997,258.6318102999994,258.6153005999995,258.71527569999944,4,1,0.3834284000004118,258.6153005999995,None,258.71527569999944,None,258.6153005999995,None,False,None,None,None,None,None,None,None,None,,,,,,,,,,,,,,,,,,,,,,,,,,,,AG05AS29,1,0x5FB8,D:\CoScience\Logfiles\,2022_Mar_17_1032,GoNoGo,2020.1.3,59.965088325560025,
IN DIESEM BLOCK KÖNNEN SIE EINFACH ENTSPANNT AN DIE AUFGABE HERANGEHEN. SIE SOLLEN SICH NICHT VERAUSGABEN.,100,Go,go,4,1,0,0,0,0,,,,,25,2,77,0,,,,,,,,,,,,,1,261.03516299999956,None,261.03516299999956,None,,,101,111,260.0325745,260.5319421999993,260.5319421999993,260.6319868999999,4,1,0.4804957000005743,260.5319421999993,None,260.6319868999999,None,260.5319421999993,None,False,None,None,None,None,None,None,None,None,,,,,,,,,,,,,,,,,,,,,,,,,,,,AG05AS29,1,0x5FB8,D:\CoScience\Logfiles\,2022_Mar_17_1032,GoNoGo,2020.1.3,59.965088325560025,
IN DIESEM BLOCK KÖNNEN SIE EINFACH ENTSPANNT AN DIE AUFGABE HERANGEHEN. SIE SOLLEN SICH NICHT VERAUSGABEN.,100,Go,go,4,1,0,0,0,0,,,,,26,0,78,0,,,,,,,,,,,,,1,262.9189065999999,None,262.9189065999999,None,,,101,111,262.0628253999994,262.5647276999998,262.54812559999937,262.6485307999992,4,1,0.35130819999994856,262.54812559999937,None,262.6485307999992,None,262.54812559999937,None,False,None,None,None,None,None,None,None,None,,,,,,,,,,,,,,,,,,,,,,,,,,,,AG05AS29,1,0x5FB8,D:\CoScience\Logfiles\,2022_Mar_17_1032,GoNoGo,2020.1.3,59.965088325560025,
IN DIESEM BLOCK KÖNNEN SIE EINFACH ENTSPANNT AN DIE AUFGABE HERANGEHEN. SIE SOLLEN SICH NICHT VERAUSGABEN.,100,Go,go,4,1,0,0,0,0,,,,,26,1,79,0,,,,,,,,,,,,,1,264.8684850999998,None,264.8684850999998,None,,,101,111,263.9325812999996,264.4319195999997,264.4319195999997,264.53192749999926,4,1,0.410552700000153,264.4319195999997,None,264.53192749999926,None,264.4319195999997,None,False,None,None,None,None,None,None,None,None,,,,,,,,,,,,,,,,,,,,,,,,,,,,AG05AS29,1,0x5FB8,D:\CoScience\Logfiles\,2022_Mar_17_1032,GoNoGo,2020.1.3,59.965088325560025,
IN DIESEM BLOCK KÖNNEN SIE EINFACH ENTSPANNT AN DIE AUFGABE HERANGEHEN. SIE SOLLEN SICH NICHT VERAUSGABEN.,100,NoGo,nogo,None,2,0,0,0,0,,,,,26,2,80,2,,,,,,,,,,,,,0.9,267.0824802999996,None,267.0824802999996,None,,,102,0,265.8824786999994,266.3818606999994,266.3818606999994,266.48182709999946,None,1,,266.3818606999994,None,266.48182709999946,None,266.3818606999994,None,False,None,None,None,None,None,None,None,None,,,,,,,,,,,,,,,,,,,,,,,,,,,,AG05AS29,1,0x5FB8,D:\CoScience\Logfiles\,2022_Mar_17_1032,GoNoGo,2020.1.3,59.965088325560025,
IN DIESEM BLOCK KÖNNEN SIE EINFACH ENTSPANNT AN DIE AUFGABE HERANGEHEN. SIE SOLLEN SICH NICHT VERAUSGABEN.,100,NoGo,nogo,None,2,0,0,0,0,,,,,27,0,81,2,,,,,,,,,,,,,0.9,269.1824151999999,None,269.1824151999999,None,,,102,0,267.99620139999934,268.4982702999996,268.48182969999925,268.58197999999993,None,1,,268.48182969999925,None,268.58197999999993,None,268.48182969999925,None,False,None,None,None,None,None,None,None,None,,,,,,,,,,,,,,,,,,,,,,,,,,,,AG05AS29,1,0x5FB8,D:\CoScience\Logfiles\,2022_Mar_17_1032,GoNoGo,2020.1.3,59.965088325560025,
IN DIESEM BLOCK KÖNNEN SIE EINFACH ENTSPANNT AN DIE AUFGABE HERANGEHEN. SIE SOLLEN SICH NICHT VERAUSGABEN.,100,Go,go,4,1,0,0,0,0,,,,,27,1,82,1,,,,,,,,,,,,,1,271.0859443999998,None,271.0859443999998,None,,,101,111,270.08258619999924,270.5817664999995,270.5817664999995,270.68196909999915,4,1,0.4839210999998613,270.5817664999995,None,270.68196909999915,None,270.5817664999995,None,False,None,None,None,None,None,None,None,None,,,,,,,,,,,,,,,,,,,,,,,,,,,,AG05AS29,1,0x5FB8,D:\CoScience\Logfiles\,2022_Mar_17_1032,GoNoGo,2020.1.3,59.965088325560025,
IN DIESEM BLOCK KÖNNEN SIE EINFACH ENTSPANNT AN DIE AUFGABE HERANGEHEN. SIE SOLLEN SICH NICHT VERAUSGABEN.,100,Go,go,4,1,0,0,0,0,,,,,27,2,83,0,,,,,,,,,,,,,1,273.05220179999924,None,273.05220179999924,None,,,101,111,272.09864539999944,272.59822259999964,272.59822259999964,272.6987204999996,4,1,0.4272071999994296,272.59822259999964,None,272.6987204999996,None,272.59822259999964,None,False,None,None,None,None,None,None,None,None,,,,,,,,,,,,,,,,,,,,,,,,,,,,AG05AS29,1,0x5FB8,D:\CoScience\Logfiles\,2022_Mar_17_1032,GoNoGo,2020.1.3,59.965088325560025,
IN DIESEM BLOCK KÖNNEN SIE EINFACH ENTSPANNT AN DIE AUFGABE HERANGEHEN. SIE SOLLEN SICH NICHT VERAUSGABEN.,100,Go,go,4,1,0,0,0,0,,,,,28,0,84,1,,,,,,,,,,,,,1,275.0516949999992,None,275.0516949999992,None,,,101,111,274.0794544999999,274.5815604999998,274.5651122999998,274.6651949999996,4,1,0.46625049999965995,274.5651122999998,None,274.6651949999996,None,274.5651122999998,None,False,None,None,None,None,None,None,None,None,,,,,,,,,,,,,,,,,,,,,,,,,,,,AG05AS29,1,0x5FB8,D:\CoScience\Logfiles\,2022_Mar_17_1032,GoNoGo,2020.1.3,59.965088325560025,
IN DIESEM BLOCK KÖNNEN SIE EINFACH ENTSPANNT AN DIE AUFGABE HERANGEHEN. SIE SOLLEN SICH NICHT VERAUSGABEN.,100,Go,go,4,1,0,0,0,0,,,,,28,1,85,0,,,,,,,,,,,,,1,277.0184600999992,None,277.0184600999992,None,,,101,111,276.0795249999992,276.5817101999992,276.5650558999996,276.6651254999997,4,1,0.4274403999997958,276.5650558999996,None,276.6651254999997,None,276.5650558999996,None,False,None,None,None,None,None,None,None,None,,,,,,,,,,,,,,,,,,,,,,,,,,,,AG05AS29,1,0x5FB8,D:\CoScience\Logfiles\,2022_Mar_17_1032,GoNoGo,2020.1.3,59.965088325560025,
IN DIESEM BLOCK KÖNNEN SIE EINFACH ENTSPANNT AN DIE AUFGABE HERANGEHEN. SIE SOLLEN SICH NICHT VERAUSGABEN.,100,NoGo,nogo,None,2,0,0,0,0,,,,,28,2,86,2,,,,,,,,,,,,,0.9,279.2324762999997,None,279.2324762999997,None,,,102,0,278.0324054999992,278.53191719999995,278.53191719999995,278.63201169999957,None,1,,278.53191719999995,None,278.63201169999957,None,278.53191719999995,None,False,None,None,None,None,None,None,None,None,,,,,,,,,,,,,,,,,,,,,,,,,,,,AG05AS29,1,0x5FB8,D:\CoScience\Logfiles\,2022_Mar_17_1032,GoNoGo,2020.1.3,59.965088325560025,
IN DIESEM BLOCK KÖNNEN SIE EINFACH ENTSPANNT AN DIE AUFGABE HERANGEHEN. SIE SOLLEN SICH NICHT VERAUSGABEN.,100,Go,go,4,1,0,0,0,0,,,,,29,0,87,1,,,,,,,,,,,,,1,281.10180949999994,None,281.10180949999994,None,,,101,111,280.13337689999935,280.64842599999974,280.63178759999937,280.7317508999995,4,1,0.4486653000003571,280.63178759999937,None,280.7317508999995,None,280.63178759999937,None,False,None,None,None,None,None,None,None,None,,,,,,,,,,,,,,,,,,,,,,,,,,,,AG05AS29,1,0x5FB8,D:\CoScience\Logfiles\,2022_Mar_17_1032,GoNoGo,2020.1.3,59.965088325560025,
IN DIESEM BLOCK KÖNNEN SIE EINFACH ENTSPANNT AN DIE AUFGABE HERANGEHEN. SIE SOLLEN SICH NICHT VERAUSGABEN.,100,Go,go,4,1,0,0,0,0,,,,,29,1,88,0,,,,,,,,,,,,,1,283.10232799999994,None,283.10232799999994,None,,,101,111,282.1293345999993,282.6311737999995,282.6148527999994,282.7151789999998,4,1,0.46254550000048766,282.6148527999994,None,282.7151789999998,None,282.6148527999994,None,False,None,None,None,None,None,None,None,None,,,,,,,,,,,,,,,,,,,,,,,,,,,,AG05AS29,1,0x5FB8,D:\CoScience\Logfiles\,2022_Mar_17_1032,GoNoGo,2020.1.3,59.965088325560025,
IN DIESEM BLOCK KÖNNEN SIE EINFACH ENTSPANNT AN DIE AUFGABE HERANGEHEN. SIE SOLLEN SICH NICHT VERAUSGABEN.,100,Go,go,4,1,0,0,0,0,,,,,29,2,89,1,,,,,,,,,,,,,1,285.10122109999975,None,285.10122109999975,None,,,101,111,284.1295700999999,284.6317171999999,284.6151781999997,284.71519419999913,4,1,0.4672700999999506,284.6151781999997,None,284.71519419999913,None,284.6151781999997,None,False,None,None,None,None,None,None,None,None,,,,,,,,,,,,,,,,,,,,,,,,,,,,AG05AS29,1,0x5FB8,D:\CoScience\Logfiles\,2022_Mar_17_1032,GoNoGo,2020.1.3,59.965088325560025,
IN DIESEM BLOCK KÖNNEN SIE EINFACH ENTSPANNT AN DIE AUFGABE HERANGEHEN. SIE SOLLEN SICH NICHT VERAUSGABEN.,100,Go,go,4,1,0,0,0,0,,,,,30,0,90,1,,,,,,,,,,,,,1,287.1003903999999,None,287.1003903999999,None,,,101,111,286.1158760999997,286.6152446999995,286.6152446999995,286.7152295999995,4,1,0.4541646999996374,286.6152446999995,None,286.7152295999995,None,286.6152446999995,None,False,None,None,None,None,None,None,None,None,,,,,,,,,,,,,,,,,,,,,,,,,,,,AG05AS29,1,0x5FB8,D:\CoScience\Logfiles\,2022_Mar_17_1032,GoNoGo,2020.1.3,59.965088325560025,
IN DIESEM BLOCK KÖNNEN SIE EINFACH ENTSPANNT AN DIE AUFGABE HERANGEHEN. SIE SOLLEN SICH NICHT VERAUSGABEN.,100,Go,go,4,1,0,0,0,0,,,,,30,1,91,0,,,,,,,,,,,,,1,289.05134309999994,None,289.05134309999994,None,,,101,111,288.1294804999998,288.6316191999995,288.6152118,288.7151374999994,4,1,0.41817860000082874,288.6152118,None,288.7151374999994,None,288.6152118,None,False,None,None,None,None,None,None,None,None,,,,,,,,,,,,,,,,,,,,,,,,,,,,AG05AS29,1,0x5FB8,D:\CoScience\Logfiles\,2022_Mar_17_1032,GoNoGo,2020.1.3,59.965088325560025,
IN DIESEM BLOCK KÖNNEN SIE EINFACH ENTSPANNT AN DIE AUFGABE HERANGEHEN. SIE SOLLEN SICH NICHT VERAUSGABEN.,100,Go,go,4,1,0,0,0,0,,,,,30,2,92,1,,,,,,,,,,,,,1,291.0009668999992,None,291.0009668999992,None,,,101,111,290.07957259999966,290.5817541999995,290.5651835999997,290.66517139999996,4,1,0.41427629999998317,290.5651835999997,None,290.66517139999996,None,290.5651835999997,None,False,None,None,None,None,None,None,None,None,,,,,,,,,,,,,,,,,,,,,,,,,,,,AG05AS29,1,0x5FB8,D:\CoScience\Logfiles\,2022_Mar_17_1032,GoNoGo,2020.1.3,59.965088325560025,
IN DIESEM BLOCK KÖNNEN SIE EINFACH ENTSPANNT AN DIE AUFGABE HERANGEHEN. SIE SOLLEN SICH NICHT VERAUSGABEN.,100,NoGo,nogo,None,2,0,0,0,0,,,,,31,0,93,2,,,,,,,,,,,,,0.9,293.2163252,None,293.2163252,None,,,102,0,292.01578269999936,292.51514939999925,292.51514939999925,292.6150463999993,None,1,,292.51514939999925,None,292.6150463999993,None,292.51514939999925,None,False,None,None,None,None,None,None,None,None,,,,,,,,,,,,,,,,,,,,,,,,,,,,AG05AS29,1,0x5FB8,D:\CoScience\Logfiles\,2022_Mar_17_1032,GoNoGo,2020.1.3,59.965088325560025,
IN DIESEM BLOCK KÖNNEN SIE EINFACH ENTSPANNT AN DIE AUFGABE HERANGEHEN. SIE SOLLEN SICH NICHT VERAUSGABEN.,100,Go,go,4,1,0,0,0,0,,,,,31,1,94,0,,,,,,,,,,,,,1,295.08525289999943,None,295.08525289999943,None,,,101,111,294.13256009999986,294.6318343999992,294.6318343999992,294.7318815999997,4,1,0.43153390000043146,294.6318343999992,None,294.7318815999997,None,294.6318343999992,None,False,None,None,None,None,None,None,None,None,,,,,,,,,,,,,,,,,,,,,,,,,,,,AG05AS29,1,0x5FB8,D:\CoScience\Logfiles\,2022_Mar_17_1032,GoNoGo,2020.1.3,59.965088325560025,
IN DIESEM BLOCK KÖNNEN SIE EINFACH ENTSPANNT AN DIE AUFGABE HERANGEHEN. SIE SOLLEN SICH NICHT VERAUSGABEN.,100,Go,go,4,1,0,0,0,0,,,,,31,2,95,0,,,,,,,,,,,,,1,297.0012178999996,None,297.0012178999996,None,,,101,111,296.1127069999993,296.61510349999935,296.59850449999976,296.69841349999933,4,1,0.3708464000001186,296.59850449999976,None,296.69841349999933,None,296.59850449999976,None,False,None,None,None,None,None,None,None,None,,,,,,,,,,,,,,,,,,,,,,,,,,,,AG05AS29,1,0x5FB8,D:\CoScience\Logfiles\,2022_Mar_17_1032,GoNoGo,2020.1.3,59.965088325560025,
IN DIESEM BLOCK KÖNNEN SIE EINFACH ENTSPANNT AN DIE AUFGABE HERANGEHEN. SIE SOLLEN SICH NICHT VERAUSGABEN.,100,Go,go,4,1,0,0,0,0,,,,,32,0,96,1,,,,,,,,,,,,,1,299.00443089999953,None,299.00443089999953,None,,,101,111,298.01574959999925,298.5150911999999,298.5150911999999,298.6150186999994,4,1,0.45724350000000413,298.5150911999999,None,298.6150186999994,None,298.5150911999999,None,False,None,None,None,None,None,None,None,None,,,,,,,,,,,,,,,,,,,,,,,,,,,,AG05AS29,1,0x5FB8,D:\CoScience\Logfiles\,2022_Mar_17_1032,GoNoGo,2020.1.3,59.965088325560025,
IN DIESEM BLOCK KÖNNEN SIE EINFACH ENTSPANNT AN DIE AUFGABE HERANGEHEN. SIE SOLLEN SICH NICHT VERAUSGABEN.,100,Go,go,4,1,0,0,0,0,,,,,32,1,97,1,,,,,,,,,,,,,1,300.9687699999995,None,300.9687699999995,None,,,101,111,300.0296791999999,300.53169049999997,300.51507889999993,300.61510889999954,4,1,0.42526269999962096,300.51507889999993,None,300.61510889999954,None,300.51507889999993,None,False,None,None,None,None,None,None,None,None,,,,,,,,,,,,,,,,,,,,,,,,,,,,AG05AS29,1,0x5FB8,D:\CoScience\Logfiles\,2022_Mar_17_1032,GoNoGo,2020.1.3,59.965088325560025,
IN DIESEM BLOCK KÖNNEN SIE EINFACH ENTSPANNT AN DIE AUFGABE HERANGEHEN. SIE SOLLEN SICH NICHT VERAUSGABEN.,100,Go,go,4,1,0,0,0,0,,,,,32,2,98,0,,,,,,,,,,,,,1,302.88504190000003,None,302.88504190000003,None,,,101,111,301.9825358999997,302.48190539999996,302.48190539999996,302.58173839999927,4,1,0.38241500000003725,302.48190539999996,None,302.58173839999927,None,302.48190539999996,None,False,None,None,None,None,None,None,None,None,,,,,,,,,,,,,,,,,,,,,,,,,,,,AG05AS29,1,0x5FB8,D:\CoScience\Logfiles\,2022_Mar_17_1032,GoNoGo,2020.1.3,59.965088325560025,
IN DIESEM BLOCK KÖNNEN SIE EINFACH ENTSPANNT AN DIE AUFGABE HERANGEHEN. SIE SOLLEN SICH NICHT VERAUSGABEN.,100,Go,go,4,1,0,0,0,0,,,,,33,0,99,0,,,,,,,,,,,,,1,304.85171589999936,None,304.85171589999936,None,,,101,111,303.9127816,304.41502239999954,304.3985063,304.4985343999997,4,1,0.42282109999996464,304.3985063,None,304.4985343999997,None,304.3985063,None,False,None,None,None,None,None,None,None,None,,,,,,,,,,,,,,,,,,,,,,,,,,,,AG05AS29,1,0x5FB8,D:\CoScience\Logfiles\,2022_Mar_17_1032,GoNoGo,2020.1.3,59.965088325560025,
IN DIESEM BLOCK KÖNNEN SIE EINFACH ENTSPANNT AN DIE AUFGABE HERANGEHEN. SIE SOLLEN SICH NICHT VERAUSGABEN.,100,Go,go,4,1,0,0,0,0,,,,,33,1,100,0,,,,,,,,,,,,,1,306.8184472999992,None,306.8184472999992,None,,,101,111,305.8792279999998,306.38166079999974,306.3652313999992,306.46506789999967,4,1,0.4341168999999354,306.3652313999992,None,306.46506789999967,None,306.3652313999992,None,False,None,None,None,None,None,None,None,None,,,,,,,,,,,,,,,,,,,,,,,,,,,,AG05AS29,1,0x5FB8,D:\CoScience\Logfiles\,2022_Mar_17_1032,GoNoGo,2020.1.3,59.965088325560025,
IN DIESEM BLOCK KÖNNEN SIE EINFACH ENTSPANNT AN DIE AUFGABE HERANGEHEN. SIE SOLLEN SICH NICHT VERAUSGABEN.,100,NoGo,nogo,None,2,0,0,0,0,,,,,33,2,101,2,,,,,,,,,,,,,0.9,309.0320213999994,None,309.0320213999994,None,,,102,0,307.84604489999947,308.3481834999993,308.33194099999946,308.4318386999994,None,1,,308.33194099999946,None,308.4318386999994,None,308.33194099999946,None,False,None,None,None,None,None,None,None,None,,,,,,,,,,,,,,,,,,,,,,,,,,,,AG05AS29,1,0x5FB8,D:\CoScience\Logfiles\,2022_Mar_17_1032,GoNoGo,2020.1.3,59.965088325560025,
IN DIESEM BLOCK KÖNNEN SIE EINFACH ENTSPANNT AN DIE AUFGABE HERANGEHEN. SIE SOLLEN SICH NICHT VERAUSGABEN.,100,NoGo,nogo,None,2,0,0,0,0,,,,,34,0,102,2,,,,,,,,,,,,,0.9,311.1321571999997,None,311.1321571999997,None,,,102,0,309.9461603999998,310.4484479999992,310.43196569999964,310.53189159999965,None,1,,310.43196569999964,None,310.53189159999965,None,310.43196569999964,None,False,None,None,None,None,None,None,None,None,,,,,,,,,,,,,,,,,,,,,,,,,,,,AG05AS29,1,0x5FB8,D:\CoScience\Logfiles\,2022_Mar_17_1032,GoNoGo,2020.1.3,59.965088325560025,
IN DIESEM BLOCK KÖNNEN SIE EINFACH ENTSPANNT AN DIE AUFGABE HERANGEHEN. SIE SOLLEN SICH NICHT VERAUSGABEN.,100,Go,go,4,1,0,0,0,0,,,,,34,1,103,1,,,,,,,,,,,,,1,313.0008183,None,313.0008183,None,,,101,111,312.0327589999997,312.53191849999985,312.53191849999985,312.6318767999992,4,1,0.43942750000041997,312.53191849999985,None,312.6318767999992,None,312.53191849999985,None,False,None,None,None,None,None,None,None,None,,,,,,,,,,,,,,,,,,,,,,,,,,,,AG05AS29,1,0x5FB8,D:\CoScience\Logfiles\,2022_Mar_17_1032,GoNoGo,2020.1.3,59.965088325560025,
IN DIESEM BLOCK KÖNNEN SIE EINFACH ENTSPANNT AN DIE AUFGABE HERANGEHEN. SIE SOLLEN SICH NICHT VERAUSGABEN.,100,NoGo,nogo,None,2,0,0,0,0,,,,,34,2,104,2,,,,,,,,,,,,,0.9,315.2156344999994,None,315.2156344999994,None,,,102,0,314.0158311999994,314.5151002999992,314.5151002999992,314.6151221,None,1,,314.5151002999992,None,314.6151221,None,314.5151002999992,None,False,None,None,None,None,None,None,None,None,,,,,,,,,,,,,,,,,,,,,,,,,,,,AG05AS29,1,0x5FB8,D:\CoScience\Logfiles\,2022_Mar_17_1032,GoNoGo,2020.1.3,59.965088325560025,
IN DIESEM BLOCK KÖNNEN SIE EINFACH ENTSPANNT AN DIE AUFGABE HERANGEHEN. SIE SOLLEN SICH NICHT VERAUSGABEN.,100,NoGo,nogo,None,2,0,0,0,0,,,,,35,0,105,2,,,,,,,,,,,,,0.9,317.31581929999993,None,317.31581929999993,None,,,102,0,316.1294549999993,316.63174999999956,316.6150751999994,316.7151920999995,None,1,,316.6150751999994,None,316.7151920999995,None,316.6150751999994,None,False,None,None,None,None,None,None,None,None,,,,,,,,,,,,,,,,,,,,,,,,,,,,AG05AS29,1,0x5FB8,D:\CoScience\Logfiles\,2022_Mar_17_1032,GoNoGo,2020.1.3,59.965088325560025,
IN DIESEM BLOCK KÖNNEN SIE EINFACH ENTSPANNT AN DIE AUFGABE HERANGEHEN. SIE SOLLEN SICH NICHT VERAUSGABEN.,100,Go,go,4,1,0,0,0,0,,,,,35,1,106,0,,,,,,,,,,,,,1,319.1843775999996,None,319.1843775999996,None,,,101,111,318.2157625,318.71518689999994,318.71518689999994,318.81515299999955,4,1,0.44214480000027834,318.71518689999994,None,318.81515299999955,None,318.71518689999994,None,False,None,None,None,None,None,None,None,None,,,,,,,,,,,,,,,,,,,,,,,,,,,,AG05AS29,1,0x5FB8,D:\CoScience\Logfiles\,2022_Mar_17_1032,GoNoGo,2020.1.3,59.965088325560025,
IN DIESEM BLOCK KÖNNEN SIE EINFACH ENTSPANNT AN DIE AUFGABE HERANGEHEN. SIE SOLLEN SICH NICHT VERAUSGABEN.,100,Go,go,4,1,0,0,0,0,,,,,35,2,107,1,,,,,,,,,,,,,1,321.18767879999996,None,321.18767879999996,None,,,101,111,320.21285109999917,320.7149909,320.6984920999994,320.7984618999999,4,1,0.4568109000001641,320.6984920999994,None,320.7984618999999,None,320.6984920999994,None,False,None,None,None,None,None,None,None,None,,,,,,,,,,,,,,,,,,,,,,,,,,,,AG05AS29,1,0x5FB8,D:\CoScience\Logfiles\,2022_Mar_17_1032,GoNoGo,2020.1.3,59.965088325560025,
IN DIESEM BLOCK KÖNNEN SIE EINFACH ENTSPANNT AN DIE AUFGABE HERANGEHEN. SIE SOLLEN SICH NICHT VERAUSGABEN.,100,Go,go,4,1,0,0,0,0,,,,,36,0,108,1,,,,,,,,,,,,,1,323.11824499999966,None,323.11824499999966,None,,,101,111,322.19939089999934,322.6984911999998,322.6984911999998,322.7984850999992,4,1,0.3858481999996002,322.6984911999998,None,322.7984850999992,None,322.6984911999998,None,False,None,None,None,None,None,None,None,None,,,,,,,,,,,,,,,,,,,,,,,,,,,,AG05AS29,1,0x5FB8,D:\CoScience\Logfiles\,2022_Mar_17_1032,GoNoGo,2020.1.3,59.965088325560025,
IN DIESEM BLOCK KÖNNEN SIE EINFACH ENTSPANNT AN DIE AUFGABE HERANGEHEN. SIE SOLLEN SICH NICHT VERAUSGABEN.,100,NoGo,nogo,None,2,0,0,0,0,,,,,36,1,109,2,,,,,,,,,,,,,0.9,325.3325296999992,None,325.3325296999992,None,,,102,0,324.1318044999998,324.63179989999935,324.63179989999935,324.7317014999999,None,1,,324.63179989999935,None,324.7317014999999,None,324.63179989999935,None,False,None,None,None,None,None,None,None,None,,,,,,,,,,,,,,,,,,,,,,,,,,,,AG05AS29,1,0x5FB8,D:\CoScience\Logfiles\,2022_Mar_17_1032,GoNoGo,2020.1.3,59.965088325560025,
IN DIESEM BLOCK KÖNNEN SIE EINFACH ENTSPANNT AN DIE AUFGABE HERANGEHEN. SIE SOLLEN SICH NICHT VERAUSGABEN.,100,NoGo,nogo,None,2,0,0,0,0,,,,,36,2,110,2,,,,,,,,,,,,,0.9,327.44615879999947,None,327.44615879999947,None,,,102,0,326.2460719999999,326.74837839999964,326.7317727999998,326.83184829999936,None,1,,326.7317727999998,None,326.83184829999936,None,326.7317727999998,None,False,None,None,None,None,None,None,None,None,,,,,,,,,,,,,,,,,,,,,,,,,,,,AG05AS29,1,0x5FB8,D:\CoScience\Logfiles\,2022_Mar_17_1032,GoNoGo,2020.1.3,59.965088325560025,
IN DIESEM BLOCK KÖNNEN SIE EINFACH ENTSPANNT AN DIE AUFGABE HERANGEHEN. SIE SOLLEN SICH NICHT VERAUSGABEN.,100,NoGo,nogo,None,2,0,0,0,0,,,,,37,0,111,2,,,,,,,,,,,,,0.9,329.54964969999946,None,329.54964969999946,None,,,102,0,328.3627835999996,328.8649934999994,328.84847360000003,328.9484135999992,None,1,,328.84847360000003,None,328.9484135999992,None,328.84847360000003,None,False,None,None,None,None,None,None,None,None,,,,,,,,,,,,,,,,,,,,,,,,,,,,AG05AS29,1,0x5FB8,D:\CoScience\Logfiles\,2022_Mar_17_1032,GoNoGo,2020.1.3,59.965088325560025,
IN DIESEM BLOCK KÖNNEN SIE EINFACH ENTSPANNT AN DIE AUFGABE HERANGEHEN. SIE SOLLEN SICH NICHT VERAUSGABEN.,100,Go,go,4,1,0,0,0,0,,,,,37,1,112,1,,,,,,,,,,,,,1,331.41933639999934,None,331.41933639999934,None,,,101,111,330.46661529999983,330.98123919999944,330.96511669999927,331.0651771999992,4,1,0.43225170000005164,330.96511669999927,None,331.0651771999992,None,330.96511669999927,None,False,None,None,None,None,None,None,None,None,,,,,,,,,,,,,,,,,,,,,,,,,,,,AG05AS29,1,0x5FB8,D:\CoScience\Logfiles\,2022_Mar_17_1032,GoNoGo,2020.1.3,59.965088325560025,
IN DIESEM BLOCK KÖNNEN SIE EINFACH ENTSPANNT AN DIE AUFGABE HERANGEHEN. SIE SOLLEN SICH NICHT VERAUSGABEN.,100,Go,go,4,1,0,0,0,0,,,,,37,2,113,1,,,,,,,,,,,,,1,333.36783339999965,None,333.36783339999965,None,,,101,111,332.44632289999936,332.94813879999947,332.9319315999992,333.0318572999995,4,1,0.4138403999995717,332.9319315999992,None,333.0318572999995,None,332.9319315999992,None,False,None,None,None,None,None,None,None,None,,,,,,,,,,,,,,,,,,,,,,,,,,,,AG05AS29,1,0x5FB8,D:\CoScience\Logfiles\,2022_Mar_17_1032,GoNoGo,2020.1.3,59.965088325560025,
IN DIESEM BLOCK KÖNNEN SIE EINFACH ENTSPANNT AN DIE AUFGABE HERANGEHEN. SIE SOLLEN SICH NICHT VERAUSGABEN.,100,Go,go,4,1,0,0,0,0,,,,,38,0,114,1,,,,,,,,,,,,,1,335.3350357999998,None,335.3350357999998,None,,,101,111,334.3960387999996,334.89838789999976,334.88176959999964,334.9816293999993,4,1,0.42554520000066987,334.88176959999964,None,334.9816293999993,None,334.88176959999964,None,False,None,None,None,None,None,None,None,None,,,,,,,,,,,,,,,,,,,,,,,,,,,,AG05AS29,1,0x5FB8,D:\CoScience\Logfiles\,2022_Mar_17_1032,GoNoGo,2020.1.3,59.965088325560025,
IN DIESEM BLOCK KÖNNEN SIE EINFACH ENTSPANNT AN DIE AUFGABE HERANGEHEN. SIE SOLLEN SICH NICHT VERAUSGABEN.,100,Go,go,4,1,0,0,0,0,,,,,38,1,115,0,,,,,,,,,,,,,1,337.28473309999936,None,337.28473309999936,None,,,101,111,336.34904499999993,336.8483512999992,336.8483512999992,336.9484402999997,4,1,0.413059799999246,336.8483512999992,None,336.9484402999997,None,336.8483512999992,None,False,None,None,None,None,None,None,None,None,,,,,,,,,,,,,,,,,,,,,,,,,,,,AG05AS29,1,0x5FB8,D:\CoScience\Logfiles\,2022_Mar_17_1032,GoNoGo,2020.1.3,59.965088325560025,
IN DIESEM BLOCK KÖNNEN SIE EINFACH ENTSPANNT AN DIE AUFGABE HERANGEHEN. SIE SOLLEN SICH NICHT VERAUSGABEN.,100,Go,go,4,1,0,0,0,0,,,,,38,2,116,0,,,,,,,,,,,,,1,339.21845829999984,None,339.21845829999984,None,,,101,111,338.31282739999915,338.8148784999994,338.7985724,338.89833499999986,4,1,0.3957377999995515,338.7985724,None,338.89833499999986,None,338.7985724,None,False,None,None,None,None,None,None,None,None,,,,,,,,,,,,,,,,,,,,,,,,,,,,AG05AS29,1,0x5FB8,D:\CoScience\Logfiles\,2022_Mar_17_1032,GoNoGo,2020.1.3,59.965088325560025,
IN DIESEM BLOCK KÖNNEN SIE EINFACH ENTSPANNT AN DIE AUFGABE HERANGEHEN. SIE SOLLEN SICH NICHT VERAUSGABEN.,100,NoGo,nogo,None,2,0,0,0,0,,,,,39,0,117,2,,,,,,,,,,,,,0.9,341.4329706999997,None,341.4329706999997,None,,,102,0,340.2332702999993,340.74809769999956,340.73177269999996,340.83174319999944,None,1,,340.73177269999996,None,340.83174319999944,None,340.73177269999996,None,False,None,None,None,None,None,None,None,None,,,,,,,,,,,,,,,,,,,,,,,,,,,,AG05AS29,1,0x5FB8,D:\CoScience\Logfiles\,2022_Mar_17_1032,GoNoGo,2020.1.3,59.965088325560025,
IN DIESEM BLOCK KÖNNEN SIE EINFACH ENTSPANNT AN DIE AUFGABE HERANGEHEN. SIE SOLLEN SICH NICHT VERAUSGABEN.,100,Go,go,4,1,0,0,0,0,,,,,39,1,118,0,,,,,,,,,,,,,1,343.2671719,None,343.2671719,None,,,101,111,342.3627186999993,342.8647826999995,342.84844319999956,342.9484632999993,4,1,0.3898410000001604,342.84844319999956,None,342.9484632999993,None,342.84844319999956,None,False,None,None,None,None,None,None,None,None,,,,,,,,,,,,,,,,,,,,,,,,,,,,AG05AS29,1,0x5FB8,D:\CoScience\Logfiles\,2022_Mar_17_1032,GoNoGo,2020.1.3,59.965088325560025,
IN DIESEM BLOCK KÖNNEN SIE EINFACH ENTSPANNT AN DIE AUFGABE HERANGEHEN. SIE SOLLEN SICH NICHT VERAUSGABEN.,100,Go,go,4,1,0,0,0,0,,,,,39,2,119,0,,,,,,,,,,,,,1,345.20113029999993,None,345.20113029999993,None,,,101,111,344.2961846999997,344.7982554,344.7817538999998,344.88164359999973,4,1,0.3995239000005313,344.7817538999998,None,344.88164359999973,None,344.7817538999998,None,False,None,None,None,None,None,None,None,None,,,,,,,,,,,,,,,,,,,,,,,,,,,,AG05AS29,1,0x5FB8,D:\CoScience\Logfiles\,2022_Mar_17_1032,GoNoGo,2020.1.3,59.965088325560025,
IN DIESEM BLOCK KÖNNEN SIE EINFACH ENTSPANNT AN DIE AUFGABE HERANGEHEN. SIE SOLLEN SICH NICHT VERAUSGABEN.,100,Go,go,4,1,0,0,0,0,,,,,40,0,120,1,,,,,,,,,,,,,1,347.15173439999944,None,347.15173439999944,None,,,101,111,346.2295252999993,346.7315501999992,346.7151092999993,346.8151162999993,4,1,0.4052036999992197,346.7151092999993,None,346.8151162999993,None,346.7151092999993,None,False,None,None,None,None,None,None,None,None,,,,,,,,,,,,,,,,,,,,,,,,,,,,AG05AS29,1,0x5FB8,D:\CoScience\Logfiles\,2022_Mar_17_1032,GoNoGo,2020.1.3,59.965088325560025,
IN DIESEM BLOCK KÖNNEN SIE EINFACH ENTSPANNT AN DIE AUFGABE HERANGEHEN. SIE SOLLEN SICH NICHT VERAUSGABEN.,100,Go,go,4,1,0,0,0,0,,,,,40,1,121,1,,,,,,,,,,,,,1,349.21883139999954,None,349.21883139999954,None,,,101,111,348.1793212999992,348.6814076999999,348.66472499999963,348.76516679999986,4,1,0.5276901999995971,348.66472499999963,None,348.76516679999986,None,348.66472499999963,None,False,None,None,None,None,None,None,None,None,,,,,,,,,,,,,,,,,,,,,,,,,,,,AG05AS29,1,0x5FB8,D:\CoScience\Logfiles\,2022_Mar_17_1032,GoNoGo,2020.1.3,59.965088325560025,
IN DIESEM BLOCK KÖNNEN SIE EINFACH ENTSPANNT AN DIE AUFGABE HERANGEHEN. SIE SOLLEN SICH NICHT VERAUSGABEN.,100,NoGo,nogo,None,2,0,0,0,0,,,,,40,2,122,2,,,,,,,,,,,,,0.9,351.4330222999997,None,351.4330222999997,None,,,102,0,350.2317645999992,350.7317465999995,350.7317465999995,350.8317184999996,None,1,,350.7317465999995,None,350.8317184999996,None,350.7317465999995,None,False,None,None,None,None,None,None,None,None,,,,,,,,,,,,,,,,,,,,,,,,,,,,AG05AS29,1,0x5FB8,D:\CoScience\Logfiles\,2022_Mar_17_1032,GoNoGo,2020.1.3,59.965088325560025,
IN DIESEM BLOCK KÖNNEN SIE EINFACH ENTSPANNT AN DIE AUFGABE HERANGEHEN. SIE SOLLEN SICH NICHT VERAUSGABEN.,100,NoGo,nogo,None,2,0,0,0,0,,,,,41,0,123,2,,,,,,,,,,,,,0.9,353.5487113999998,None,353.5487113999998,None,,,102,0,352.349432,352.8486239999993,352.8486239999993,352.9484604999998,None,1,,352.8486239999993,None,352.9484604999998,None,352.8486239999993,None,False,None,None,None,None,None,None,None,None,,,,,,,,,,,,,,,,,,,,,,,,,,,,AG05AS29,1,0x5FB8,D:\CoScience\Logfiles\,2022_Mar_17_1032,GoNoGo,2020.1.3,59.965088325560025,
IN DIESEM BLOCK KÖNNEN SIE EINFACH ENTSPANNT AN DIE AUFGABE HERANGEHEN. SIE SOLLEN SICH NICHT VERAUSGABEN.,100,Go,go,4,1,0,0,0,0,,,,,41,1,124,0,,,,,,,,,,,,,1,355.3353417999997,None,355.3353417999997,None,,,101,111,354.46261929999946,354.96492059999946,354.94841349999933,355.0484588999998,4,1,0.36689079999996466,354.94841349999933,None,355.0484588999998,None,354.94841349999933,None,False,None,None,None,None,None,None,None,None,,,,,,,,,,,,,,,,,,,,,,,,,,,,AG05AS29,1,0x5FB8,D:\CoScience\Logfiles\,2022_Mar_17_1032,GoNoGo,2020.1.3,59.965088325560025,
IN DIESEM BLOCK KÖNNEN SIE EINFACH ENTSPANNT AN DIE AUFGABE HERANGEHEN. SIE SOLLEN SICH NICHT VERAUSGABEN.,100,Go,go,4,1,0,0,0,0,,,,,41,2,125,0,,,,,,,,,,,,,1,357.26844899999924,None,357.26844899999924,None,,,101,111,356.3628478999999,356.86498589999974,356.8485461999999,356.94845239999995,4,1,0.3957343000001856,356.8485461999999,None,356.94845239999995,None,356.8485461999999,None,False,None,None,None,None,None,358.30212049999955,None,space,50.522880200000145,,,,,,,,,,,,,,,,,,,,,,,,,,,AG05AS29,1,0x5FB8,D:\CoScience\Logfiles\,2022_Mar_17_1032,GoNoGo,2020.1.3,59.965088325560025,
IN DIESEM BLOCK KÖNNEN SIE EINFACH ENTSPANNT AN DIE AUFGABE HERANGEHEN. SIE SOLLEN SICH NICHT VERAUSGABEN.,100,NoGo,nogo,None,2,0,0,0,0,,,,,42,0,126,2,,,,,,,,,,,,,0.9,412.01578319999953,None,412.01578319999953,None,,,102,0,410.83791159999964,411.3472748999993,411.3149520999996,411.41509789999964,None,1,,411.3149520999996,None,411.41509789999964,None,411.3149520999996,None,False,None,None,None,None,None,None,None,None,,,,,,,,,,,,,,,,,,,,,,,,,,,,AG05AS29,1,0x5FB8,D:\CoScience\Logfiles\,2022_Mar_17_1032,GoNoGo,2020.1.3,59.965088325560025,
IN DIESEM BLOCK KÖNNEN SIE EINFACH ENTSPANNT AN DIE AUFGABE HERANGEHEN. SIE SOLLEN SICH NICHT VERAUSGABEN.,100,Go,go,4,1,0,0,0,0,,,,,42,1,127,0,,,,,,,,,,,,,1,413.85094630000003,None,413.85094630000003,None,,,101,111,412.9152904999992,413.4150688999998,413.4150688999998,413.5149754999993,4,1,0.4052849999998216,413.4150688999998,None,413.5149754999993,None,413.4150688999998,None,False,None,None,None,None,None,None,None,None,,,,,,,,,,,,,,,,,,,,,,,,,,,,AG05AS29,1,0x5FB8,D:\CoScience\Logfiles\,2022_Mar_17_1032,GoNoGo,2020.1.3,59.965088325560025,
IN DIESEM BLOCK KÖNNEN SIE EINFACH ENTSPANNT AN DIE AUFGABE HERANGEHEN. SIE SOLLEN SICH NICHT VERAUSGABEN.,100,Go,go,4,1,0,0,0,0,,,,,42,2,128,1,,,,,,,,,,,,,1,415.80156669999997,None,415.80156669999997,None,,,101,111,414.87919949999923,415.3815126999998,415.3650152,415.4649150999994,4,1,0.4072100000003047,415.3650152,None,415.4649150999994,None,415.3650152,None,False,None,None,None,None,None,None,None,None,,,,,,,,,,,,,,,,,,,,,,,,,,,,AG05AS29,1,0x5FB8,D:\CoScience\Logfiles\,2022_Mar_17_1032,GoNoGo,2020.1.3,59.965088325560025,
IN DIESEM BLOCK KÖNNEN SIE EINFACH ENTSPANNT AN DIE AUFGABE HERANGEHEN. SIE SOLLEN SICH NICHT VERAUSGABEN.,100,NoGo,nogo,None,2,0,0,0,0,,,,,43,0,129,2,,,,,,,,,,,,,0.9,418.0158920999993,None,418.0158920999993,None,,,102,0,416.81662249999954,417.3315058999997,417.3148573999997,417.4149342999999,None,1,,417.3148573999997,None,417.4149342999999,None,417.3148573999997,None,False,None,None,None,None,None,None,None,None,,,,,,,,,,,,,,,,,,,,,,,,,,,,AG05AS29,1,0x5FB8,D:\CoScience\Logfiles\,2022_Mar_17_1032,GoNoGo,2020.1.3,59.965088325560025,
IN DIESEM BLOCK KÖNNEN SIE EINFACH ENTSPANNT AN DIE AUFGABE HERANGEHEN. SIE SOLLEN SICH NICHT VERAUSGABEN.,100,Go,go,4,1,0,0,0,0,,,,,43,1,130,1,,,,,,,,,,,,,1,419.85035159999916,None,419.85035159999916,None,,,101,111,418.9156082999998,419.4150630999993,419.4150630999993,419.51489669999955,4,1,0.4031669000005422,419.4150630999993,None,419.51489669999955,None,419.4150630999993,None,False,None,None,None,None,None,None,None,None,,,,,,,,,,,,,,,,,,,,,,,,,,,,AG05AS29,1,0x5FB8,D:\CoScience\Logfiles\,2022_Mar_17_1032,GoNoGo,2020.1.3,59.965088325560025,
IN DIESEM BLOCK KÖNNEN SIE EINFACH ENTSPANNT AN DIE AUFGABE HERANGEHEN. SIE SOLLEN SICH NICHT VERAUSGABEN.,100,NoGo,nogo,None,2,0,0,0,0,,,,,43,2,131,2,,,,,,,,,,,,,0.9,422.07940139999937,None,422.07940139999937,None,,,102,0,420.8665535,421.3814429999993,421.36504289999993,421.46488429999954,None,1,,421.36504289999993,None,421.46488429999954,None,421.36504289999993,None,False,None,None,None,None,None,None,None,None,,,,,,,,,,,,,,,,,,,,,,,,,,,,AG05AS29,1,0x5FB8,D:\CoScience\Logfiles\,2022_Mar_17_1032,GoNoGo,2020.1.3,59.965088325560025,
IN DIESEM BLOCK KÖNNEN SIE EINFACH ENTSPANNT AN DIE AUFGABE HERANGEHEN. SIE SOLLEN SICH NICHT VERAUSGABEN.,100,Go,go,4,1,0,0,0,0,,,,,44,0,132,1,,,,,,,,,,,,,1,423.8682302999996,None,423.8682302999996,None,,,101,111,422.9824646999996,423.48167190000004,423.48167190000004,423.58170549999977,4,1,0.3646673999992345,423.48167190000004,None,423.58170549999977,None,423.48167190000004,None,False,None,None,None,None,None,None,None,None,,,,,,,,,,,,,,,,,,,,,,,,,,,,AG05AS29,1,0x5FB8,D:\CoScience\Logfiles\,2022_Mar_17_1032,GoNoGo,2020.1.3,59.965088325560025,
IN DIESEM BLOCK KÖNNEN SIE EINFACH ENTSPANNT AN DIE AUFGABE HERANGEHEN. SIE SOLLEN SICH NICHT VERAUSGABEN.,100,Go,go,4,1,0,0,0,0,,,,,44,1,133,1,,,,,,,,,,,,,1,425.7518573999996,None,425.7518573999996,None,,,101,111,424.88235480000003,425.3816377999992,425.3816377999992,425.4815925999992,4,1,0.3406113999999434,425.3816377999992,None,425.4815925999992,None,425.3816377999992,None,False,None,None,None,None,None,None,None,None,,,,,,,,,,,,,,,,,,,,,,,,,,,,AG05AS29,1,0x5FB8,D:\CoScience\Logfiles\,2022_Mar_17_1032,GoNoGo,2020.1.3,59.965088325560025,
IN DIESEM BLOCK KÖNNEN SIE EINFACH ENTSPANNT AN DIE AUFGABE HERANGEHEN. SIE SOLLEN SICH NICHT VERAUSGABEN.,100,Go,go,4,1,0,0,0,0,,,,,44,2,134,0,,,,,,,,,,,,,1,427.7376353999998,None,427.7376353999998,None,,,101,111,426.77921329999936,427.28138019999915,427.26498359999914,427.36497919999965,4,1,0.44426560000010795,427.26498359999914,None,427.36497919999965,None,427.26498359999914,None,False,None,None,None,None,None,None,None,None,,,,,,,,,,,,,,,,,,,,,,,,,,,,AG05AS29,1,0x5FB8,D:\CoScience\Logfiles\,2022_Mar_17_1032,GoNoGo,2020.1.3,59.965088325560025,
IN DIESEM BLOCK KÖNNEN SIE EINFACH ENTSPANNT AN DIE AUFGABE HERANGEHEN. SIE SOLLEN SICH NICHT VERAUSGABEN.,100,NoGo,nogo,None,2,0,0,0,0,,,,,45,0,135,2,,,,,,,,,,,,,0.9,429.94954829999915,None,429.94954829999915,None,,,102,0,428.74902029999976,429.24833639999997,429.24833639999997,429.34822929999973,None,1,,429.24833639999997,None,429.34822929999973,None,429.24833639999997,None,False,None,None,None,None,None,None,None,None,,,,,,,,,,,,,,,,,,,,,,,,,,,,AG05AS29,1,0x5FB8,D:\CoScience\Logfiles\,2022_Mar_17_1032,GoNoGo,2020.1.3,59.965088325560025,
IN DIESEM BLOCK KÖNNEN SIE EINFACH ENTSPANNT AN DIE AUFGABE HERANGEHEN. SIE SOLLEN SICH NICHT VERAUSGABEN.,100,NoGo,nogo,None,2,0,0,0,0,,,,,45,1,136,2,,,,,,,,,,,,,0.9,432.0659169999999,None,432.0659169999999,None,,,102,0,430.8793919,431.3813648999994,431.364998,431.4649983999998,None,1,,431.364998,None,431.4649983999998,None,431.364998,None,False,None,None,None,None,None,None,None,None,,,,,,,,,,,,,,,,,,,,,,,,,,,,AG05AS29,1,0x5FB8,D:\CoScience\Logfiles\,2022_Mar_17_1032,GoNoGo,2020.1.3,59.965088325560025,
IN DIESEM BLOCK KÖNNEN SIE EINFACH ENTSPANNT AN DIE AUFGABE HERANGEHEN. SIE SOLLEN SICH NICHT VERAUSGABEN.,100,Go,go,4,1,0,0,0,0,,,,,45,2,137,0,,,,,,,,,,,,,1,433.86830439999994,None,433.86830439999994,None,,,101,111,432.9656202999995,433.46488189999945,433.46488189999945,433.5649061999993,4,1,0.38226510000004055,433.46488189999945,None,433.5649061999993,None,433.46488189999945,None,False,None,None,None,None,None,None,None,None,,,,,,,,,,,,,,,,,,,,,,,,,,,,AG05AS29,1,0x5FB8,D:\CoScience\Logfiles\,2022_Mar_17_1032,GoNoGo,2020.1.3,59.965088325560025,
IN DIESEM BLOCK KÖNNEN SIE EINFACH ENTSPANNT AN DIE AUFGABE HERANGEHEN. SIE SOLLEN SICH NICHT VERAUSGABEN.,100,NoGo,nogo,None,2,0,0,0,0,,,,,46,0,138,2,,,,,,,,,,,,,0.9,436.0823135999999,None,436.0823135999999,None,,,102,0,434.8831903999999,435.39781459999995,435.38160739999967,435.4816129999999,None,1,,435.38160739999967,None,435.4816129999999,None,435.38160739999967,None,False,None,None,None,None,None,None,None,None,,,,,,,,,,,,,,,,,,,,,,,,,,,,AG05AS29,1,0x5FB8,D:\CoScience\Logfiles\,2022_Mar_17_1032,GoNoGo,2020.1.3,59.965088325560025,
IN DIESEM BLOCK KÖNNEN SIE EINFACH ENTSPANNT AN DIE AUFGABE HERANGEHEN. SIE SOLLEN SICH NICHT VERAUSGABEN.,100,NoGo,nogo,None,2,0,0,0,0,,,,,46,1,139,2,,,,,,,,,,,,,0.9,438.1827803999995,None,438.1827803999995,None,,,102,0,436.9959566999996,437.49794199999997,437.4817226999994,437.5814176999993,None,1,,437.4817226999994,None,437.5814176999993,None,437.4817226999994,None,False,None,None,None,None,None,None,None,None,,,,,,,,,,,,,,,,,,,,,,,,,,,,AG05AS29,1,0x5FB8,D:\CoScience\Logfiles\,2022_Mar_17_1032,GoNoGo,2020.1.3,59.965088325560025,
IN DIESEM BLOCK KÖNNEN SIE EINFACH ENTSPANNT AN DIE AUFGABE HERANGEHEN. SIE SOLLEN SICH NICHT VERAUSGABEN.,100,Go,go,4,1,0,0,0,0,,,,,46,2,140,1,,,,,,,,,,,,,1,439.98737769999934,None,439.98737769999934,None,,,101,111,439.0998528,439.61484999999993,439.59832649999953,439.69818159999977,4,1,0.36782119999952556,439.59832649999953,None,439.69818159999977,None,439.59832649999953,None,False,None,None,None,None,None,None,None,None,,,,,,,,,,,,,,,,,,,,,,,,,,,,AG05AS29,1,0x5FB8,D:\CoScience\Logfiles\,2022_Mar_17_1032,GoNoGo,2020.1.3,59.965088325560025,
IN DIESEM BLOCK KÖNNEN SIE EINFACH ENTSPANNT AN DIE AUFGABE HERANGEHEN. SIE SOLLEN SICH NICHT VERAUSGABEN.,100,Go,go,4,1,0,0,0,0,,,,,47,0,141,0,,,,,,,,,,,,,1,441.90147519999937,None,441.90147519999937,None,,,101,111,441.01271779999934,441.5147954999993,441.49827619999996,441.5981228999999,4,1,0.38288309999916237,441.49827619999996,None,441.5981228999999,None,441.49827619999996,None,False,None,None,None,None,None,None,None,None,,,,,,,,,,,,,,,,,,,,,,,,,,,,AG05AS29,1,0x5FB8,D:\CoScience\Logfiles\,2022_Mar_17_1032,GoNoGo,2020.1.3,59.965088325560025,
IN DIESEM BLOCK KÖNNEN SIE EINFACH ENTSPANNT AN DIE AUFGABE HERANGEHEN. SIE SOLLEN SICH NICHT VERAUSGABEN.,100,NoGo,nogo,None,2,0,0,0,0,,,,,47,1,142,2,,,,,,,,,,,,,0.9,444.1159684999993,None,444.1159684999993,None,,,102,0,442.9156660999997,443.4149116999997,443.4149116999997,443.51496249999946,None,1,,443.4149116999997,None,443.51496249999946,None,443.4149116999997,None,False,None,None,None,None,None,None,None,None,,,,,,,,,,,,,,,,,,,,,,,,,,,,AG05AS29,1,0x5FB8,D:\CoScience\Logfiles\,2022_Mar_17_1032,GoNoGo,2020.1.3,59.965088325560025,
IN DIESEM BLOCK KÖNNEN SIE EINFACH ENTSPANNT AN DIE AUFGABE HERANGEHEN. SIE SOLLEN SICH NICHT VERAUSGABEN.,100,Go,go,4,1,0,0,0,0,,,,,47,2,143,0,,,,,,,,,,,,,1,445.95007629999964,None,445.95007629999964,None,,,101,111,445.01564699999926,445.51484099999925,445.51484099999925,445.6148435999994,4,1,0.4113195000009,445.51484099999925,None,445.6148435999994,None,445.51484099999925,None,False,None,None,None,None,None,None,None,None,,,,,,,,,,,,,,,,,,,,,,,,,,,,AG05AS29,1,0x5FB8,D:\CoScience\Logfiles\,2022_Mar_17_1032,GoNoGo,2020.1.3,59.965088325560025,
IN DIESEM BLOCK KÖNNEN SIE EINFACH ENTSPANNT AN DIE AUFGABE HERANGEHEN. SIE SOLLEN SICH NICHT VERAUSGABEN.,100,Go,go,4,1,0,0,0,0,,,,,48,0,144,1,,,,,,,,,,,,,1,447.8683074999999,None,447.8683074999999,None,,,101,111,446.9792361,447.48135679999996,447.4648551999999,447.5648863999995,4,1,0.3702958000003491,447.4648551999999,None,447.5648863999995,None,447.4648551999999,None,False,None,None,None,None,None,None,None,None,,,,,,,,,,,,,,,,,,,,,,,,,,,,AG05AS29,1,0x5FB8,D:\CoScience\Logfiles\,2022_Mar_17_1032,GoNoGo,2020.1.3,59.965088325560025,
IN DIESEM BLOCK KÖNNEN SIE EINFACH ENTSPANNT AN DIE AUFGABE HERANGEHEN. SIE SOLLEN SICH NICHT VERAUSGABEN.,100,NoGo,nogo,None,2,0,0,0,0,,,,,48,1,145,2,,,,,,,,,,,,,0.9,450.0823468999997,None,450.0823468999997,None,,,102,0,448.88230119999935,449.38159469999937,449.38159469999937,449.48153039999943,None,1,,449.38159469999937,None,449.48153039999943,None,449.38159469999937,None,False,None,None,None,None,None,None,None,None,,,,,,,,,,,,,,,,,,,,,,,,,,,,AG05AS29,1,0x5FB8,D:\CoScience\Logfiles\,2022_Mar_17_1032,GoNoGo,2020.1.3,59.965088325560025,
IN DIESEM BLOCK KÖNNEN SIE EINFACH ENTSPANNT AN DIE AUFGABE HERANGEHEN. SIE SOLLEN SICH NICHT VERAUSGABEN.,100,Go,go,4,1,0,0,0,0,,,,,48,2,146,0,,,,,,,,,,,,,1,451.8873922999992,None,451.8873922999992,None,,,101,111,450.99598869999954,451.4981812999995,451.48151340000004,451.5815851999996,4,1,0.37565840000024764,451.48151340000004,None,451.5815851999996,None,451.48151340000004,None,False,None,None,None,None,None,None,None,None,,,,,,,,,,,,,,,,,,,,,,,,,,,,AG05AS29,1,0x5FB8,D:\CoScience\Logfiles\,2022_Mar_17_1032,GoNoGo,2020.1.3,59.965088325560025,
IN DIESEM BLOCK KÖNNEN SIE EINFACH ENTSPANNT AN DIE AUFGABE HERANGEHEN. SIE SOLLEN SICH NICHT VERAUSGABEN.,100,Go,go,4,1,0,0,0,0,,,,,49,0,147,1,,,,,,,,,,,,,1,453.8350768999999,None,453.8350768999999,None,,,101,111,452.8990580999998,453.39831289999984,453.39831289999984,453.49827279999954,4,1,0.41180399999939254,453.39831289999984,None,453.49827279999954,None,453.39831289999984,None,False,None,None,None,None,None,None,None,None,,,,,,,,,,,,,,,,,,,,,,,,,,,,AG05AS29,1,0x5FB8,D:\CoScience\Logfiles\,2022_Mar_17_1032,GoNoGo,2020.1.3,59.965088325560025,
IN DIESEM BLOCK KÖNNEN SIE EINFACH ENTSPANNT AN DIE AUFGABE HERANGEHEN. SIE SOLLEN SICH NICHT VERAUSGABEN.,100,Go,go,4,1,0,0,0,0,,,,,49,1,148,0,,,,,,,,,,,,,1,455.85106259999975,None,455.85106259999975,None,,,101,111,454.8491301999993,455.3483217999992,455.3483217999992,455.4482485999997,4,1,0.4737724000005983,455.3483217999992,None,455.4482485999997,None,455.3483217999992,None,False,None,None,None,None,None,None,None,None,,,,,,,,,,,,,,,,,,,,,,,,,,,,AG05AS29,1,0x5FB8,D:\CoScience\Logfiles\,2022_Mar_17_1032,GoNoGo,2020.1.3,59.965088325560025,
IN DIESEM BLOCK KÖNNEN SIE EINFACH ENTSPANNT AN DIE AUFGABE HERANGEHEN. SIE SOLLEN SICH NICHT VERAUSGABEN.,100,NoGo,nogo,None,2,0,0,0,0,,,,,49,2,149,2,,,,,,,,,,,,,0.9,458.06567949999953,None,458.06567949999953,None,,,102,0,456.86594239999977,457.3649188999998,457.3649188999998,457.46492209999997,None,1,,457.3649188999998,None,457.46492209999997,None,457.3649188999998,None,False,None,None,None,None,None,None,None,None,,,,,,,,,,,,,,,,,,,,,,,,,,,,AG05AS29,1,0x5FB8,D:\CoScience\Logfiles\,2022_Mar_17_1032,GoNoGo,2020.1.3,59.965088325560025,
IN DIESEM BLOCK KÖNNEN SIE EINFACH ENTSPANNT AN DIE AUFGABE HERANGEHEN. SIE SOLLEN SICH NICHT VERAUSGABEN.,100,Go,go,4,1,0,0,0,0,,,,,50,0,150,1,,,,,,,,,,,,,1,460.0346985999995,None,460.0346985999995,None,,,101,111,458.96632319999935,459.4812554,459.46488149999914,459.56488959999933,4,1,0.544314900000245,459.46488149999914,None,459.56488959999933,None,459.46488149999914,None,False,None,None,None,None,None,None,None,None,,,,,,,,,,,,,,,,,,,,,,,,,,,,AG05AS29,1,0x5FB8,D:\CoScience\Logfiles\,2022_Mar_17_1032,GoNoGo,2020.1.3,59.965088325560025,
IN DIESEM BLOCK KÖNNEN SIE EINFACH ENTSPANNT AN DIE AUFGABE HERANGEHEN. SIE SOLLEN SICH NICHT VERAUSGABEN.,100,Go,go,4,1,0,0,0,0,,,,,50,1,151,1,,,,,,,,,,,,,1,462.0182700999994,None,462.0182700999994,None,,,101,111,461.0626741999995,461.56473239999923,461.54823419999957,461.64817349999976,4,1,0.4429608000000371,461.54823419999957,None,461.64817349999976,None,461.54823419999957,None,False,None,None,None,None,None,None,None,None,,,,,,,,,,,,,,,,,,,,,,,,,,,,AG05AS29,1,0x5FB8,D:\CoScience\Logfiles\,2022_Mar_17_1032,GoNoGo,2020.1.3,59.965088325560025,
IN DIESEM BLOCK KÖNNEN SIE EINFACH ENTSPANNT AN DIE AUFGABE HERANGEHEN. SIE SOLLEN SICH NICHT VERAUSGABEN.,100,NoGo,nogo,None,2,0,0,0,0,,,,,50,2,152,2,,,,,,,,,,,,,0.9,464.2321663999992,None,464.2321663999992,None,,,102,0,463.0324106999997,463.53149419999954,463.53149419999954,463.63157389999924,None,1,,463.53149419999954,None,463.63157389999924,None,463.53149419999954,None,False,None,None,None,None,None,None,None,None,,,,,,,,,,,,,,,,,,,,,,,,,,,,AG05AS29,1,0x5FB8,D:\CoScience\Logfiles\,2022_Mar_17_1032,GoNoGo,2020.1.3,59.965088325560025,
IN DIESEM BLOCK KÖNNEN SIE EINFACH ENTSPANNT AN DIE AUFGABE HERANGEHEN. SIE SOLLEN SICH NICHT VERAUSGABEN.,100,Go,go,4,1,0,0,0,0,,,,,51,0,153,1,,,,,,,,,,,,,1,465.93452479999996,None,465.93452479999996,None,,,101,111,465.1457427999994,465.64795719999984,465.6315534999994,465.7315788999995,4,1,0.26954859999932523,465.6315534999994,None,465.7315788999995,None,465.6315534999994,None,False,None,None,None,None,None,None,None,None,,,,,,,,,,,,,,,,,,,,,,,,,,,,AG05AS29,1,0x5FB8,D:\CoScience\Logfiles\,2022_Mar_17_1032,GoNoGo,2020.1.3,59.965088325560025,
IN DIESEM BLOCK KÖNNEN SIE EINFACH ENTSPANNT AN DIE AUFGABE HERANGEHEN. SIE SOLLEN SICH NICHT VERAUSGABEN.,100,Go,go,4,1,0,0,0,0,,,,,51,1,154,1,,,,,,,,,,,,,1,467.9347414999993,None,467.9347414999993,None,,,101,111,466.9628082999998,467.4647965999993,467.44825259999925,467.5483342999996,4,1,0.4678963999995176,467.44825259999925,None,467.5483342999996,None,467.44825259999925,None,False,None,None,None,None,None,None,None,None,,,,,,,,,,,,,,,,,,,,,,,,,,,,AG05AS29,1,0x5FB8,D:\CoScience\Logfiles\,2022_Mar_17_1032,GoNoGo,2020.1.3,59.965088325560025,
IN DIESEM BLOCK KÖNNEN SIE EINFACH ENTSPANNT AN DIE AUFGABE HERANGEHEN. SIE SOLLEN SICH NICHT VERAUSGABEN.,100,Go,go,4,1,0,0,0,0,,,,,51,2,155,0,,,,,,,,,,,,,1,469.81790329999967,None,469.81790329999967,None,,,101,111,468.94740179999917,469.4480133999996,469.43156369999997,469.53155309999966,4,1,0.3546935999993366,469.43156369999997,None,469.53155309999966,None,469.43156369999997,None,False,None,None,None,None,None,None,None,None,,,,,,,,,,,,,,,,,,,,,,,,,,,,AG05AS29,1,0x5FB8,D:\CoScience\Logfiles\,2022_Mar_17_1032,GoNoGo,2020.1.3,59.965088325560025,
IN DIESEM BLOCK KÖNNEN SIE EINFACH ENTSPANNT AN DIE AUFGABE HERANGEHEN. SIE SOLLEN SICH NICHT VERAUSGABEN.,100,Go,go,4,1,0,0,0,0,,,,,52,0,156,0,,,,,,,,,,,,,1,471.73785639999915,None,471.73785639999915,None,,,101,111,470.8323155999997,471.33161969999946,471.33161969999946,471.43167059999996,4,1,0.3704649999999674,471.33161969999946,None,471.43167059999996,None,471.33161969999946,None,False,None,None,None,None,None,None,None,None,,,,,,,,,,,,,,,,,,,,,,,,,,,,AG05AS29,1,0x5FB8,D:\CoScience\Logfiles\,2022_Mar_17_1032,GoNoGo,2020.1.3,59.965088325560025,
IN DIESEM BLOCK KÖNNEN SIE EINFACH ENTSPANNT AN DIE AUFGABE HERANGEHEN. SIE SOLLEN SICH NICHT VERAUSGABEN.,100,Go,go,4,1,0,0,0,0,,,,,52,1,157,1,,,,,,,,,,,,,1,473.63519709999946,None,473.63519709999946,None,,,101,111,472.7624991999992,473.2647978999994,473.24833449999915,473.34826259999954,4,1,0.361759900000834,473.24833449999915,None,473.34826259999954,None,473.24833449999915,None,False,None,None,None,None,None,None,None,None,,,,,,,,,,,,,,,,,,,,,,,,,,,,AG05AS29,1,0x5FB8,D:\CoScience\Logfiles\,2022_Mar_17_1032,GoNoGo,2020.1.3,59.965088325560025,
IN DIESEM BLOCK KÖNNEN SIE EINFACH ENTSPANNT AN DIE AUFGABE HERANGEHEN. SIE SOLLEN SICH NICHT VERAUSGABEN.,100,NoGo,nogo,None,2,0,0,0,0,,,,,52,2,158,2,,,,,,,,,,,,,0.9,475.86274289999983,None,475.86274289999983,None,,,102,0,474.64886709999973,475.1482496999997,475.1482496999997,475.2481466999998,None,1,,475.1482496999997,None,475.2481466999998,None,475.1482496999997,None,False,None,None,None,None,None,None,None,None,,,,,,,,,,,,,,,,,,,,,,,,,,,,AG05AS29,1,0x5FB8,D:\CoScience\Logfiles\,2022_Mar_17_1032,GoNoGo,2020.1.3,59.965088325560025,
IN DIESEM BLOCK KÖNNEN SIE EINFACH ENTSPANNT AN DIE AUFGABE HERANGEHEN. SIE SOLLEN SICH NICHT VERAUSGABEN.,100,Go,go,4,1,0,0,0,0,,,,,53,0,159,0,,,,,,,,,,,,,1,477.61823059999915,None,477.61823059999915,None,,,101,111,476.7650563999996,477.26489129999936,477.26489129999936,477.3648622999999,4,1,0.3261771999996199,477.26489129999936,None,477.3648622999999,None,477.26489129999936,None,False,None,None,None,None,None,None,None,None,,,,,,,,,,,,,,,,,,,,,,,,,,,,AG05AS29,1,0x5FB8,D:\CoScience\Logfiles\,2022_Mar_17_1032,GoNoGo,2020.1.3,59.965088325560025,
IN DIESEM BLOCK KÖNNEN SIE EINFACH ENTSPANNT AN DIE AUFGABE HERANGEHEN. SIE SOLLEN SICH NICHT VERAUSGABEN.,100,Go,go,4,1,0,0,0,0,,,,,53,1,160,1,,,,,,,,,,,,,1,479.5851426999998,None,479.5851426999998,None,,,101,111,478.64570789999925,479.14791759999935,479.13156829999934,479.2311811999998,4,1,0.4235084000001734,479.13156829999934,None,479.2311811999998,None,479.13156829999934,None,False,None,None,None,None,None,None,None,None,,,,,,,,,,,,,,,,,,,,,,,,,,,,AG05AS29,1,0x5FB8,D:\CoScience\Logfiles\,2022_Mar_17_1032,GoNoGo,2020.1.3,59.965088325560025,
IN DIESEM BLOCK KÖNNEN SIE EINFACH ENTSPANNT AN DIE AUFGABE HERANGEHEN. SIE SOLLEN SICH NICHT VERAUSGABEN.,100,Go,go,4,1,0,0,0,0,,,,,53,2,161,0,,,,,,,,,,,,,1,481.5342535,None,481.5342535,None,,,101,111,480.5982963999995,481.0982801,481.0982801,481.1981495,4,1,0.41089259999989736,481.0982801,None,481.1981495,None,481.0982801,None,False,None,None,None,None,None,None,None,None,,,,,,,,,,,,,,,,,,,,,,,,,,,,AG05AS29,1,0x5FB8,D:\CoScience\Logfiles\,2022_Mar_17_1032,GoNoGo,2020.1.3,59.965088325560025,
IN DIESEM BLOCK KÖNNEN SIE EINFACH ENTSPANNT AN DIE AUFGABE HERANGEHEN. SIE SOLLEN SICH NICHT VERAUSGABEN.,100,Go,go,4,1,0,0,0,0,,,,,54,0,162,1,,,,,,,,,,,,,1,483.4874646999997,None,483.4874646999997,None,,,101,111,482.56258779999916,483.0646339999994,483.0482444999998,483.1481608999993,4,1,0.403846700000031,483.0482444999998,None,483.1481608999993,None,483.0482444999998,None,False,None,None,None,None,None,None,None,None,,,,,,,,,,,,,,,,,,,,,,,,,,,,AG05AS29,1,0x5FB8,D:\CoScience\Logfiles\,2022_Mar_17_1032,GoNoGo,2020.1.3,59.965088325560025,
IN DIESEM BLOCK KÖNNEN SIE EINFACH ENTSPANNT AN DIE AUFGABE HERANGEHEN. SIE SOLLEN SICH NICHT VERAUSGABEN.,100,Go,go,4,1,0,0,0,0,,,,,54,1,163,1,,,,,,,,,,,,,1,485.36522389999936,None,485.36522389999936,None,,,101,111,484.4993722999998,485.01400059999924,484.9970513999997,485.09700449999946,4,1,0.35078169999997044,484.9970513999997,None,485.09700449999946,None,484.9970513999997,None,False,None,None,None,None,None,None,None,None,,,,,,,,,,,,,,,,,,,,,,,,,,,,AG05AS29,1,0x5FB8,D:\CoScience\Logfiles\,2022_Mar_17_1032,GoNoGo,2020.1.3,59.965088325560025,
IN DIESEM BLOCK KÖNNEN SIE EINFACH ENTSPANNT AN DIE AUFGABE HERANGEHEN. SIE SOLLEN SICH NICHT VERAUSGABEN.,100,Go,go,4,1,0,0,0,0,,,,,54,2,164,1,,,,,,,,,,,,,1,487.2151937999997,None,487.2151937999997,None,,,101,111,486.38020999999935,486.8802128999996,486.86354109999957,486.96353699999963,4,1,0.33337529999971593,486.86354109999957,None,486.96353699999963,None,486.86354109999957,None,False,None,None,None,None,None,None,None,None,,,,,,,,,,,,,,,,,,,,,,,,,,,,AG05AS29,1,0x5FB8,D:\CoScience\Logfiles\,2022_Mar_17_1032,GoNoGo,2020.1.3,59.965088325560025,
IN DIESEM BLOCK KÖNNEN SIE EINFACH ENTSPANNT AN DIE AUFGABE HERANGEHEN. SIE SOLLEN SICH NICHT VERAUSGABEN.,100,NoGo,nogo,None,2,0,0,0,0,,,,,55,0,165,2,,,,,,,,,,,,,0.9,489.41437849999966,None,489.41437849999966,None,,,102,0,488.2301781999995,488.7301883,488.7135230999993,488.81356659999983,None,1,,488.7135230999993,None,488.81356659999983,None,488.7135230999993,None,False,None,None,None,None,None,None,None,None,,,,,,,,,,,,,,,,,,,,,,,,,,,,AG05AS29,1,0x5FB8,D:\CoScience\Logfiles\,2022_Mar_17_1032,GoNoGo,2020.1.3,59.965088325560025,
IN DIESEM BLOCK KÖNNEN SIE EINFACH ENTSPANNT AN DIE AUFGABE HERANGEHEN. SIE SOLLEN SICH NICHT VERAUSGABEN.,100,NoGo,nogo,None,2,0,0,0,0,,,,,55,1,166,2,,,,,,,,,,,,,0.9,491.49746609999966,None,491.49746609999966,None,,,102,0,490.31349189999946,490.81356959999994,490.7968684999996,490.8968879999993,None,1,,490.7968684999996,None,490.8968879999993,None,490.7968684999996,None,False,None,None,None,None,None,None,None,None,,,,,,,,,,,,,,,,,,,,,,,,,,,,AG05AS29,1,0x5FB8,D:\CoScience\Logfiles\,2022_Mar_17_1032,GoNoGo,2020.1.3,59.965088325560025,
