"Onset","Duration","Participant","date_time","Target_Mapping","Order_Instruction","Running","Trial","Event","Type","InstructionCondition","Accuracy","RT","Post_Trial","TaskPerf"
63.3455520999996,0.5,"AG05AS29","2022_Mar_17_1032","circle","relaxed_first","Practice",0,"Fixation","Go","relaxed",1,0.617567700000109,NA,97.4206349206349
63.8321790999998,0.1,"AG05AS29","2022_Mar_17_1032","circle","relaxed_first","Practice",0,"Target","Go","relaxed",1,0.617567700000109,NA,97.4206349206349
63.9321481999996,1.5,"AG05AS29","2022_Mar_17_1032","circle","relaxed_first","Practice",0,"ITI","Go","relaxed",1,0.617567700000109,NA,97.4206349206349
64.4497468,0,"AG05AS29","2022_Mar_17_1032","circle","relaxed_first","Practice",0,"Response","Go","relaxed",1,0.617567700000109,NA,97.4206349206349
65.4482307999997,0.5,"AG05AS29","2022_Mar_17_1032","circle","relaxed_first","Practice",1,"Fixation","Go","relaxed",1,0.472422300000289,"post_correct_resp",97.4206349206349
65.9323422999996,0.1,"AG05AS29","2022_Mar_17_1032","circle","relaxed_first","Practice",1,"Target","Go","relaxed",1,0.472422300000289,"post_correct_resp",97.4206349206349
66.0322016999999,1.37242230000029,"AG05AS29","2022_Mar_17_1032","circle","relaxed_first","Practice",1,"ITI","Go","relaxed",1,0.472422300000289,"post_correct_resp",97.4206349206349
66.4047645999999,0,"AG05AS29","2022_Mar_17_1032","circle","relaxed_first","Practice",1,"Response","Go","relaxed",1,0.472422300000289,"post_correct_resp",97.4206349206349
67.4326378999995,0.5,"AG05AS29","2022_Mar_17_1032","circle","relaxed_first","Practice",2,"Fixation","NoGo","relaxed",1,NA,"post_correct_resp",97.4206349206349
67.9321832999995,0.1,"AG05AS29","2022_Mar_17_1032","circle","relaxed_first","Practice",2,"Target","NoGo","relaxed",1,NA,"post_correct_resp",97.4206349206349
68.0318002999993,1.5,"AG05AS29","2022_Mar_17_1032","circle","relaxed_first","Practice",2,"ITI","NoGo","relaxed",1,NA,"post_correct_resp",97.4206349206349
69.5316543999998,0.5,"AG05AS29","2022_Mar_17_1032","circle","relaxed_first","Practice",3,"Fixation","Go","relaxed",1,0.452392299999701,"post_correct_inh",97.4206349206349
70.0155146999996,0.1,"AG05AS29","2022_Mar_17_1032","circle","relaxed_first","Practice",3,"Target","Go","relaxed",1,0.452392299999701,"post_correct_inh",97.4206349206349
70.1154328999992,1.3523922999997,"AG05AS29","2022_Mar_17_1032","circle","relaxed_first","Practice",3,"ITI","Go","relaxed",1,0.452392299999701,"post_correct_inh",97.4206349206349
70.4679069999993,0,"AG05AS29","2022_Mar_17_1032","circle","relaxed_first","Practice",3,"Response","Go","relaxed",1,0.452392299999701,"post_correct_inh",97.4206349206349
71.4987034999995,0.5,"AG05AS29","2022_Mar_17_1032","circle","relaxed_first","Practice",4,"Fixation","Go","relaxed",1,0.514635100000305,"post_correct_resp",97.4206349206349
71.9821020999998,0.1,"AG05AS29","2022_Mar_17_1032","circle","relaxed_first","Practice",4,"Target","Go","relaxed",1,0.514635100000305,"post_correct_resp",97.4206349206349
72.0820838999998,1.41463510000031,"AG05AS29","2022_Mar_17_1032","circle","relaxed_first","Practice",4,"ITI","Go","relaxed",1,0.514635100000305,"post_correct_resp",97.4206349206349
72.4967372000001,0,"AG05AS29","2022_Mar_17_1032","circle","relaxed_first","Practice",4,"Response","Go","relaxed",1,0.514635100000305,"post_correct_resp",97.4206349206349
73.5151827,0.5,"AG05AS29","2022_Mar_17_1032","circle","relaxed_first","Practice",5,"Fixation","Go","relaxed",1,0.460985499999879,"post_correct_resp",97.4206349206349
73.9988592,0.1,"AG05AS29","2022_Mar_17_1032","circle","relaxed_first","Practice",5,"Target","Go","relaxed",1,0.460985499999879,"post_correct_resp",97.4206349206349
74.0987937999998,1.36098549999988,"AG05AS29","2022_Mar_17_1032","circle","relaxed_first","Practice",5,"ITI","Go","relaxed",1,0.460985499999879,"post_correct_resp",97.4206349206349
74.4598446999998,0,"AG05AS29","2022_Mar_17_1032","circle","relaxed_first","Practice",5,"Response","Go","relaxed",1,0.460985499999879,"post_correct_resp",97.4206349206349
75.4817211999998,0.5,"AG05AS29","2022_Mar_17_1032","circle","relaxed_first","Practice",6,"Fixation","Go","relaxed",1,0.405385300000489,"post_correct_resp",97.4206349206349
75.9655082999998,0.1,"AG05AS29","2022_Mar_17_1032","circle","relaxed_first","Practice",6,"Target","Go","relaxed",1,0.405385300000489,"post_correct_resp",97.4206349206349
76.0655426999992,1.30538530000049,"AG05AS29","2022_Mar_17_1032","circle","relaxed_first","Practice",6,"ITI","Go","relaxed",1,0.405385300000489,"post_correct_resp",97.4206349206349
76.3708936000003,0,"AG05AS29","2022_Mar_17_1032","circle","relaxed_first","Practice",6,"Response","Go","relaxed",1,0.405385300000489,"post_correct_resp",97.4206349206349
77.3985041999995,0.5,"AG05AS29","2022_Mar_17_1032","circle","relaxed_first","Practice",7,"Fixation","Go","relaxed",1,0.477471199999854,"post_correct_resp",97.4206349206349
77.8822568999994,0.1,"AG05AS29","2022_Mar_17_1032","circle","relaxed_first","Practice",7,"Target","Go","relaxed",1,0.477471199999854,"post_correct_resp",97.4206349206349
77.9821851999995,1.37747119999985,"AG05AS29","2022_Mar_17_1032","circle","relaxed_first","Practice",7,"ITI","Go","relaxed",1,0.477471199999854,"post_correct_resp",97.4206349206349
78.3597280999993,0,"AG05AS29","2022_Mar_17_1032","circle","relaxed_first","Practice",7,"Response","Go","relaxed",1,0.477471199999854,"post_correct_resp",97.4206349206349
79.3819232999995,0.5,"AG05AS29","2022_Mar_17_1032","circle","relaxed_first","Practice",8,"Fixation","Go","relaxed",1,0.483329000000595,"post_correct_resp",97.4206349206349
79.865511,0.1,"AG05AS29","2022_Mar_17_1032","circle","relaxed_first","Practice",8,"Target","Go","relaxed",1,0.483329000000595,"post_correct_resp",97.4206349206349
79.9655137,1.38332900000059,"AG05AS29","2022_Mar_17_1032","circle","relaxed_first","Practice",8,"ITI","Go","relaxed",1,0.483329000000595,"post_correct_resp",97.4206349206349
80.3488400000006,0,"AG05AS29","2022_Mar_17_1032","circle","relaxed_first","Practice",8,"Response","Go","relaxed",1,0.483329000000595,"post_correct_resp",97.4206349206349
81.3648559999992,0.5,"AG05AS29","2022_Mar_17_1032","circle","relaxed_first","Practice",9,"Fixation","NoGo","relaxed",1,NA,"post_correct_resp",97.4206349206349
81.8484571999998,0.1,"AG05AS29","2022_Mar_17_1032","circle","relaxed_first","Practice",9,"Target","NoGo","relaxed",1,NA,"post_correct_resp",97.4206349206349
81.9488692999994,1.5,"AG05AS29","2022_Mar_17_1032","circle","relaxed_first","Practice",9,"ITI","NoGo","relaxed",1,NA,"post_correct_resp",97.4206349206349
83.4485011999996,0.5,"AG05AS29","2022_Mar_17_1032","circle","relaxed_first","Practice",10,"Fixation","NoGo","relaxed",1,NA,"post_correct_inh",97.4206349206349
83.9321852999992,0.1,"AG05AS29","2022_Mar_17_1032","circle","relaxed_first","Practice",10,"Target","NoGo","relaxed",1,NA,"post_correct_inh",97.4206349206349
84.0321574999998,1.5,"AG05AS29","2022_Mar_17_1032","circle","relaxed_first","Practice",10,"ITI","NoGo","relaxed",1,NA,"post_correct_inh",97.4206349206349
85.5319125999995,0.5,"AG05AS29","2022_Mar_17_1032","circle","relaxed_first","Practice",11,"Fixation","NoGo","relaxed",1,NA,"post_correct_inh",97.4206349206349
86.0155006999994,0.1,"AG05AS29","2022_Mar_17_1032","circle","relaxed_first","Practice",11,"Target","NoGo","relaxed",1,NA,"post_correct_inh",97.4206349206349
86.1154778999999,1.5,"AG05AS29","2022_Mar_17_1032","circle","relaxed_first","Practice",11,"ITI","NoGo","relaxed",1,NA,"post_correct_inh",97.4206349206349
87.6146254999994,0.5,"AG05AS29","2022_Mar_17_1032","circle","relaxed_first","Practice",12,"Fixation","Go","relaxed",1,0.439773200000673,"post_correct_inh",97.4206349206349
88.0989170999992,0.1,"AG05AS29","2022_Mar_17_1032","circle","relaxed_first","Practice",12,"Target","Go","relaxed",1,0.439773200000673,"post_correct_inh",97.4206349206349
88.1988296999998,1.33977320000067,"AG05AS29","2022_Mar_17_1032","circle","relaxed_first","Practice",12,"ITI","Go","relaxed",1,0.439773200000673,"post_correct_inh",97.4206349206349
88.5386902999999,0,"AG05AS29","2022_Mar_17_1032","circle","relaxed_first","Practice",12,"Response","Go","relaxed",1,0.439773200000673,"post_correct_inh",97.4206349206349
89.5646015999992,0.5,"AG05AS29","2022_Mar_17_1032","circle","relaxed_first","Practice",13,"Fixation","NoGo","relaxed",1,NA,"post_correct_resp",97.4206349206349
90.0489823999997,0.1,"AG05AS29","2022_Mar_17_1032","circle","relaxed_first","Practice",13,"Target","NoGo","relaxed",1,NA,"post_correct_resp",97.4206349206349
90.1488399999998,1.5,"AG05AS29","2022_Mar_17_1032","circle","relaxed_first","Practice",13,"ITI","NoGo","relaxed",1,NA,"post_correct_resp",97.4206349206349
91.6481459999995,0.5,"AG05AS29","2022_Mar_17_1032","circle","relaxed_first","Practice",14,"Fixation","Go","relaxed",1,0.402475800000502,"post_correct_inh",97.4206349206349
92.1322047999993,0.1,"AG05AS29","2022_Mar_17_1032","circle","relaxed_first","Practice",14,"Target","Go","relaxed",1,0.402475800000502,"post_correct_inh",97.4206349206349
92.2322415999997,1.3024758000005,"AG05AS29","2022_Mar_17_1032","circle","relaxed_first","Practice",14,"ITI","Go","relaxed",1,0.402475800000502,"post_correct_inh",97.4206349206349
92.5346805999998,0,"AG05AS29","2022_Mar_17_1032","circle","relaxed_first","Practice",14,"Response","Go","relaxed",1,0.402475800000502,"post_correct_inh",97.4206349206349
103.8429184,0.5,"AG05AS29","2022_Mar_17_1032","circle","relaxed_first","MainTask",0,"Fixation","Go","relaxed",1,0.452082200000405,"post_correct_resp",97.4206349206349
104.331588999999,0.1,"AG05AS29","2022_Mar_17_1032","circle","relaxed_first","MainTask",0,"Target","Go","relaxed",1,0.452082200000405,"post_correct_resp",97.4206349206349
104.432107199999,1.3520822000004,"AG05AS29","2022_Mar_17_1032","circle","relaxed_first","MainTask",0,"ITI","Go","relaxed",1,0.452082200000405,"post_correct_resp",97.4206349206349
104.7836712,0,"AG05AS29","2022_Mar_17_1032","circle","relaxed_first","MainTask",0,"Response","Go","relaxed",1,0.452082200000405,"post_correct_resp",97.4206349206349
105.8258016,0.5,"AG05AS29","2022_Mar_17_1032","circle","relaxed_first","MainTask",1,"Fixation","Go","relaxed",1,0.41221459999997,"post_correct_resp",97.4206349206349
106.315520499999,0.1,"AG05AS29","2022_Mar_17_1032","circle","relaxed_first","MainTask",1,"Target","Go","relaxed",1,0.41221459999997,"post_correct_resp",97.4206349206349
106.415373,1.31221459999997,"AG05AS29","2022_Mar_17_1032","circle","relaxed_first","MainTask",1,"ITI","Go","relaxed",1,0.41221459999997,"post_correct_resp",97.4206349206349
106.727735099999,0,"AG05AS29","2022_Mar_17_1032","circle","relaxed_first","MainTask",1,"Response","Go","relaxed",1,0.41221459999997,"post_correct_resp",97.4206349206349
107.7796315,0.5,"AG05AS29","2022_Mar_17_1032","circle","relaxed_first","MainTask",2,"Fixation","Go","relaxed",1,0.560197000000699,"post_correct_resp",97.4206349206349
108.2654582,0.1,"AG05AS29","2022_Mar_17_1032","circle","relaxed_first","MainTask",2,"Target","Go","relaxed",1,0.560197000000699,"post_correct_resp",97.4206349206349
108.3653543,1.4601970000007,"AG05AS29","2022_Mar_17_1032","circle","relaxed_first","MainTask",2,"ITI","Go","relaxed",1,0.560197000000699,"post_correct_resp",97.4206349206349
108.8256552,0,"AG05AS29","2022_Mar_17_1032","circle","relaxed_first","MainTask",2,"Response","Go","relaxed",1,0.560197000000699,"post_correct_resp",97.4206349206349
109.879602499999,0.5,"AG05AS29","2022_Mar_17_1032","circle","relaxed_first","MainTask",3,"Fixation","Go","relaxed",1,0.420249199999489,"post_correct_resp",97.4206349206349
110.365433499999,0.1,"AG05AS29","2022_Mar_17_1032","circle","relaxed_first","MainTask",3,"Target","Go","relaxed",1,0.420249199999489,"post_correct_resp",97.4206349206349
110.4653463,1.32024919999949,"AG05AS29","2022_Mar_17_1032","circle","relaxed_first","MainTask",3,"ITI","Go","relaxed",1,0.420249199999489,"post_correct_resp",97.4206349206349
110.785682699999,0,"AG05AS29","2022_Mar_17_1032","circle","relaxed_first","MainTask",3,"Response","Go","relaxed",1,0.420249199999489,"post_correct_resp",97.4206349206349
111.846537099999,0.5,"AG05AS29","2022_Mar_17_1032","circle","relaxed_first","MainTask",4,"Fixation","Go","relaxed",1,0.521486200000254,"post_correct_resp",97.4206349206349
112.332162299999,0.1,"AG05AS29","2022_Mar_17_1032","circle","relaxed_first","MainTask",4,"Target","Go","relaxed",1,0.521486200000254,"post_correct_resp",97.4206349206349
112.4321408,1.42148620000025,"AG05AS29","2022_Mar_17_1032","circle","relaxed_first","MainTask",4,"ITI","Go","relaxed",1,0.521486200000254,"post_correct_resp",97.4206349206349
112.8536485,0,"AG05AS29","2022_Mar_17_1032","circle","relaxed_first","MainTask",4,"Response","Go","relaxed",1,0.521486200000254,"post_correct_resp",97.4206349206349
113.9132333,0.5,"AG05AS29","2022_Mar_17_1032","circle","relaxed_first","MainTask",5,"Fixation","Go","relaxed",0,NA,"post_correct_resp",97.4206349206349
114.398697,0.1,"AG05AS29","2022_Mar_17_1032","circle","relaxed_first","MainTask",5,"Target","Go","relaxed",0,NA,"post_correct_resp",97.4206349206349
114.4987544,1.5,"AG05AS29","2022_Mar_17_1032","circle","relaxed_first","MainTask",5,"ITI","Go","relaxed",0,NA,"post_correct_resp",97.4206349206349
116.0297756,0.5,"AG05AS29","2022_Mar_17_1032","circle","relaxed_first","MainTask",6,"Fixation","NoGo","relaxed",1,NA,"post_error_inh",97.4206349206349
116.515495099999,0.1,"AG05AS29","2022_Mar_17_1032","circle","relaxed_first","MainTask",6,"Target","NoGo","relaxed",1,NA,"post_error_inh",97.4206349206349
116.6155086,1.5,"AG05AS29","2022_Mar_17_1032","circle","relaxed_first","MainTask",6,"ITI","NoGo","relaxed",1,NA,"post_error_inh",97.4206349206349
118.116276799999,0.5,"AG05AS29","2022_Mar_17_1032","circle","relaxed_first","MainTask",7,"Fixation","Go","relaxed",1,0.42624380000052,"post_correct_inh",97.4206349206349
118.6154717,0.1,"AG05AS29","2022_Mar_17_1032","circle","relaxed_first","MainTask",7,"Target","Go","relaxed",1,0.42624380000052,"post_correct_inh",97.4206349206349
118.715416399999,1.32624380000052,"AG05AS29","2022_Mar_17_1032","circle","relaxed_first","MainTask",7,"ITI","Go","relaxed",1,0.42624380000052,"post_correct_inh",97.4206349206349
119.0417155,0,"AG05AS29","2022_Mar_17_1032","circle","relaxed_first","MainTask",7,"Response","Go","relaxed",1,0.42624380000052,"post_correct_inh",97.4206349206349
120.096506,0.5,"AG05AS29","2022_Mar_17_1032","circle","relaxed_first","MainTask",8,"Fixation","Go","relaxed",1,0.463867100000243,"post_correct_resp",97.4206349206349
120.582030899999,0.1,"AG05AS29","2022_Mar_17_1032","circle","relaxed_first","MainTask",8,"Target","Go","relaxed",1,0.463867100000243,"post_correct_resp",97.4206349206349
120.6820834,1.36386710000024,"AG05AS29","2022_Mar_17_1032","circle","relaxed_first","MainTask",8,"ITI","Go","relaxed",1,0.463867100000243,"post_correct_resp",97.4206349206349
121.045897999999,0,"AG05AS29","2022_Mar_17_1032","circle","relaxed_first","MainTask",8,"Response","Go","relaxed",1,0.463867100000243,"post_correct_resp",97.4206349206349
122.096454099999,0.5,"AG05AS29","2022_Mar_17_1032","circle","relaxed_first","MainTask",9,"Fixation","Go","relaxed",1,0.425612200000614,"post_correct_resp",97.4206349206349
122.582130999999,0.1,"AG05AS29","2022_Mar_17_1032","circle","relaxed_first","MainTask",9,"Target","Go","relaxed",1,0.425612200000614,"post_correct_resp",97.4206349206349
122.682059199999,1.32561220000061,"AG05AS29","2022_Mar_17_1032","circle","relaxed_first","MainTask",9,"ITI","Go","relaxed",1,0.425612200000614,"post_correct_resp",97.4206349206349
123.0077432,0,"AG05AS29","2022_Mar_17_1032","circle","relaxed_first","MainTask",9,"Response","Go","relaxed",1,0.425612200000614,"post_correct_resp",97.4206349206349
124.0633576,0.5,"AG05AS29","2022_Mar_17_1032","circle","relaxed_first","MainTask",10,"Fixation","Go","relaxed",1,0.444000599999526,"post_correct_resp",97.4206349206349
124.5487607,0.1,"AG05AS29","2022_Mar_17_1032","circle","relaxed_first","MainTask",10,"Target","Go","relaxed",1,0.444000599999526,"post_correct_resp",97.4206349206349
124.6486614,1.34400059999953,"AG05AS29","2022_Mar_17_1032","circle","relaxed_first","MainTask",10,"ITI","Go","relaxed",1,0.444000599999526,"post_correct_resp",97.4206349206349
124.992761299999,0,"AG05AS29","2022_Mar_17_1032","circle","relaxed_first","MainTask",10,"Response","Go","relaxed",1,0.444000599999526,"post_correct_resp",97.4206349206349
126.046670999999,0.5,"AG05AS29","2022_Mar_17_1032","circle","relaxed_first","MainTask",11,"Fixation","Go","relaxed",1,0.527820199999951,"post_correct_resp",97.4206349206349
126.532106799999,0.1,"AG05AS29","2022_Mar_17_1032","circle","relaxed_first","MainTask",11,"Target","Go","relaxed",1,0.527820199999951,"post_correct_resp",97.4206349206349
126.6322517,1.42782019999995,"AG05AS29","2022_Mar_17_1032","circle","relaxed_first","MainTask",11,"ITI","Go","relaxed",1,0.527820199999951,"post_correct_resp",97.4206349206349
127.059926999999,0,"AG05AS29","2022_Mar_17_1032","circle","relaxed_first","MainTask",11,"Response","Go","relaxed",1,0.527820199999951,"post_correct_resp",97.4206349206349
128.113354499999,0.5,"AG05AS29","2022_Mar_17_1032","circle","relaxed_first","MainTask",12,"Fixation","Go","relaxed",1,0.428024300000288,"post_correct_resp",97.4206349206349
128.5987275,0.1,"AG05AS29","2022_Mar_17_1032","circle","relaxed_first","MainTask",12,"Target","Go","relaxed",1,0.428024300000288,"post_correct_resp",97.4206349206349
128.6987129,1.32802430000029,"AG05AS29","2022_Mar_17_1032","circle","relaxed_first","MainTask",12,"ITI","Go","relaxed",1,0.428024300000288,"post_correct_resp",97.4206349206349
129.0267518,0,"AG05AS29","2022_Mar_17_1032","circle","relaxed_first","MainTask",12,"Response","Go","relaxed",1,0.428024300000288,"post_correct_resp",97.4206349206349
130.079774,0.5,"AG05AS29","2022_Mar_17_1032","circle","relaxed_first","MainTask",13,"Fixation","Go","relaxed",1,0.458114000000023,"post_correct_resp",97.4206349206349
130.565487299999,0.1,"AG05AS29","2022_Mar_17_1032","circle","relaxed_first","MainTask",13,"Target","Go","relaxed",1,0.458114000000023,"post_correct_resp",97.4206349206349
130.6653238,1.35811400000002,"AG05AS29","2022_Mar_17_1032","circle","relaxed_first","MainTask",13,"ITI","Go","relaxed",1,0.458114000000023,"post_correct_resp",97.4206349206349
131.023601299999,0,"AG05AS29","2022_Mar_17_1032","circle","relaxed_first","MainTask",13,"Response","Go","relaxed",1,0.458114000000023,"post_correct_resp",97.4206349206349
132.066141099999,0.5,"AG05AS29","2022_Mar_17_1032","circle","relaxed_first","MainTask",14,"Fixation","NoGo","relaxed",1,NA,"post_correct_resp",97.4206349206349
132.5654233,0.1,"AG05AS29","2022_Mar_17_1032","circle","relaxed_first","MainTask",14,"Target","NoGo","relaxed",1,NA,"post_correct_resp",97.4206349206349
132.6654159,1.5,"AG05AS29","2022_Mar_17_1032","circle","relaxed_first","MainTask",14,"ITI","NoGo","relaxed",1,NA,"post_correct_resp",97.4206349206349
134.1673562,0.5,"AG05AS29","2022_Mar_17_1032","circle","relaxed_first","MainTask",15,"Fixation","Go","relaxed",1,0.428367299999991,"post_correct_inh",97.4206349206349
134.665362799999,0.1,"AG05AS29","2022_Mar_17_1032","circle","relaxed_first","MainTask",15,"Target","Go","relaxed",1,0.428367299999991,"post_correct_inh",97.4206349206349
134.765367499999,1.32836729999999,"AG05AS29","2022_Mar_17_1032","circle","relaxed_first","MainTask",15,"ITI","Go","relaxed",1,0.428367299999991,"post_correct_inh",97.4206349206349
135.093730099999,0,"AG05AS29","2022_Mar_17_1032","circle","relaxed_first","MainTask",15,"Response","Go","relaxed",1,0.428367299999991,"post_correct_inh",97.4206349206349
136.1326586,0.5,"AG05AS29","2022_Mar_17_1032","circle","relaxed_first","MainTask",16,"Fixation","Go","relaxed",1,0.465810200000305,"post_break",97.4206349206349
136.6318083,0.1,"AG05AS29","2022_Mar_17_1032","circle","relaxed_first","MainTask",16,"Target","Go","relaxed",1,0.465810200000305,"post_break",97.4206349206349
136.7321388,1.36581020000031,"AG05AS29","2022_Mar_17_1032","circle","relaxed_first","MainTask",16,"ITI","Go","relaxed",1,0.465810200000305,"post_break",97.4206349206349
137.0976185,0,"AG05AS29","2022_Mar_17_1032","circle","relaxed_first","MainTask",16,"Response","Go","relaxed",1,0.465810200000305,"post_break",97.4206349206349
138.146472099999,0.5,"AG05AS29","2022_Mar_17_1032","circle","relaxed_first","MainTask",17,"Fixation","Go","relaxed",1,0.494880499999454,"post_correct_resp",97.4206349206349
138.631991499999,0.1,"AG05AS29","2022_Mar_17_1032","circle","relaxed_first","MainTask",17,"Target","Go","relaxed",1,0.494880499999454,"post_correct_resp",97.4206349206349
138.7321428,1.39488049999945,"AG05AS29","2022_Mar_17_1032","circle","relaxed_first","MainTask",17,"ITI","Go","relaxed",1,0.494880499999454,"post_correct_resp",97.4206349206349
139.126871999999,0,"AG05AS29","2022_Mar_17_1032","circle","relaxed_first","MainTask",17,"Response","Go","relaxed",1,0.494880499999454,"post_correct_resp",97.4206349206349
140.1797809,0.5,"AG05AS29","2022_Mar_17_1032","circle","relaxed_first","MainTask",18,"Fixation","Go","relaxed",1,0.479204999999638,"post_correct_resp",97.4206349206349
140.6654185,0.1,"AG05AS29","2022_Mar_17_1032","circle","relaxed_first","MainTask",18,"Target","Go","relaxed",1,0.479204999999638,"post_correct_resp",97.4206349206349
140.7654223,1.37920499999964,"AG05AS29","2022_Mar_17_1032","circle","relaxed_first","MainTask",18,"ITI","Go","relaxed",1,0.479204999999638,"post_correct_resp",97.4206349206349
141.144623499999,0,"AG05AS29","2022_Mar_17_1032","circle","relaxed_first","MainTask",18,"Response","Go","relaxed",1,0.479204999999638,"post_correct_resp",97.4206349206349
142.196457999999,0.5,"AG05AS29","2022_Mar_17_1032","circle","relaxed_first","MainTask",19,"Fixation","Go","relaxed",1,0.395555400000376,"post_correct_resp",97.4206349206349
142.682038899999,0.1,"AG05AS29","2022_Mar_17_1032","circle","relaxed_first","MainTask",19,"Target","Go","relaxed",1,0.395555400000376,"post_correct_resp",97.4206349206349
142.781573099999,1.29555540000038,"AG05AS29","2022_Mar_17_1032","circle","relaxed_first","MainTask",19,"ITI","Go","relaxed",1,0.395555400000376,"post_correct_resp",97.4206349206349
143.0775943,0,"AG05AS29","2022_Mar_17_1032","circle","relaxed_first","MainTask",19,"Response","Go","relaxed",1,0.395555400000376,"post_correct_resp",97.4206349206349
144.129520799999,0.5,"AG05AS29","2022_Mar_17_1032","circle","relaxed_first","MainTask",20,"Fixation","Go","relaxed",1,0.353287500000079,"post_correct_resp",97.4206349206349
144.615321499999,0.1,"AG05AS29","2022_Mar_17_1032","circle","relaxed_first","MainTask",20,"Target","Go","relaxed",1,0.353287500000079,"post_correct_resp",97.4206349206349
144.7152749,1.25328750000008,"AG05AS29","2022_Mar_17_1032","circle","relaxed_first","MainTask",20,"ITI","Go","relaxed",1,0.353287500000079,"post_correct_resp",97.4206349206349
144.968609,0,"AG05AS29","2022_Mar_17_1032","circle","relaxed_first","MainTask",20,"Response","Go","relaxed",1,0.353287500000079,"post_correct_resp",97.4206349206349
146.0297905,0.5,"AG05AS29","2022_Mar_17_1032","circle","relaxed_first","MainTask",21,"Fixation","Go","relaxed",1,0.406588900000315,"post_correct_resp",97.4206349206349
146.5150096,0.1,"AG05AS29","2022_Mar_17_1032","circle","relaxed_first","MainTask",21,"Target","Go","relaxed",1,0.406588900000315,"post_correct_resp",97.4206349206349
146.615414899999,1.30658890000032,"AG05AS29","2022_Mar_17_1032","circle","relaxed_first","MainTask",21,"ITI","Go","relaxed",1,0.406588900000315,"post_correct_resp",97.4206349206349
146.9215985,0,"AG05AS29","2022_Mar_17_1032","circle","relaxed_first","MainTask",21,"Response","Go","relaxed",1,0.406588900000315,"post_correct_resp",97.4206349206349
147.965508499999,0.5,"AG05AS29","2022_Mar_17_1032","circle","relaxed_first","MainTask",22,"Fixation","NoGo","relaxed",1,NA,"post_correct_resp",97.4206349206349
148.4653524,0.1,"AG05AS29","2022_Mar_17_1032","circle","relaxed_first","MainTask",22,"Target","NoGo","relaxed",1,NA,"post_correct_resp",97.4206349206349
148.5652523,1.5,"AG05AS29","2022_Mar_17_1032","circle","relaxed_first","MainTask",22,"ITI","NoGo","relaxed",1,NA,"post_correct_resp",97.4206349206349
150.0661315,0.5,"AG05AS29","2022_Mar_17_1032","circle","relaxed_first","MainTask",23,"Fixation","Go","relaxed",1,0.358141000000614,"post_correct_inh",97.4206349206349
150.565378599999,0.1,"AG05AS29","2022_Mar_17_1032","circle","relaxed_first","MainTask",23,"Target","Go","relaxed",1,0.358141000000614,"post_correct_inh",97.4206349206349
150.6653876,1.25814100000061,"AG05AS29","2022_Mar_17_1032","circle","relaxed_first","MainTask",23,"ITI","Go","relaxed",1,0.358141000000614,"post_correct_inh",97.4206349206349
150.9235196,0,"AG05AS29","2022_Mar_17_1032","circle","relaxed_first","MainTask",23,"Response","Go","relaxed",1,0.358141000000614,"post_correct_inh",97.4206349206349
151.966707,0.5,"AG05AS29","2022_Mar_17_1032","circle","relaxed_first","MainTask",24,"Fixation","NoGo","relaxed",0,0.533996099999968,"post_correct_resp",97.4206349206349
152.4655758,0.1,"AG05AS29","2022_Mar_17_1032","circle","relaxed_first","MainTask",24,"Target","NoGo","relaxed",0,0.533996099999968,"post_correct_resp",97.4206349206349
152.5654777,1.43399609999997,"AG05AS29","2022_Mar_17_1032","circle","relaxed_first","MainTask",24,"ITI","NoGo","relaxed",0,0.533996099999968,"post_correct_resp",97.4206349206349
152.9995719,0,"AG05AS29","2022_Mar_17_1032","circle","relaxed_first","MainTask",24,"Response","NoGo","relaxed",0,0.533996099999968,"post_correct_resp",97.4206349206349
154.0327486,0.5,"AG05AS29","2022_Mar_17_1032","circle","relaxed_first","MainTask",25,"Fixation","Go","relaxed",1,0.462731399999939,"post_error_resp",97.4206349206349
154.5320861,0.1,"AG05AS29","2022_Mar_17_1032","circle","relaxed_first","MainTask",25,"Target","Go","relaxed",1,0.462731399999939,"post_error_resp",97.4206349206349
154.632119999999,1.36273139999994,"AG05AS29","2022_Mar_17_1032","circle","relaxed_first","MainTask",25,"ITI","Go","relaxed",1,0.462731399999939,"post_error_resp",97.4206349206349
154.9948175,0,"AG05AS29","2022_Mar_17_1032","circle","relaxed_first","MainTask",25,"Response","Go","relaxed",1,0.462731399999939,"post_error_resp",97.4206349206349
156.0335802,0.5,"AG05AS29","2022_Mar_17_1032","circle","relaxed_first","MainTask",26,"Fixation","NoGo","relaxed",1,NA,"post_correct_resp",97.4206349206349
156.5319309,0.1,"AG05AS29","2022_Mar_17_1032","circle","relaxed_first","MainTask",26,"Target","NoGo","relaxed",1,NA,"post_correct_resp",97.4206349206349
156.632126099999,1.5,"AG05AS29","2022_Mar_17_1032","circle","relaxed_first","MainTask",26,"ITI","NoGo","relaxed",1,NA,"post_correct_resp",97.4206349206349
158.1465258,0.5,"AG05AS29","2022_Mar_17_1032","circle","relaxed_first","MainTask",27,"Fixation","NoGo","relaxed",1,NA,"post_correct_inh",97.4206349206349
158.6320545,0.1,"AG05AS29","2022_Mar_17_1032","circle","relaxed_first","MainTask",27,"Target","NoGo","relaxed",1,NA,"post_correct_inh",97.4206349206349
158.7319534,1.5,"AG05AS29","2022_Mar_17_1032","circle","relaxed_first","MainTask",27,"ITI","NoGo","relaxed",1,NA,"post_correct_inh",97.4206349206349
160.233506,0.5,"AG05AS29","2022_Mar_17_1032","circle","relaxed_first","MainTask",28,"Fixation","Go","relaxed",1,0.482754300000124,"post_correct_inh",97.4206349206349
160.732,0.1,"AG05AS29","2022_Mar_17_1032","circle","relaxed_first","MainTask",28,"Target","Go","relaxed",1,0.482754300000124,"post_correct_inh",97.4206349206349
160.8320211,1.38275430000012,"AG05AS29","2022_Mar_17_1032","circle","relaxed_first","MainTask",28,"ITI","Go","relaxed",1,0.482754300000124,"post_correct_inh",97.4206349206349
161.2147543,0,"AG05AS29","2022_Mar_17_1032","circle","relaxed_first","MainTask",28,"Response","Go","relaxed",1,0.482754300000124,"post_correct_inh",97.4206349206349
162.2494179,0.5,"AG05AS29","2022_Mar_17_1032","circle","relaxed_first","MainTask",29,"Fixation","NoGo","relaxed",1,NA,"post_correct_resp",97.4206349206349
162.7486027,0.1,"AG05AS29","2022_Mar_17_1032","circle","relaxed_first","MainTask",29,"Target","NoGo","relaxed",1,NA,"post_correct_resp",97.4206349206349
162.8486948,1.5,"AG05AS29","2022_Mar_17_1032","circle","relaxed_first","MainTask",29,"ITI","NoGo","relaxed",1,NA,"post_correct_resp",97.4206349206349
164.350186299999,0.5,"AG05AS29","2022_Mar_17_1032","circle","relaxed_first","MainTask",30,"Fixation","Go","relaxed",1,0.419947100000172,"post_correct_inh",97.4206349206349
164.848640599999,0.1,"AG05AS29","2022_Mar_17_1032","circle","relaxed_first","MainTask",30,"Target","Go","relaxed",1,0.419947100000172,"post_correct_inh",97.4206349206349
164.9485464,1.31994710000017,"AG05AS29","2022_Mar_17_1032","circle","relaxed_first","MainTask",30,"ITI","Go","relaxed",1,0.419947100000172,"post_correct_inh",97.4206349206349
165.268587699999,0,"AG05AS29","2022_Mar_17_1032","circle","relaxed_first","MainTask",30,"Response","Go","relaxed",1,0.419947100000172,"post_correct_inh",97.4206349206349
166.329647099999,0.5,"AG05AS29","2022_Mar_17_1032","circle","relaxed_first","MainTask",31,"Fixation","Go","relaxed",1,0.498284600000261,"post_correct_resp",97.4206349206349
166.8154415,0.1,"AG05AS29","2022_Mar_17_1032","circle","relaxed_first","MainTask",31,"Target","Go","relaxed",1,0.498284600000261,"post_correct_resp",97.4206349206349
166.915315099999,1.39828460000026,"AG05AS29","2022_Mar_17_1032","circle","relaxed_first","MainTask",31,"ITI","Go","relaxed",1,0.498284600000261,"post_correct_resp",97.4206349206349
167.3137261,0,"AG05AS29","2022_Mar_17_1032","circle","relaxed_first","MainTask",31,"Response","Go","relaxed",1,0.498284600000261,"post_correct_resp",97.4206349206349
168.362917799999,0.5,"AG05AS29","2022_Mar_17_1032","circle","relaxed_first","MainTask",32,"Fixation","NoGo","relaxed",1,NA,"post_correct_resp",97.4206349206349
168.8486954,0.1,"AG05AS29","2022_Mar_17_1032","circle","relaxed_first","MainTask",32,"Target","NoGo","relaxed",1,NA,"post_correct_resp",97.4206349206349
168.948672699999,1.5,"AG05AS29","2022_Mar_17_1032","circle","relaxed_first","MainTask",32,"ITI","NoGo","relaxed",1,NA,"post_correct_resp",97.4206349206349
170.4667062,0.5,"AG05AS29","2022_Mar_17_1032","circle","relaxed_first","MainTask",33,"Fixation","Go","relaxed",1,0.444203799999741,"post_correct_inh",97.4206349206349
170.9654763,0.1,"AG05AS29","2022_Mar_17_1032","circle","relaxed_first","MainTask",33,"Target","Go","relaxed",1,0.444203799999741,"post_correct_inh",97.4206349206349
171.0653606,1.34420379999974,"AG05AS29","2022_Mar_17_1032","circle","relaxed_first","MainTask",33,"ITI","Go","relaxed",1,0.444203799999741,"post_correct_inh",97.4206349206349
171.4096801,0,"AG05AS29","2022_Mar_17_1032","circle","relaxed_first","MainTask",33,"Response","Go","relaxed",1,0.444203799999741,"post_correct_inh",97.4206349206349
172.4628722,0.5,"AG05AS29","2022_Mar_17_1032","circle","relaxed_first","MainTask",34,"Fixation","Go","relaxed",1,0.471840100000009,"post_correct_resp",97.4206349206349
172.948721999999,0.1,"AG05AS29","2022_Mar_17_1032","circle","relaxed_first","MainTask",34,"Target","Go","relaxed",1,0.471840100000009,"post_correct_resp",97.4206349206349
173.0487108,1.37184010000001,"AG05AS29","2022_Mar_17_1032","circle","relaxed_first","MainTask",34,"ITI","Go","relaxed",1,0.471840100000009,"post_correct_resp",97.4206349206349
173.420562099999,0,"AG05AS29","2022_Mar_17_1032","circle","relaxed_first","MainTask",34,"Response","Go","relaxed",1,0.471840100000009,"post_correct_resp",97.4206349206349
174.4666443,0.5,"AG05AS29","2022_Mar_17_1032","circle","relaxed_first","MainTask",35,"Fixation","NoGo","relaxed",1,NA,"post_correct_resp",97.4206349206349
174.9653933,0.1,"AG05AS29","2022_Mar_17_1032","circle","relaxed_first","MainTask",35,"Target","NoGo","relaxed",1,NA,"post_correct_resp",97.4206349206349
175.0654193,1.5,"AG05AS29","2022_Mar_17_1032","circle","relaxed_first","MainTask",35,"ITI","NoGo","relaxed",1,NA,"post_correct_resp",97.4206349206349
176.5659945,0.5,"AG05AS29","2022_Mar_17_1032","circle","relaxed_first","MainTask",36,"Fixation","Go","relaxed",1,0.459225399999923,"post_correct_inh",97.4206349206349
177.0653333,0.1,"AG05AS29","2022_Mar_17_1032","circle","relaxed_first","MainTask",36,"Target","Go","relaxed",1,0.459225399999923,"post_correct_inh",97.4206349206349
177.165464299999,1.35922539999992,"AG05AS29","2022_Mar_17_1032","circle","relaxed_first","MainTask",36,"ITI","Go","relaxed",1,0.459225399999923,"post_correct_inh",97.4206349206349
177.5245587,0,"AG05AS29","2022_Mar_17_1032","circle","relaxed_first","MainTask",36,"Response","Go","relaxed",1,0.459225399999923,"post_correct_inh",97.4206349206349
178.566163099999,0.5,"AG05AS29","2022_Mar_17_1032","circle","relaxed_first","MainTask",37,"Fixation","NoGo","relaxed",1,NA,"post_correct_resp",97.4206349206349
179.0653465,0.1,"AG05AS29","2022_Mar_17_1032","circle","relaxed_first","MainTask",37,"Target","NoGo","relaxed",1,NA,"post_correct_resp",97.4206349206349
179.165324699999,1.5,"AG05AS29","2022_Mar_17_1032","circle","relaxed_first","MainTask",37,"ITI","NoGo","relaxed",1,NA,"post_correct_resp",97.4206349206349
180.665858099999,0.5,"AG05AS29","2022_Mar_17_1032","circle","relaxed_first","MainTask",38,"Fixation","Go","relaxed",1,0.366493800000171,"post_correct_inh",97.4206349206349
181.1642308,0.1,"AG05AS29","2022_Mar_17_1032","circle","relaxed_first","MainTask",38,"Target","Go","relaxed",1,0.366493800000171,"post_correct_inh",97.4206349206349
181.265376599999,1.26649380000017,"AG05AS29","2022_Mar_17_1032","circle","relaxed_first","MainTask",38,"ITI","Go","relaxed",1,0.366493800000171,"post_correct_inh",97.4206349206349
181.5307246,0,"AG05AS29","2022_Mar_17_1032","circle","relaxed_first","MainTask",38,"Response","Go","relaxed",1,0.366493800000171,"post_correct_inh",97.4206349206349
182.579760199999,0.5,"AG05AS29","2022_Mar_17_1032","circle","relaxed_first","MainTask",39,"Fixation","Go","relaxed",1,0.483394999999291,"post_correct_resp",97.4206349206349
183.065224299999,0.1,"AG05AS29","2022_Mar_17_1032","circle","relaxed_first","MainTask",39,"Target","Go","relaxed",1,0.483394999999291,"post_correct_resp",97.4206349206349
183.1652385,1.38339499999929,"AG05AS29","2022_Mar_17_1032","circle","relaxed_first","MainTask",39,"ITI","Go","relaxed",1,0.483394999999291,"post_correct_resp",97.4206349206349
183.548619299999,0,"AG05AS29","2022_Mar_17_1032","circle","relaxed_first","MainTask",39,"Response","Go","relaxed",1,0.483394999999291,"post_correct_resp",97.4206349206349
184.5965775,0.5,"AG05AS29","2022_Mar_17_1032","circle","relaxed_first","MainTask",40,"Fixation","Go","relaxed",1,0.451540000000023,"post_correct_resp",97.4206349206349
185.0820021,0.1,"AG05AS29","2022_Mar_17_1032","circle","relaxed_first","MainTask",40,"Target","Go","relaxed",1,0.451540000000023,"post_correct_resp",97.4206349206349
185.1820023,1.35154000000002,"AG05AS29","2022_Mar_17_1032","circle","relaxed_first","MainTask",40,"ITI","Go","relaxed",1,0.451540000000023,"post_correct_resp",97.4206349206349
185.5335421,0,"AG05AS29","2022_Mar_17_1032","circle","relaxed_first","MainTask",40,"Response","Go","relaxed",1,0.451540000000023,"post_correct_resp",97.4206349206349
186.57969,0.5,"AG05AS29","2022_Mar_17_1032","circle","relaxed_first","MainTask",41,"Fixation","Go","relaxed",1,0.529297000000042,"post_correct_resp",97.4206349206349
187.0652984,0.1,"AG05AS29","2022_Mar_17_1032","circle","relaxed_first","MainTask",41,"Target","Go","relaxed",1,0.529297000000042,"post_correct_resp",97.4206349206349
187.165165599999,1.42929700000004,"AG05AS29","2022_Mar_17_1032","circle","relaxed_first","MainTask",41,"ITI","Go","relaxed",1,0.529297000000042,"post_correct_resp",97.4206349206349
187.5945954,0,"AG05AS29","2022_Mar_17_1032","circle","relaxed_first","MainTask",41,"Response","Go","relaxed",1,0.529297000000042,"post_correct_resp",97.4206349206349
188.6327007,0.5,"AG05AS29","2022_Mar_17_1032","circle","relaxed_first","MainTask",42,"Fixation","NoGo","relaxed",1,NA,"post_correct_resp",97.4206349206349
189.131618699999,0.1,"AG05AS29","2022_Mar_17_1032","circle","relaxed_first","MainTask",42,"Target","NoGo","relaxed",1,NA,"post_correct_resp",97.4206349206349
189.232043999999,1.5,"AG05AS29","2022_Mar_17_1032","circle","relaxed_first","MainTask",42,"ITI","NoGo","relaxed",1,NA,"post_correct_resp",97.4206349206349
190.7502638,0.5,"AG05AS29","2022_Mar_17_1032","circle","relaxed_first","MainTask",43,"Fixation","Go","relaxed",1,0.447441399999661,"post_correct_inh",97.4206349206349
191.2487458,0.1,"AG05AS29","2022_Mar_17_1032","circle","relaxed_first","MainTask",43,"Target","Go","relaxed",1,0.447441399999661,"post_correct_inh",97.4206349206349
191.348737099999,1.34744139999966,"AG05AS29","2022_Mar_17_1032","circle","relaxed_first","MainTask",43,"ITI","Go","relaxed",1,0.447441399999661,"post_correct_inh",97.4206349206349
191.696187199999,0,"AG05AS29","2022_Mar_17_1032","circle","relaxed_first","MainTask",43,"Response","Go","relaxed",1,0.447441399999661,"post_correct_inh",97.4206349206349
192.7326899,0.5,"AG05AS29","2022_Mar_17_1032","circle","relaxed_first","MainTask",44,"Fixation","NoGo","relaxed",1,NA,"post_correct_resp",97.4206349206349
193.2320327,0.1,"AG05AS29","2022_Mar_17_1032","circle","relaxed_first","MainTask",44,"Target","NoGo","relaxed",1,NA,"post_correct_resp",97.4206349206349
193.331936199999,1.5,"AG05AS29","2022_Mar_17_1032","circle","relaxed_first","MainTask",44,"ITI","NoGo","relaxed",1,NA,"post_correct_resp",97.4206349206349
194.863105699999,0.5,"AG05AS29","2022_Mar_17_1032","circle","relaxed_first","MainTask",45,"Fixation","NoGo","relaxed",1,NA,"post_correct_inh",97.4206349206349
195.348668,0.1,"AG05AS29","2022_Mar_17_1032","circle","relaxed_first","MainTask",45,"Target","NoGo","relaxed",1,NA,"post_correct_inh",97.4206349206349
195.4486959,1.5,"AG05AS29","2022_Mar_17_1032","circle","relaxed_first","MainTask",45,"ITI","NoGo","relaxed",1,NA,"post_correct_inh",97.4206349206349
196.9493278,0.5,"AG05AS29","2022_Mar_17_1032","circle","relaxed_first","MainTask",46,"Fixation","Go","relaxed",1,0.419084500000281,"post_correct_inh",97.4206349206349
197.4484039,0.1,"AG05AS29","2022_Mar_17_1032","circle","relaxed_first","MainTask",46,"Target","Go","relaxed",1,0.419084500000281,"post_correct_inh",97.4206349206349
197.5486856,1.31908450000028,"AG05AS29","2022_Mar_17_1032","circle","relaxed_first","MainTask",46,"ITI","Go","relaxed",1,0.419084500000281,"post_correct_inh",97.4206349206349
197.8674884,0,"AG05AS29","2022_Mar_17_1032","circle","relaxed_first","MainTask",46,"Response","Go","relaxed",1,0.419084500000281,"post_correct_inh",97.4206349206349
198.9297588,0.5,"AG05AS29","2022_Mar_17_1032","circle","relaxed_first","MainTask",47,"Fixation","Go","relaxed",1,0.478213399999731,"post_correct_resp",97.4206349206349
199.415354299999,0.1,"AG05AS29","2022_Mar_17_1032","circle","relaxed_first","MainTask",47,"Target","Go","relaxed",1,0.478213399999731,"post_correct_resp",97.4206349206349
199.5152792,1.37821339999973,"AG05AS29","2022_Mar_17_1032","circle","relaxed_first","MainTask",47,"ITI","Go","relaxed",1,0.478213399999731,"post_correct_resp",97.4206349206349
199.893567699999,0,"AG05AS29","2022_Mar_17_1032","circle","relaxed_first","MainTask",47,"Response","Go","relaxed",1,0.478213399999731,"post_correct_resp",97.4206349206349
200.9462675,0.5,"AG05AS29","2022_Mar_17_1032","circle","relaxed_first","MainTask",48,"Fixation","Go","relaxed",1,0.419642200000453,"post_correct_resp",97.4206349206349
201.4319737,0.1,"AG05AS29","2022_Mar_17_1032","circle","relaxed_first","MainTask",48,"Target","Go","relaxed",1,0.419642200000453,"post_correct_resp",97.4206349206349
201.5319653,1.31964220000045,"AG05AS29","2022_Mar_17_1032","circle","relaxed_first","MainTask",48,"ITI","Go","relaxed",1,0.419642200000453,"post_correct_resp",97.4206349206349
201.8516159,0,"AG05AS29","2022_Mar_17_1032","circle","relaxed_first","MainTask",48,"Response","Go","relaxed",1,0.419642200000453,"post_correct_resp",97.4206349206349
202.9131124,0.5,"AG05AS29","2022_Mar_17_1032","circle","relaxed_first","MainTask",49,"Fixation","Go","relaxed",1,0.432888399999683,"post_correct_resp",97.4206349206349
203.3986378,0.1,"AG05AS29","2022_Mar_17_1032","circle","relaxed_first","MainTask",49,"Target","Go","relaxed",1,0.432888399999683,"post_correct_resp",97.4206349206349
203.498645799999,1.33288839999968,"AG05AS29","2022_Mar_17_1032","circle","relaxed_first","MainTask",49,"ITI","Go","relaxed",1,0.432888399999683,"post_correct_resp",97.4206349206349
203.8315262,0,"AG05AS29","2022_Mar_17_1032","circle","relaxed_first","MainTask",49,"Response","Go","relaxed",1,0.432888399999683,"post_correct_resp",97.4206349206349
204.8660265,0.5,"AG05AS29","2022_Mar_17_1032","circle","relaxed_first","MainTask",50,"Fixation","NoGo","relaxed",1,NA,"post_correct_resp",97.4206349206349
205.365215999999,0.1,"AG05AS29","2022_Mar_17_1032","circle","relaxed_first","MainTask",50,"Target","NoGo","relaxed",1,NA,"post_correct_resp",97.4206349206349
205.4652201,1.5,"AG05AS29","2022_Mar_17_1032","circle","relaxed_first","MainTask",50,"ITI","NoGo","relaxed",1,NA,"post_correct_resp",97.4206349206349
206.982509099999,0.5,"AG05AS29","2022_Mar_17_1032","circle","relaxed_first","MainTask",51,"Fixation","Go","relaxed",0,NA,"post_correct_inh",97.4206349206349
207.481981899999,0.1,"AG05AS29","2022_Mar_17_1032","circle","relaxed_first","MainTask",51,"Target","Go","relaxed",0,NA,"post_correct_inh",97.4206349206349
207.581851899999,1.5,"AG05AS29","2022_Mar_17_1032","circle","relaxed_first","MainTask",51,"ITI","Go","relaxed",0,NA,"post_correct_inh",97.4206349206349
209.098714799999,0.5,"AG05AS29","2022_Mar_17_1032","circle","relaxed_first","MainTask",52,"Fixation","NoGo","relaxed",1,NA,"post_error_inh",97.4206349206349
209.5986593,0.1,"AG05AS29","2022_Mar_17_1032","circle","relaxed_first","MainTask",52,"Target","NoGo","relaxed",1,NA,"post_error_inh",97.4206349206349
209.6986056,1.5,"AG05AS29","2022_Mar_17_1032","circle","relaxed_first","MainTask",52,"ITI","NoGo","relaxed",1,NA,"post_error_inh",97.4206349206349
211.2297013,0.5,"AG05AS29","2022_Mar_17_1032","circle","relaxed_first","MainTask",53,"Fixation","NoGo","relaxed",1,NA,"post_correct_inh",97.4206349206349
211.715316,0.1,"AG05AS29","2022_Mar_17_1032","circle","relaxed_first","MainTask",53,"Target","NoGo","relaxed",1,NA,"post_correct_inh",97.4206349206349
211.815344299999,1.5,"AG05AS29","2022_Mar_17_1032","circle","relaxed_first","MainTask",53,"ITI","NoGo","relaxed",1,NA,"post_correct_inh",97.4206349206349
213.3334602,0.5,"AG05AS29","2022_Mar_17_1032","circle","relaxed_first","MainTask",54,"Fixation","Go","relaxed",1,0.450651500000276,"post_correct_inh",97.4206349206349
213.831873599999,0.1,"AG05AS29","2022_Mar_17_1032","circle","relaxed_first","MainTask",54,"Target","Go","relaxed",1,0.450651500000276,"post_correct_inh",97.4206349206349
213.931881799999,1.35065150000028,"AG05AS29","2022_Mar_17_1032","circle","relaxed_first","MainTask",54,"ITI","Go","relaxed",1,0.450651500000276,"post_correct_inh",97.4206349206349
214.282525099999,0,"AG05AS29","2022_Mar_17_1032","circle","relaxed_first","MainTask",54,"Response","Go","relaxed",1,0.450651500000276,"post_correct_inh",97.4206349206349
215.316082099999,0.5,"AG05AS29","2022_Mar_17_1032","circle","relaxed_first","MainTask",55,"Fixation","Go","relaxed",1,0.388144900000043,"post_correct_resp",97.4206349206349
215.8153464,0.1,"AG05AS29","2022_Mar_17_1032","circle","relaxed_first","MainTask",55,"Target","Go","relaxed",1,0.388144900000043,"post_correct_resp",97.4206349206349
215.9152403,1.28814490000004,"AG05AS29","2022_Mar_17_1032","circle","relaxed_first","MainTask",55,"ITI","Go","relaxed",1,0.388144900000043,"post_correct_resp",97.4206349206349
216.2034913,0,"AG05AS29","2022_Mar_17_1032","circle","relaxed_first","MainTask",55,"Response","Go","relaxed",1,0.388144900000043,"post_correct_resp",97.4206349206349
217.263166299999,0.5,"AG05AS29","2022_Mar_17_1032","circle","relaxed_first","MainTask",56,"Fixation","Go","relaxed",1,0.416967500000283,"post_correct_resp",97.4206349206349
217.748704299999,0.1,"AG05AS29","2022_Mar_17_1032","circle","relaxed_first","MainTask",56,"Target","Go","relaxed",1,0.416967500000283,"post_correct_resp",97.4206349206349
217.848757399999,1.31696750000028,"AG05AS29","2022_Mar_17_1032","circle","relaxed_first","MainTask",56,"ITI","Go","relaxed",1,0.416967500000283,"post_correct_resp",97.4206349206349
218.165671799999,0,"AG05AS29","2022_Mar_17_1032","circle","relaxed_first","MainTask",56,"Response","Go","relaxed",1,0.416967500000283,"post_correct_resp",97.4206349206349
219.213038999999,0.5,"AG05AS29","2022_Mar_17_1032","circle","relaxed_first","MainTask",57,"Fixation","Go","relaxed",1,0.37898800000039,"post_correct_resp",97.4206349206349
219.6985058,0.1,"AG05AS29","2022_Mar_17_1032","circle","relaxed_first","MainTask",57,"Target","Go","relaxed",1,0.37898800000039,"post_correct_resp",97.4206349206349
219.798440099999,1.27898800000039,"AG05AS29","2022_Mar_17_1032","circle","relaxed_first","MainTask",57,"ITI","Go","relaxed",1,0.37898800000039,"post_correct_resp",97.4206349206349
220.0774938,0,"AG05AS29","2022_Mar_17_1032","circle","relaxed_first","MainTask",57,"Response","Go","relaxed",1,0.37898800000039,"post_correct_resp",97.4206349206349
221.1160647,0.5,"AG05AS29","2022_Mar_17_1032","circle","relaxed_first","MainTask",58,"Fixation","Go","relaxed",1,0.382168200000706,"post_correct_resp",97.4206349206349
221.615287899999,0.1,"AG05AS29","2022_Mar_17_1032","circle","relaxed_first","MainTask",58,"Target","Go","relaxed",1,0.382168200000706,"post_correct_resp",97.4206349206349
221.715330499999,1.28216820000071,"AG05AS29","2022_Mar_17_1032","circle","relaxed_first","MainTask",58,"ITI","Go","relaxed",1,0.382168200000706,"post_correct_resp",97.4206349206349
221.9974561,0,"AG05AS29","2022_Mar_17_1032","circle","relaxed_first","MainTask",58,"Response","Go","relaxed",1,0.382168200000706,"post_correct_resp",97.4206349206349
223.033412299999,0.5,"AG05AS29","2022_Mar_17_1032","circle","relaxed_first","MainTask",59,"Fixation","NoGo","relaxed",1,NA,"post_correct_resp",97.4206349206349
223.5317439,0.1,"AG05AS29","2022_Mar_17_1032","circle","relaxed_first","MainTask",59,"Target","NoGo","relaxed",1,NA,"post_correct_resp",97.4206349206349
223.631828799999,1.5,"AG05AS29","2022_Mar_17_1032","circle","relaxed_first","MainTask",59,"ITI","NoGo","relaxed",1,NA,"post_correct_resp",97.4206349206349
225.133449299999,0.5,"AG05AS29","2022_Mar_17_1032","circle","relaxed_first","MainTask",60,"Fixation","Go","relaxed",1,0.511601599999267,"post_correct_inh",97.4206349206349
225.6319649,0.1,"AG05AS29","2022_Mar_17_1032","circle","relaxed_first","MainTask",60,"Target","Go","relaxed",1,0.511601599999267,"post_correct_inh",97.4206349206349
225.7319202,1.41160159999927,"AG05AS29","2022_Mar_17_1032","circle","relaxed_first","MainTask",60,"ITI","Go","relaxed",1,0.511601599999267,"post_correct_inh",97.4206349206349
226.143566499999,0,"AG05AS29","2022_Mar_17_1032","circle","relaxed_first","MainTask",60,"Response","Go","relaxed",1,0.511601599999267,"post_correct_inh",97.4206349206349
227.196247299999,0.5,"AG05AS29","2022_Mar_17_1032","circle","relaxed_first","MainTask",61,"Fixation","Go","relaxed",1,0.379535500000202,"post_correct_resp",97.4206349206349
227.6819663,0.1,"AG05AS29","2022_Mar_17_1032","circle","relaxed_first","MainTask",61,"Target","Go","relaxed",1,0.379535500000202,"post_correct_resp",97.4206349206349
227.781961299999,1.2795355000002,"AG05AS29","2022_Mar_17_1032","circle","relaxed_first","MainTask",61,"ITI","Go","relaxed",1,0.379535500000202,"post_correct_resp",97.4206349206349
228.0615018,0,"AG05AS29","2022_Mar_17_1032","circle","relaxed_first","MainTask",61,"Response","Go","relaxed",1,0.379535500000202,"post_correct_resp",97.4206349206349
229.0992232,0.5,"AG05AS29","2022_Mar_17_1032","circle","relaxed_first","MainTask",62,"Fixation","NoGo","relaxed",1,NA,"post_correct_resp",97.4206349206349
229.598646199999,0.1,"AG05AS29","2022_Mar_17_1032","circle","relaxed_first","MainTask",62,"Target","NoGo","relaxed",1,NA,"post_correct_resp",97.4206349206349
229.698648099999,1.5,"AG05AS29","2022_Mar_17_1032","circle","relaxed_first","MainTask",62,"ITI","NoGo","relaxed",1,NA,"post_correct_resp",97.4206349206349
231.229748799999,0.5,"AG05AS29","2022_Mar_17_1032","circle","relaxed_first","MainTask",63,"Fixation","NoGo","relaxed",1,NA,"post_correct_inh",97.4206349206349
231.715338,0.1,"AG05AS29","2022_Mar_17_1032","circle","relaxed_first","MainTask",63,"Target","NoGo","relaxed",1,NA,"post_correct_inh",97.4206349206349
231.8152701,1.5,"AG05AS29","2022_Mar_17_1032","circle","relaxed_first","MainTask",63,"ITI","NoGo","relaxed",1,NA,"post_correct_inh",97.4206349206349
233.3168557,0.5,"AG05AS29","2022_Mar_17_1032","circle","relaxed_first","MainTask",64,"Fixation","Go","relaxed",0,NA,"post_correct_inh",97.4206349206349
233.8151553,0.1,"AG05AS29","2022_Mar_17_1032","circle","relaxed_first","MainTask",64,"Target","Go","relaxed",0,NA,"post_correct_inh",97.4206349206349
233.915346799999,1.5,"AG05AS29","2022_Mar_17_1032","circle","relaxed_first","MainTask",64,"ITI","Go","relaxed",0,NA,"post_correct_inh",97.4206349206349
235.432314799999,0.5,"AG05AS29","2022_Mar_17_1032","circle","relaxed_first","MainTask",65,"Fixation","NoGo","relaxed",1,NA,"post_error_inh",97.4206349206349
235.931747899999,0.1,"AG05AS29","2022_Mar_17_1032","circle","relaxed_first","MainTask",65,"Target","NoGo","relaxed",1,NA,"post_error_inh",97.4206349206349
236.0318607,1.5,"AG05AS29","2022_Mar_17_1032","circle","relaxed_first","MainTask",65,"ITI","NoGo","relaxed",1,NA,"post_error_inh",97.4206349206349
237.5329586,0.5,"AG05AS29","2022_Mar_17_1032","circle","relaxed_first","MainTask",66,"Fixation","Go","relaxed",1,0.573462700000164,"post_correct_inh",97.4206349206349
238.0319358,0.1,"AG05AS29","2022_Mar_17_1032","circle","relaxed_first","MainTask",66,"Target","Go","relaxed",1,0.573462700000164,"post_correct_inh",97.4206349206349
238.1319489,1.47346270000016,"AG05AS29","2022_Mar_17_1032","circle","relaxed_first","MainTask",66,"ITI","Go","relaxed",1,0.573462700000164,"post_correct_inh",97.4206349206349
238.6053985,0,"AG05AS29","2022_Mar_17_1032","circle","relaxed_first","MainTask",66,"Response","Go","relaxed",1,0.573462700000164,"post_correct_inh",97.4206349206349
239.6493917,0.5,"AG05AS29","2022_Mar_17_1032","circle","relaxed_first","MainTask",67,"Fixation","Go","relaxed",1,0.502990599999976,"post_correct_resp",97.4206349206349
240.148645499999,0.1,"AG05AS29","2022_Mar_17_1032","circle","relaxed_first","MainTask",67,"Target","Go","relaxed",1,0.502990599999976,"post_correct_resp",97.4206349206349
240.248599799999,1.40299059999998,"AG05AS29","2022_Mar_17_1032","circle","relaxed_first","MainTask",67,"ITI","Go","relaxed",1,0.502990599999976,"post_correct_resp",97.4206349206349
240.651636099999,0,"AG05AS29","2022_Mar_17_1032","circle","relaxed_first","MainTask",67,"Response","Go","relaxed",1,0.502990599999976,"post_correct_resp",97.4206349206349
241.6992793,0.5,"AG05AS29","2022_Mar_17_1032","circle","relaxed_first","MainTask",68,"Fixation","NoGo","relaxed",1,NA,"post_correct_resp",97.4206349206349
242.19863,0.1,"AG05AS29","2022_Mar_17_1032","circle","relaxed_first","MainTask",68,"Target","NoGo","relaxed",1,NA,"post_correct_resp",97.4206349206349
242.298553799999,1.5,"AG05AS29","2022_Mar_17_1032","circle","relaxed_first","MainTask",68,"ITI","NoGo","relaxed",1,NA,"post_correct_resp",97.4206349206349
243.812936099999,0.5,"AG05AS29","2022_Mar_17_1032","circle","relaxed_first","MainTask",69,"Fixation","NoGo","relaxed",1,NA,"post_correct_inh",97.4206349206349
244.2986056,0.1,"AG05AS29","2022_Mar_17_1032","circle","relaxed_first","MainTask",69,"Target","NoGo","relaxed",1,NA,"post_correct_inh",97.4206349206349
244.3985607,1.5,"AG05AS29","2022_Mar_17_1032","circle","relaxed_first","MainTask",69,"ITI","NoGo","relaxed",1,NA,"post_correct_inh",97.4206349206349
245.9147846,0.5,"AG05AS29","2022_Mar_17_1032","circle","relaxed_first","MainTask",70,"Fixation","NoGo","relaxed",1,NA,"post_correct_inh",97.4206349206349
246.3986067,0.1,"AG05AS29","2022_Mar_17_1032","circle","relaxed_first","MainTask",70,"Target","NoGo","relaxed",1,NA,"post_correct_inh",97.4206349206349
246.498589299999,1.5,"AG05AS29","2022_Mar_17_1032","circle","relaxed_first","MainTask",70,"ITI","NoGo","relaxed",1,NA,"post_correct_inh",97.4206349206349
247.999238799999,0.5,"AG05AS29","2022_Mar_17_1032","circle","relaxed_first","MainTask",71,"Fixation","Go","relaxed",1,0.412911000000349,"post_correct_inh",97.4206349206349
248.4985846,0.1,"AG05AS29","2022_Mar_17_1032","circle","relaxed_first","MainTask",71,"Target","Go","relaxed",1,0.412911000000349,"post_correct_inh",97.4206349206349
248.5982507,1.31291100000035,"AG05AS29","2022_Mar_17_1032","circle","relaxed_first","MainTask",71,"ITI","Go","relaxed",1,0.412911000000349,"post_correct_inh",97.4206349206349
248.9114956,0,"AG05AS29","2022_Mar_17_1032","circle","relaxed_first","MainTask",71,"Response","Go","relaxed",1,0.412911000000349,"post_correct_inh",97.4206349206349
249.948988599999,0.5,"AG05AS29","2022_Mar_17_1032","circle","relaxed_first","MainTask",72,"Fixation","NoGo","relaxed",1,NA,"post_correct_resp",97.4206349206349
250.448546899999,0.1,"AG05AS29","2022_Mar_17_1032","circle","relaxed_first","MainTask",72,"Target","NoGo","relaxed",1,NA,"post_correct_resp",97.4206349206349
250.5485923,1.5,"AG05AS29","2022_Mar_17_1032","circle","relaxed_first","MainTask",72,"ITI","NoGo","relaxed",1,NA,"post_correct_resp",97.4206349206349
252.0630241,0.5,"AG05AS29","2022_Mar_17_1032","circle","relaxed_first","MainTask",73,"Fixation","NoGo","relaxed",1,NA,"post_correct_inh",97.4206349206349
252.54865,0.1,"AG05AS29","2022_Mar_17_1032","circle","relaxed_first","MainTask",73,"Target","NoGo","relaxed",1,NA,"post_correct_inh",97.4206349206349
252.6482233,1.5,"AG05AS29","2022_Mar_17_1032","circle","relaxed_first","MainTask",73,"ITI","NoGo","relaxed",1,NA,"post_correct_inh",97.4206349206349
254.1491908,0.5,"AG05AS29","2022_Mar_17_1032","circle","relaxed_first","MainTask",74,"Fixation","Go","relaxed",1,0.414850899999692,"post_correct_inh",97.4206349206349
254.6486587,0.1,"AG05AS29","2022_Mar_17_1032","circle","relaxed_first","MainTask",74,"Target","Go","relaxed",1,0.414850899999692,"post_correct_inh",97.4206349206349
254.7485829,1.31485089999969,"AG05AS29","2022_Mar_17_1032","circle","relaxed_first","MainTask",74,"ITI","Go","relaxed",1,0.414850899999692,"post_correct_inh",97.4206349206349
255.0635096,0,"AG05AS29","2022_Mar_17_1032","circle","relaxed_first","MainTask",74,"Response","Go","relaxed",1,0.414850899999692,"post_correct_inh",97.4206349206349
256.112948,0.5,"AG05AS29","2022_Mar_17_1032","circle","relaxed_first","MainTask",75,"Fixation","Go","relaxed",1,0.473136599999634,"post_correct_resp",97.4206349206349
256.5984714,0.1,"AG05AS29","2022_Mar_17_1032","circle","relaxed_first","MainTask",75,"Target","Go","relaxed",1,0.473136599999634,"post_correct_resp",97.4206349206349
256.6985146,1.37313659999963,"AG05AS29","2022_Mar_17_1032","circle","relaxed_first","MainTask",75,"ITI","Go","relaxed",1,0.473136599999634,"post_correct_resp",97.4206349206349
257.071607999999,0,"AG05AS29","2022_Mar_17_1032","circle","relaxed_first","MainTask",75,"Response","Go","relaxed",1,0.473136599999634,"post_correct_resp",97.4206349206349
258.1295979,0.5,"AG05AS29","2022_Mar_17_1032","circle","relaxed_first","MainTask",76,"Fixation","Go","relaxed",1,0.383428400000412,"post_correct_resp",97.4206349206349
258.6153006,0.1,"AG05AS29","2022_Mar_17_1032","circle","relaxed_first","MainTask",76,"Target","Go","relaxed",1,0.383428400000412,"post_correct_resp",97.4206349206349
258.715275699999,1.28342840000041,"AG05AS29","2022_Mar_17_1032","circle","relaxed_first","MainTask",76,"ITI","Go","relaxed",1,0.383428400000412,"post_correct_resp",97.4206349206349
258.998729,0,"AG05AS29","2022_Mar_17_1032","circle","relaxed_first","MainTask",76,"Response","Go","relaxed",1,0.383428400000412,"post_correct_resp",97.4206349206349
260.0325745,0.5,"AG05AS29","2022_Mar_17_1032","circle","relaxed_first","MainTask",77,"Fixation","Go","relaxed",1,0.480495700000574,"post_correct_resp",97.4206349206349
260.531942199999,0.1,"AG05AS29","2022_Mar_17_1032","circle","relaxed_first","MainTask",77,"Target","Go","relaxed",1,0.480495700000574,"post_correct_resp",97.4206349206349
260.6319869,1.38049570000057,"AG05AS29","2022_Mar_17_1032","circle","relaxed_first","MainTask",77,"ITI","Go","relaxed",1,0.480495700000574,"post_correct_resp",97.4206349206349
261.0124379,0,"AG05AS29","2022_Mar_17_1032","circle","relaxed_first","MainTask",77,"Response","Go","relaxed",1,0.480495700000574,"post_correct_resp",97.4206349206349
262.062825399999,0.5,"AG05AS29","2022_Mar_17_1032","circle","relaxed_first","MainTask",78,"Fixation","Go","relaxed",1,0.351308199999949,"post_correct_resp",97.4206349206349
262.548125599999,0.1,"AG05AS29","2022_Mar_17_1032","circle","relaxed_first","MainTask",78,"Target","Go","relaxed",1,0.351308199999949,"post_correct_resp",97.4206349206349
262.648530799999,1.25130819999995,"AG05AS29","2022_Mar_17_1032","circle","relaxed_first","MainTask",78,"ITI","Go","relaxed",1,0.351308199999949,"post_correct_resp",97.4206349206349
262.899433799999,0,"AG05AS29","2022_Mar_17_1032","circle","relaxed_first","MainTask",78,"Response","Go","relaxed",1,0.351308199999949,"post_correct_resp",97.4206349206349
263.9325813,0.5,"AG05AS29","2022_Mar_17_1032","circle","relaxed_first","MainTask",79,"Fixation","Go","relaxed",1,0.410552700000153,"post_correct_resp",97.4206349206349
264.4319196,0.1,"AG05AS29","2022_Mar_17_1032","circle","relaxed_first","MainTask",79,"Target","Go","relaxed",1,0.410552700000153,"post_correct_resp",97.4206349206349
264.531927499999,1.31055270000015,"AG05AS29","2022_Mar_17_1032","circle","relaxed_first","MainTask",79,"ITI","Go","relaxed",1,0.410552700000153,"post_correct_resp",97.4206349206349
264.8424723,0,"AG05AS29","2022_Mar_17_1032","circle","relaxed_first","MainTask",79,"Response","Go","relaxed",1,0.410552700000153,"post_correct_resp",97.4206349206349
265.882478699999,0.5,"AG05AS29","2022_Mar_17_1032","circle","relaxed_first","MainTask",80,"Fixation","NoGo","relaxed",1,NA,"post_correct_resp",97.4206349206349
266.381860699999,0.1,"AG05AS29","2022_Mar_17_1032","circle","relaxed_first","MainTask",80,"Target","NoGo","relaxed",1,NA,"post_correct_resp",97.4206349206349
266.481827099999,1.5,"AG05AS29","2022_Mar_17_1032","circle","relaxed_first","MainTask",80,"ITI","NoGo","relaxed",1,NA,"post_correct_resp",97.4206349206349
267.996201399999,0.5,"AG05AS29","2022_Mar_17_1032","circle","relaxed_first","MainTask",81,"Fixation","NoGo","relaxed",1,NA,"post_correct_inh",97.4206349206349
268.481829699999,0.1,"AG05AS29","2022_Mar_17_1032","circle","relaxed_first","MainTask",81,"Target","NoGo","relaxed",1,NA,"post_correct_inh",97.4206349206349
268.58198,1.5,"AG05AS29","2022_Mar_17_1032","circle","relaxed_first","MainTask",81,"ITI","NoGo","relaxed",1,NA,"post_correct_inh",97.4206349206349
270.082586199999,0.5,"AG05AS29","2022_Mar_17_1032","circle","relaxed_first","MainTask",82,"Fixation","Go","relaxed",1,0.483921099999861,"post_correct_inh",97.4206349206349
270.5817665,0.1,"AG05AS29","2022_Mar_17_1032","circle","relaxed_first","MainTask",82,"Target","Go","relaxed",1,0.483921099999861,"post_correct_inh",97.4206349206349
270.681969099999,1.38392109999986,"AG05AS29","2022_Mar_17_1032","circle","relaxed_first","MainTask",82,"ITI","Go","relaxed",1,0.483921099999861,"post_correct_inh",97.4206349206349
271.065687599999,0,"AG05AS29","2022_Mar_17_1032","circle","relaxed_first","MainTask",82,"Response","Go","relaxed",1,0.483921099999861,"post_correct_inh",97.4206349206349
272.098645399999,0.5,"AG05AS29","2022_Mar_17_1032","circle","relaxed_first","MainTask",83,"Fixation","Go","relaxed",1,0.42720719999943,"post_correct_resp",97.4206349206349
272.5982226,0.1,"AG05AS29","2022_Mar_17_1032","circle","relaxed_first","MainTask",83,"Target","Go","relaxed",1,0.42720719999943,"post_correct_resp",97.4206349206349
272.6987205,1.32720719999943,"AG05AS29","2022_Mar_17_1032","circle","relaxed_first","MainTask",83,"ITI","Go","relaxed",1,0.42720719999943,"post_correct_resp",97.4206349206349
273.025429799999,0,"AG05AS29","2022_Mar_17_1032","circle","relaxed_first","MainTask",83,"Response","Go","relaxed",1,0.42720719999943,"post_correct_resp",97.4206349206349
274.0794545,0.5,"AG05AS29","2022_Mar_17_1032","circle","relaxed_first","MainTask",84,"Fixation","Go","relaxed",1,0.46625049999966,"post_correct_resp",97.4206349206349
274.5651123,0.1,"AG05AS29","2022_Mar_17_1032","circle","relaxed_first","MainTask",84,"Target","Go","relaxed",1,0.46625049999966,"post_correct_resp",97.4206349206349
274.665195,1.36625049999966,"AG05AS29","2022_Mar_17_1032","circle","relaxed_first","MainTask",84,"ITI","Go","relaxed",1,0.46625049999966,"post_correct_resp",97.4206349206349
275.031362799999,0,"AG05AS29","2022_Mar_17_1032","circle","relaxed_first","MainTask",84,"Response","Go","relaxed",1,0.46625049999966,"post_correct_resp",97.4206349206349
276.079524999999,0.5,"AG05AS29","2022_Mar_17_1032","circle","relaxed_first","MainTask",85,"Fixation","Go","relaxed",1,0.427440399999796,"post_correct_resp",97.4206349206349
276.5650559,0.1,"AG05AS29","2022_Mar_17_1032","circle","relaxed_first","MainTask",85,"Target","Go","relaxed",1,0.427440399999796,"post_correct_resp",97.4206349206349
276.6651255,1.3274403999998,"AG05AS29","2022_Mar_17_1032","circle","relaxed_first","MainTask",85,"ITI","Go","relaxed",1,0.427440399999796,"post_correct_resp",97.4206349206349
276.992496299999,0,"AG05AS29","2022_Mar_17_1032","circle","relaxed_first","MainTask",85,"Response","Go","relaxed",1,0.427440399999796,"post_correct_resp",97.4206349206349
278.032405499999,0.5,"AG05AS29","2022_Mar_17_1032","circle","relaxed_first","MainTask",86,"Fixation","NoGo","relaxed",1,NA,"post_correct_resp",97.4206349206349
278.5319172,0.1,"AG05AS29","2022_Mar_17_1032","circle","relaxed_first","MainTask",86,"Target","NoGo","relaxed",1,NA,"post_correct_resp",97.4206349206349
278.6320117,1.5,"AG05AS29","2022_Mar_17_1032","circle","relaxed_first","MainTask",86,"ITI","NoGo","relaxed",1,NA,"post_correct_resp",97.4206349206349
280.133376899999,0.5,"AG05AS29","2022_Mar_17_1032","circle","relaxed_first","MainTask",87,"Fixation","Go","relaxed",1,0.448665300000357,"post_correct_inh",97.4206349206349
280.631787599999,0.1,"AG05AS29","2022_Mar_17_1032","circle","relaxed_first","MainTask",87,"Target","Go","relaxed",1,0.448665300000357,"post_correct_inh",97.4206349206349
280.731750899999,1.34866530000036,"AG05AS29","2022_Mar_17_1032","circle","relaxed_first","MainTask",87,"ITI","Go","relaxed",1,0.448665300000357,"post_correct_inh",97.4206349206349
281.0804529,0,"AG05AS29","2022_Mar_17_1032","circle","relaxed_first","MainTask",87,"Response","Go","relaxed",1,0.448665300000357,"post_correct_inh",97.4206349206349
282.129334599999,0.5,"AG05AS29","2022_Mar_17_1032","circle","relaxed_first","MainTask",88,"Fixation","Go","relaxed",1,0.462545500000488,"post_correct_resp",97.4206349206349
282.614852799999,0.1,"AG05AS29","2022_Mar_17_1032","circle","relaxed_first","MainTask",88,"Target","Go","relaxed",1,0.462545500000488,"post_correct_resp",97.4206349206349
282.715179,1.36254550000049,"AG05AS29","2022_Mar_17_1032","circle","relaxed_first","MainTask",88,"ITI","Go","relaxed",1,0.462545500000488,"post_correct_resp",97.4206349206349
283.0773983,0,"AG05AS29","2022_Mar_17_1032","circle","relaxed_first","MainTask",88,"Response","Go","relaxed",1,0.462545500000488,"post_correct_resp",97.4206349206349
284.1295701,0.5,"AG05AS29","2022_Mar_17_1032","circle","relaxed_first","MainTask",89,"Fixation","Go","relaxed",1,0.467270099999951,"post_correct_resp",97.4206349206349
284.6151782,0.1,"AG05AS29","2022_Mar_17_1032","circle","relaxed_first","MainTask",89,"Target","Go","relaxed",1,0.467270099999951,"post_correct_resp",97.4206349206349
284.715194199999,1.36727009999995,"AG05AS29","2022_Mar_17_1032","circle","relaxed_first","MainTask",89,"ITI","Go","relaxed",1,0.467270099999951,"post_correct_resp",97.4206349206349
285.0824483,0,"AG05AS29","2022_Mar_17_1032","circle","relaxed_first","MainTask",89,"Response","Go","relaxed",1,0.467270099999951,"post_correct_resp",97.4206349206349
286.1158761,0.5,"AG05AS29","2022_Mar_17_1032","circle","relaxed_first","MainTask",90,"Fixation","Go","relaxed",1,0.454164699999637,"post_correct_resp",97.4206349206349
286.615244699999,0.1,"AG05AS29","2022_Mar_17_1032","circle","relaxed_first","MainTask",90,"Target","Go","relaxed",1,0.454164699999637,"post_correct_resp",97.4206349206349
286.715229599999,1.35416469999964,"AG05AS29","2022_Mar_17_1032","circle","relaxed_first","MainTask",90,"ITI","Go","relaxed",1,0.454164699999637,"post_correct_resp",97.4206349206349
287.069409399999,0,"AG05AS29","2022_Mar_17_1032","circle","relaxed_first","MainTask",90,"Response","Go","relaxed",1,0.454164699999637,"post_correct_resp",97.4206349206349
288.1294805,0.5,"AG05AS29","2022_Mar_17_1032","circle","relaxed_first","MainTask",91,"Fixation","Go","relaxed",1,0.418178600000829,"post_correct_resp",97.4206349206349
288.6152118,0.1,"AG05AS29","2022_Mar_17_1032","circle","relaxed_first","MainTask",91,"Target","Go","relaxed",1,0.418178600000829,"post_correct_resp",97.4206349206349
288.715137499999,1.31817860000083,"AG05AS29","2022_Mar_17_1032","circle","relaxed_first","MainTask",91,"ITI","Go","relaxed",1,0.418178600000829,"post_correct_resp",97.4206349206349
289.033390400001,0,"AG05AS29","2022_Mar_17_1032","circle","relaxed_first","MainTask",91,"Response","Go","relaxed",1,0.418178600000829,"post_correct_resp",97.4206349206349
290.0795726,0.5,"AG05AS29","2022_Mar_17_1032","circle","relaxed_first","MainTask",92,"Fixation","Go","relaxed",1,0.414276299999983,"post_correct_resp",97.4206349206349
290.5651836,0.1,"AG05AS29","2022_Mar_17_1032","circle","relaxed_first","MainTask",92,"Target","Go","relaxed",1,0.414276299999983,"post_correct_resp",97.4206349206349
290.6651714,1.31427629999998,"AG05AS29","2022_Mar_17_1032","circle","relaxed_first","MainTask",92,"ITI","Go","relaxed",1,0.414276299999983,"post_correct_resp",97.4206349206349
290.9794599,0,"AG05AS29","2022_Mar_17_1032","circle","relaxed_first","MainTask",92,"Response","Go","relaxed",1,0.414276299999983,"post_correct_resp",97.4206349206349
292.015782699999,0.5,"AG05AS29","2022_Mar_17_1032","circle","relaxed_first","MainTask",93,"Fixation","NoGo","relaxed",1,NA,"post_correct_resp",97.4206349206349
292.515149399999,0.1,"AG05AS29","2022_Mar_17_1032","circle","relaxed_first","MainTask",93,"Target","NoGo","relaxed",1,NA,"post_correct_resp",97.4206349206349
292.615046399999,1.5,"AG05AS29","2022_Mar_17_1032","circle","relaxed_first","MainTask",93,"ITI","NoGo","relaxed",1,NA,"post_correct_resp",97.4206349206349
294.1325601,0.5,"AG05AS29","2022_Mar_17_1032","circle","relaxed_first","MainTask",94,"Fixation","Go","relaxed",1,0.431533900000431,"post_correct_inh",97.4206349206349
294.631834399999,0.1,"AG05AS29","2022_Mar_17_1032","circle","relaxed_first","MainTask",94,"Target","Go","relaxed",1,0.431533900000431,"post_correct_inh",97.4206349206349
294.7318816,1.33153390000043,"AG05AS29","2022_Mar_17_1032","circle","relaxed_first","MainTask",94,"ITI","Go","relaxed",1,0.431533900000431,"post_correct_inh",97.4206349206349
295.0633683,0,"AG05AS29","2022_Mar_17_1032","circle","relaxed_first","MainTask",94,"Response","Go","relaxed",1,0.431533900000431,"post_correct_inh",97.4206349206349
296.112706999999,0.5,"AG05AS29","2022_Mar_17_1032","circle","relaxed_first","MainTask",95,"Fixation","Go","relaxed",1,0.370846400000119,"post_correct_resp",97.4206349206349
296.5985045,0.1,"AG05AS29","2022_Mar_17_1032","circle","relaxed_first","MainTask",95,"Target","Go","relaxed",1,0.370846400000119,"post_correct_resp",97.4206349206349
296.698413499999,1.27084640000012,"AG05AS29","2022_Mar_17_1032","circle","relaxed_first","MainTask",95,"ITI","Go","relaxed",1,0.370846400000119,"post_correct_resp",97.4206349206349
296.9693509,0,"AG05AS29","2022_Mar_17_1032","circle","relaxed_first","MainTask",95,"Response","Go","relaxed",1,0.370846400000119,"post_correct_resp",97.4206349206349
298.015749599999,0.5,"AG05AS29","2022_Mar_17_1032","circle","relaxed_first","MainTask",96,"Fixation","Go","relaxed",1,0.457243500000004,"post_correct_resp",97.4206349206349
298.5150912,0.1,"AG05AS29","2022_Mar_17_1032","circle","relaxed_first","MainTask",96,"Target","Go","relaxed",1,0.457243500000004,"post_correct_resp",97.4206349206349
298.615018699999,1.3572435,"AG05AS29","2022_Mar_17_1032","circle","relaxed_first","MainTask",96,"ITI","Go","relaxed",1,0.457243500000004,"post_correct_resp",97.4206349206349
298.9723347,0,"AG05AS29","2022_Mar_17_1032","circle","relaxed_first","MainTask",96,"Response","Go","relaxed",1,0.457243500000004,"post_correct_resp",97.4206349206349
300.0296792,0.5,"AG05AS29","2022_Mar_17_1032","circle","relaxed_first","MainTask",97,"Fixation","Go","relaxed",1,0.425262699999621,"post_correct_resp",97.4206349206349
300.5150789,0.1,"AG05AS29","2022_Mar_17_1032","circle","relaxed_first","MainTask",97,"Target","Go","relaxed",1,0.425262699999621,"post_correct_resp",97.4206349206349
300.6151089,1.32526269999962,"AG05AS29","2022_Mar_17_1032","circle","relaxed_first","MainTask",97,"ITI","Go","relaxed",1,0.425262699999621,"post_correct_resp",97.4206349206349
300.9403416,0,"AG05AS29","2022_Mar_17_1032","circle","relaxed_first","MainTask",97,"Response","Go","relaxed",1,0.425262699999621,"post_correct_resp",97.4206349206349
301.9825359,0.5,"AG05AS29","2022_Mar_17_1032","circle","relaxed_first","MainTask",98,"Fixation","Go","relaxed",1,0.382415000000037,"post_correct_resp",97.4206349206349
302.4819054,0.1,"AG05AS29","2022_Mar_17_1032","circle","relaxed_first","MainTask",98,"Target","Go","relaxed",1,0.382415000000037,"post_correct_resp",97.4206349206349
302.581738399999,1.28241500000004,"AG05AS29","2022_Mar_17_1032","circle","relaxed_first","MainTask",98,"ITI","Go","relaxed",1,0.382415000000037,"post_correct_resp",97.4206349206349
302.8643204,0,"AG05AS29","2022_Mar_17_1032","circle","relaxed_first","MainTask",98,"Response","Go","relaxed",1,0.382415000000037,"post_correct_resp",97.4206349206349
303.9127816,0.5,"AG05AS29","2022_Mar_17_1032","circle","relaxed_first","MainTask",99,"Fixation","Go","relaxed",1,0.422821099999965,"post_correct_resp",97.4206349206349
304.3985063,0.1,"AG05AS29","2022_Mar_17_1032","circle","relaxed_first","MainTask",99,"Target","Go","relaxed",1,0.422821099999965,"post_correct_resp",97.4206349206349
304.4985344,1.32282109999996,"AG05AS29","2022_Mar_17_1032","circle","relaxed_first","MainTask",99,"ITI","Go","relaxed",1,0.422821099999965,"post_correct_resp",97.4206349206349
304.8213274,0,"AG05AS29","2022_Mar_17_1032","circle","relaxed_first","MainTask",99,"Response","Go","relaxed",1,0.422821099999965,"post_correct_resp",97.4206349206349
305.879228,0.5,"AG05AS29","2022_Mar_17_1032","circle","relaxed_first","MainTask",100,"Fixation","Go","relaxed",1,0.434116899999935,"post_correct_resp",97.4206349206349
306.365231399999,0.1,"AG05AS29","2022_Mar_17_1032","circle","relaxed_first","MainTask",100,"Target","Go","relaxed",1,0.434116899999935,"post_correct_resp",97.4206349206349
306.4650679,1.33411689999994,"AG05AS29","2022_Mar_17_1032","circle","relaxed_first","MainTask",100,"ITI","Go","relaxed",1,0.434116899999935,"post_correct_resp",97.4206349206349
306.799348299999,0,"AG05AS29","2022_Mar_17_1032","circle","relaxed_first","MainTask",100,"Response","Go","relaxed",1,0.434116899999935,"post_correct_resp",97.4206349206349
307.846044899999,0.5,"AG05AS29","2022_Mar_17_1032","circle","relaxed_first","MainTask",101,"Fixation","NoGo","relaxed",1,NA,"post_correct_resp",97.4206349206349
308.331940999999,0.1,"AG05AS29","2022_Mar_17_1032","circle","relaxed_first","MainTask",101,"Target","NoGo","relaxed",1,NA,"post_correct_resp",97.4206349206349
308.431838699999,1.5,"AG05AS29","2022_Mar_17_1032","circle","relaxed_first","MainTask",101,"ITI","NoGo","relaxed",1,NA,"post_correct_resp",97.4206349206349
309.9461604,0.5,"AG05AS29","2022_Mar_17_1032","circle","relaxed_first","MainTask",102,"Fixation","NoGo","relaxed",1,NA,"post_correct_inh",97.4206349206349
310.4319657,0.1,"AG05AS29","2022_Mar_17_1032","circle","relaxed_first","MainTask",102,"Target","NoGo","relaxed",1,NA,"post_correct_inh",97.4206349206349
310.5318916,1.5,"AG05AS29","2022_Mar_17_1032","circle","relaxed_first","MainTask",102,"ITI","NoGo","relaxed",1,NA,"post_correct_inh",97.4206349206349
312.032759,0.5,"AG05AS29","2022_Mar_17_1032","circle","relaxed_first","MainTask",103,"Fixation","Go","relaxed",1,0.43942750000042,"post_correct_inh",97.4206349206349
312.5319185,0.1,"AG05AS29","2022_Mar_17_1032","circle","relaxed_first","MainTask",103,"Target","Go","relaxed",1,0.43942750000042,"post_correct_inh",97.4206349206349
312.631876799999,1.33942750000042,"AG05AS29","2022_Mar_17_1032","circle","relaxed_first","MainTask",103,"ITI","Go","relaxed",1,0.43942750000042,"post_correct_inh",97.4206349206349
312.971346,0,"AG05AS29","2022_Mar_17_1032","circle","relaxed_first","MainTask",103,"Response","Go","relaxed",1,0.43942750000042,"post_correct_inh",97.4206349206349
314.015831199999,0.5,"AG05AS29","2022_Mar_17_1032","circle","relaxed_first","MainTask",104,"Fixation","NoGo","relaxed",1,NA,"post_correct_resp",97.4206349206349
314.515100299999,0.1,"AG05AS29","2022_Mar_17_1032","circle","relaxed_first","MainTask",104,"Target","NoGo","relaxed",1,NA,"post_correct_resp",97.4206349206349
314.6151221,1.5,"AG05AS29","2022_Mar_17_1032","circle","relaxed_first","MainTask",104,"ITI","NoGo","relaxed",1,NA,"post_correct_resp",97.4206349206349
316.129454999999,0.5,"AG05AS29","2022_Mar_17_1032","circle","relaxed_first","MainTask",105,"Fixation","NoGo","relaxed",1,NA,"post_correct_inh",97.4206349206349
316.615075199999,0.1,"AG05AS29","2022_Mar_17_1032","circle","relaxed_first","MainTask",105,"Target","NoGo","relaxed",1,NA,"post_correct_inh",97.4206349206349
316.7151921,1.5,"AG05AS29","2022_Mar_17_1032","circle","relaxed_first","MainTask",105,"ITI","NoGo","relaxed",1,NA,"post_correct_inh",97.4206349206349
318.2157625,0.5,"AG05AS29","2022_Mar_17_1032","circle","relaxed_first","MainTask",106,"Fixation","Go","relaxed",1,0.442144800000278,"post_correct_inh",97.4206349206349
318.7151869,0.1,"AG05AS29","2022_Mar_17_1032","circle","relaxed_first","MainTask",106,"Target","Go","relaxed",1,0.442144800000278,"post_correct_inh",97.4206349206349
318.815153,1.34214480000028,"AG05AS29","2022_Mar_17_1032","circle","relaxed_first","MainTask",106,"ITI","Go","relaxed",1,0.442144800000278,"post_correct_inh",97.4206349206349
319.1573317,0,"AG05AS29","2022_Mar_17_1032","circle","relaxed_first","MainTask",106,"Response","Go","relaxed",1,0.442144800000278,"post_correct_inh",97.4206349206349
320.212851099999,0.5,"AG05AS29","2022_Mar_17_1032","circle","relaxed_first","MainTask",107,"Fixation","Go","relaxed",1,0.456810900000164,"post_correct_resp",97.4206349206349
320.698492099999,0.1,"AG05AS29","2022_Mar_17_1032","circle","relaxed_first","MainTask",107,"Target","Go","relaxed",1,0.456810900000164,"post_correct_resp",97.4206349206349
320.7984619,1.35681090000016,"AG05AS29","2022_Mar_17_1032","circle","relaxed_first","MainTask",107,"ITI","Go","relaxed",1,0.456810900000164,"post_correct_resp",97.4206349206349
321.155303,0,"AG05AS29","2022_Mar_17_1032","circle","relaxed_first","MainTask",107,"Response","Go","relaxed",1,0.456810900000164,"post_correct_resp",97.4206349206349
322.199390899999,0.5,"AG05AS29","2022_Mar_17_1032","circle","relaxed_first","MainTask",108,"Fixation","Go","relaxed",1,0.3858481999996,"post_correct_resp",97.4206349206349
322.6984912,0.1,"AG05AS29","2022_Mar_17_1032","circle","relaxed_first","MainTask",108,"Target","Go","relaxed",1,0.3858481999996,"post_correct_resp",97.4206349206349
322.798485099999,1.2858481999996,"AG05AS29","2022_Mar_17_1032","circle","relaxed_first","MainTask",108,"ITI","Go","relaxed",1,0.3858481999996,"post_correct_resp",97.4206349206349
323.084339399999,0,"AG05AS29","2022_Mar_17_1032","circle","relaxed_first","MainTask",108,"Response","Go","relaxed",1,0.3858481999996,"post_correct_resp",97.4206349206349
324.1318045,0.5,"AG05AS29","2022_Mar_17_1032","circle","relaxed_first","MainTask",109,"Fixation","NoGo","relaxed",1,NA,"post_correct_resp",97.4206349206349
324.631799899999,0.1,"AG05AS29","2022_Mar_17_1032","circle","relaxed_first","MainTask",109,"Target","NoGo","relaxed",1,NA,"post_correct_resp",97.4206349206349
324.7317015,1.5,"AG05AS29","2022_Mar_17_1032","circle","relaxed_first","MainTask",109,"ITI","NoGo","relaxed",1,NA,"post_correct_resp",97.4206349206349
326.246072,0.5,"AG05AS29","2022_Mar_17_1032","circle","relaxed_first","MainTask",110,"Fixation","NoGo","relaxed",1,NA,"post_correct_inh",97.4206349206349
326.7317728,0.1,"AG05AS29","2022_Mar_17_1032","circle","relaxed_first","MainTask",110,"Target","NoGo","relaxed",1,NA,"post_correct_inh",97.4206349206349
326.831848299999,1.5,"AG05AS29","2022_Mar_17_1032","circle","relaxed_first","MainTask",110,"ITI","NoGo","relaxed",1,NA,"post_correct_inh",97.4206349206349
328.3627836,0.5,"AG05AS29","2022_Mar_17_1032","circle","relaxed_first","MainTask",111,"Fixation","NoGo","relaxed",1,NA,"post_correct_inh",97.4206349206349
328.8484736,0.1,"AG05AS29","2022_Mar_17_1032","circle","relaxed_first","MainTask",111,"Target","NoGo","relaxed",1,NA,"post_correct_inh",97.4206349206349
328.948413599999,1.5,"AG05AS29","2022_Mar_17_1032","circle","relaxed_first","MainTask",111,"ITI","NoGo","relaxed",1,NA,"post_correct_inh",97.4206349206349
330.4666153,0.5,"AG05AS29","2022_Mar_17_1032","circle","relaxed_first","MainTask",112,"Fixation","Go","relaxed",1,0.432251700000052,"post_correct_inh",97.4206349206349
330.965116699999,0.1,"AG05AS29","2022_Mar_17_1032","circle","relaxed_first","MainTask",112,"Target","Go","relaxed",1,0.432251700000052,"post_correct_inh",97.4206349206349
331.065177199999,1.33225170000005,"AG05AS29","2022_Mar_17_1032","circle","relaxed_first","MainTask",112,"ITI","Go","relaxed",1,0.432251700000052,"post_correct_inh",97.4206349206349
331.397368399999,0,"AG05AS29","2022_Mar_17_1032","circle","relaxed_first","MainTask",112,"Response","Go","relaxed",1,0.432251700000052,"post_correct_inh",97.4206349206349
332.446322899999,0.5,"AG05AS29","2022_Mar_17_1032","circle","relaxed_first","MainTask",113,"Fixation","Go","relaxed",1,0.413840399999572,"post_correct_resp",97.4206349206349
332.931931599999,0.1,"AG05AS29","2022_Mar_17_1032","circle","relaxed_first","MainTask",113,"Target","Go","relaxed",1,0.413840399999572,"post_correct_resp",97.4206349206349
333.0318573,1.31384039999957,"AG05AS29","2022_Mar_17_1032","circle","relaxed_first","MainTask",113,"ITI","Go","relaxed",1,0.413840399999572,"post_correct_resp",97.4206349206349
333.345771999999,0,"AG05AS29","2022_Mar_17_1032","circle","relaxed_first","MainTask",113,"Response","Go","relaxed",1,0.413840399999572,"post_correct_resp",97.4206349206349
334.3960388,0.5,"AG05AS29","2022_Mar_17_1032","circle","relaxed_first","MainTask",114,"Fixation","Go","relaxed",1,0.42554520000067,"post_correct_resp",97.4206349206349
334.8817696,0.1,"AG05AS29","2022_Mar_17_1032","circle","relaxed_first","MainTask",114,"Target","Go","relaxed",1,0.42554520000067,"post_correct_resp",97.4206349206349
334.981629399999,1.32554520000067,"AG05AS29","2022_Mar_17_1032","circle","relaxed_first","MainTask",114,"ITI","Go","relaxed",1,0.42554520000067,"post_correct_resp",97.4206349206349
335.3073148,0,"AG05AS29","2022_Mar_17_1032","circle","relaxed_first","MainTask",114,"Response","Go","relaxed",1,0.42554520000067,"post_correct_resp",97.4206349206349
336.349045,0.5,"AG05AS29","2022_Mar_17_1032","circle","relaxed_first","MainTask",115,"Fixation","Go","relaxed",1,0.413059799999246,"post_correct_resp",97.4206349206349
336.848351299999,0.1,"AG05AS29","2022_Mar_17_1032","circle","relaxed_first","MainTask",115,"Target","Go","relaxed",1,0.413059799999246,"post_correct_resp",97.4206349206349
336.9484403,1.31305979999925,"AG05AS29","2022_Mar_17_1032","circle","relaxed_first","MainTask",115,"ITI","Go","relaxed",1,0.413059799999246,"post_correct_resp",97.4206349206349
337.261411099998,0,"AG05AS29","2022_Mar_17_1032","circle","relaxed_first","MainTask",115,"Response","Go","relaxed",1,0.413059799999246,"post_correct_resp",97.4206349206349
338.312827399999,0.5,"AG05AS29","2022_Mar_17_1032","circle","relaxed_first","MainTask",116,"Fixation","Go","relaxed",1,0.395737799999551,"post_correct_resp",97.4206349206349
338.7985724,0.1,"AG05AS29","2022_Mar_17_1032","circle","relaxed_first","MainTask",116,"Target","Go","relaxed",1,0.395737799999551,"post_correct_resp",97.4206349206349
338.898335,1.29573779999955,"AG05AS29","2022_Mar_17_1032","circle","relaxed_first","MainTask",116,"ITI","Go","relaxed",1,0.395737799999551,"post_correct_resp",97.4206349206349
339.1943102,0,"AG05AS29","2022_Mar_17_1032","circle","relaxed_first","MainTask",116,"Response","Go","relaxed",1,0.395737799999551,"post_correct_resp",97.4206349206349
340.233270299999,0.5,"AG05AS29","2022_Mar_17_1032","circle","relaxed_first","MainTask",117,"Fixation","NoGo","relaxed",1,NA,"post_correct_resp",97.4206349206349
340.7317727,0.1,"AG05AS29","2022_Mar_17_1032","circle","relaxed_first","MainTask",117,"Target","NoGo","relaxed",1,NA,"post_correct_resp",97.4206349206349
340.831743199999,1.5,"AG05AS29","2022_Mar_17_1032","circle","relaxed_first","MainTask",117,"ITI","NoGo","relaxed",1,NA,"post_correct_resp",97.4206349206349
342.362718699999,0.5,"AG05AS29","2022_Mar_17_1032","circle","relaxed_first","MainTask",118,"Fixation","Go","relaxed",1,0.38984100000016,"post_correct_inh",97.4206349206349
342.8484432,0.1,"AG05AS29","2022_Mar_17_1032","circle","relaxed_first","MainTask",118,"Target","Go","relaxed",1,0.38984100000016,"post_correct_inh",97.4206349206349
342.948463299999,1.28984100000016,"AG05AS29","2022_Mar_17_1032","circle","relaxed_first","MainTask",118,"ITI","Go","relaxed",1,0.38984100000016,"post_correct_inh",97.4206349206349
343.2382842,0,"AG05AS29","2022_Mar_17_1032","circle","relaxed_first","MainTask",118,"Response","Go","relaxed",1,0.38984100000016,"post_correct_inh",97.4206349206349
344.2961847,0.5,"AG05AS29","2022_Mar_17_1032","circle","relaxed_first","MainTask",119,"Fixation","Go","relaxed",1,0.399523900000531,"post_correct_resp",97.4206349206349
344.7817539,0.1,"AG05AS29","2022_Mar_17_1032","circle","relaxed_first","MainTask",119,"Target","Go","relaxed",1,0.399523900000531,"post_correct_resp",97.4206349206349
344.8816436,1.29952390000053,"AG05AS29","2022_Mar_17_1032","circle","relaxed_first","MainTask",119,"ITI","Go","relaxed",1,0.399523900000531,"post_correct_resp",97.4206349206349
345.1812778,0,"AG05AS29","2022_Mar_17_1032","circle","relaxed_first","MainTask",119,"Response","Go","relaxed",1,0.399523900000531,"post_correct_resp",97.4206349206349
346.229525299999,0.5,"AG05AS29","2022_Mar_17_1032","circle","relaxed_first","MainTask",120,"Fixation","Go","relaxed",1,0.40520369999922,"post_correct_resp",97.4206349206349
346.715109299999,0.1,"AG05AS29","2022_Mar_17_1032","circle","relaxed_first","MainTask",120,"Target","Go","relaxed",1,0.40520369999922,"post_correct_resp",97.4206349206349
346.815116299999,1.30520369999922,"AG05AS29","2022_Mar_17_1032","circle","relaxed_first","MainTask",120,"ITI","Go","relaxed",1,0.40520369999922,"post_correct_resp",97.4206349206349
347.120312999999,0,"AG05AS29","2022_Mar_17_1032","circle","relaxed_first","MainTask",120,"Response","Go","relaxed",1,0.40520369999922,"post_correct_resp",97.4206349206349
348.179321299999,0.5,"AG05AS29","2022_Mar_17_1032","circle","relaxed_first","MainTask",121,"Fixation","Go","relaxed",1,0.527690199999597,"post_correct_resp",97.4206349206349
348.664725,0.1,"AG05AS29","2022_Mar_17_1032","circle","relaxed_first","MainTask",121,"Target","Go","relaxed",1,0.527690199999597,"post_correct_resp",97.4206349206349
348.7651668,1.4276901999996,"AG05AS29","2022_Mar_17_1032","circle","relaxed_first","MainTask",121,"ITI","Go","relaxed",1,0.527690199999597,"post_correct_resp",97.4206349206349
349.192415199999,0,"AG05AS29","2022_Mar_17_1032","circle","relaxed_first","MainTask",121,"Response","Go","relaxed",1,0.527690199999597,"post_correct_resp",97.4206349206349
350.231764599999,0.5,"AG05AS29","2022_Mar_17_1032","circle","relaxed_first","MainTask",122,"Fixation","NoGo","relaxed",1,NA,"post_correct_resp",97.4206349206349
350.731746599999,0.1,"AG05AS29","2022_Mar_17_1032","circle","relaxed_first","MainTask",122,"Target","NoGo","relaxed",1,NA,"post_correct_resp",97.4206349206349
350.8317185,1.5,"AG05AS29","2022_Mar_17_1032","circle","relaxed_first","MainTask",122,"ITI","NoGo","relaxed",1,NA,"post_correct_resp",97.4206349206349
352.349432,0.5,"AG05AS29","2022_Mar_17_1032","circle","relaxed_first","MainTask",123,"Fixation","NoGo","relaxed",1,NA,"post_correct_inh",97.4206349206349
352.848623999999,0.1,"AG05AS29","2022_Mar_17_1032","circle","relaxed_first","MainTask",123,"Target","NoGo","relaxed",1,NA,"post_correct_inh",97.4206349206349
352.9484605,1.5,"AG05AS29","2022_Mar_17_1032","circle","relaxed_first","MainTask",123,"ITI","NoGo","relaxed",1,NA,"post_correct_inh",97.4206349206349
354.462619299999,0.5,"AG05AS29","2022_Mar_17_1032","circle","relaxed_first","MainTask",124,"Fixation","Go","relaxed",1,0.366890799999965,"post_correct_inh",97.4206349206349
354.948413499999,0.1,"AG05AS29","2022_Mar_17_1032","circle","relaxed_first","MainTask",124,"Target","Go","relaxed",1,0.366890799999965,"post_correct_inh",97.4206349206349
355.0484589,1.26689079999996,"AG05AS29","2022_Mar_17_1032","circle","relaxed_first","MainTask",124,"ITI","Go","relaxed",1,0.366890799999965,"post_correct_inh",97.4206349206349
355.315304299999,0,"AG05AS29","2022_Mar_17_1032","circle","relaxed_first","MainTask",124,"Response","Go","relaxed",1,0.366890799999965,"post_correct_inh",97.4206349206349
356.3628479,0.5,"AG05AS29","2022_Mar_17_1032","circle","relaxed_first","MainTask",125,"Fixation","Go","relaxed",1,0.395734300000186,"post_correct_resp",97.4206349206349
356.8485462,0.1,"AG05AS29","2022_Mar_17_1032","circle","relaxed_first","MainTask",125,"Target","Go","relaxed",1,0.395734300000186,"post_correct_resp",97.4206349206349
356.9484524,1.29573430000019,"AG05AS29","2022_Mar_17_1032","circle","relaxed_first","MainTask",125,"ITI","Go","relaxed",1,0.395734300000186,"post_correct_resp",97.4206349206349
357.2442805,0,"AG05AS29","2022_Mar_17_1032","circle","relaxed_first","MainTask",125,"Response","Go","relaxed",1,0.395734300000186,"post_correct_resp",97.4206349206349
358.3021205,50.5228802000001,"AG05AS29","2022_Mar_17_1032","circle","relaxed_first","MainTask",125,"Break",NA,NA,NA,NA,NA,97.4206349206349
410.8379116,0.5,"AG05AS29","2022_Mar_17_1032","circle","relaxed_first","MainTask",126,"Fixation","NoGo","relaxed",1,NA,"post_break",97.4206349206349
411.3149521,0.1,"AG05AS29","2022_Mar_17_1032","circle","relaxed_first","MainTask",126,"Target","NoGo","relaxed",1,NA,"post_break",97.4206349206349
411.4150979,1.5,"AG05AS29","2022_Mar_17_1032","circle","relaxed_first","MainTask",126,"ITI","NoGo","relaxed",1,NA,"post_break",97.4206349206349
412.915290499999,0.5,"AG05AS29","2022_Mar_17_1032","circle","relaxed_first","MainTask",127,"Fixation","Go","relaxed",1,0.405284999999822,"post_correct_inh",97.4206349206349
413.4150689,0.1,"AG05AS29","2022_Mar_17_1032","circle","relaxed_first","MainTask",127,"Target","Go","relaxed",1,0.405284999999822,"post_correct_inh",97.4206349206349
413.514975499999,1.30528499999982,"AG05AS29","2022_Mar_17_1032","circle","relaxed_first","MainTask",127,"ITI","Go","relaxed",1,0.405284999999822,"post_correct_inh",97.4206349206349
413.8203539,0,"AG05AS29","2022_Mar_17_1032","circle","relaxed_first","MainTask",127,"Response","Go","relaxed",1,0.405284999999822,"post_correct_inh",97.4206349206349
414.879199499999,0.5,"AG05AS29","2022_Mar_17_1032","circle","relaxed_first","MainTask",128,"Fixation","Go","relaxed",1,0.407210000000305,"post_correct_resp",97.4206349206349
415.3650152,0.1,"AG05AS29","2022_Mar_17_1032","circle","relaxed_first","MainTask",128,"Target","Go","relaxed",1,0.407210000000305,"post_correct_resp",97.4206349206349
415.464915099999,1.3072100000003,"AG05AS29","2022_Mar_17_1032","circle","relaxed_first","MainTask",128,"ITI","Go","relaxed",1,0.407210000000305,"post_correct_resp",97.4206349206349
415.7722252,0,"AG05AS29","2022_Mar_17_1032","circle","relaxed_first","MainTask",128,"Response","Go","relaxed",1,0.407210000000305,"post_correct_resp",97.4206349206349
416.8166225,0.5,"AG05AS29","2022_Mar_17_1032","circle","relaxed_first","MainTask",129,"Fixation","NoGo","relaxed",1,NA,"post_correct_resp",97.4206349206349
417.3148574,0.1,"AG05AS29","2022_Mar_17_1032","circle","relaxed_first","MainTask",129,"Target","NoGo","relaxed",1,NA,"post_correct_resp",97.4206349206349
417.4149343,1.5,"AG05AS29","2022_Mar_17_1032","circle","relaxed_first","MainTask",129,"ITI","NoGo","relaxed",1,NA,"post_correct_resp",97.4206349206349
418.9156083,0.5,"AG05AS29","2022_Mar_17_1032","circle","relaxed_first","MainTask",130,"Fixation","Go","relaxed",1,0.403166900000542,"post_correct_inh",97.4206349206349
419.415063099999,0.1,"AG05AS29","2022_Mar_17_1032","circle","relaxed_first","MainTask",130,"Target","Go","relaxed",1,0.403166900000542,"post_correct_inh",97.4206349206349
419.5148967,1.30316690000054,"AG05AS29","2022_Mar_17_1032","circle","relaxed_first","MainTask",130,"ITI","Go","relaxed",1,0.403166900000542,"post_correct_inh",97.4206349206349
419.81823,0,"AG05AS29","2022_Mar_17_1032","circle","relaxed_first","MainTask",130,"Response","Go","relaxed",1,0.403166900000542,"post_correct_inh",97.4206349206349
420.8665535,0.5,"AG05AS29","2022_Mar_17_1032","circle","relaxed_first","MainTask",131,"Fixation","NoGo","relaxed",1,NA,"post_correct_resp",97.4206349206349
421.3650429,0.1,"AG05AS29","2022_Mar_17_1032","circle","relaxed_first","MainTask",131,"Target","NoGo","relaxed",1,NA,"post_correct_resp",97.4206349206349
421.4648843,1.5,"AG05AS29","2022_Mar_17_1032","circle","relaxed_first","MainTask",131,"ITI","NoGo","relaxed",1,NA,"post_correct_resp",97.4206349206349
422.9824647,0.5,"AG05AS29","2022_Mar_17_1032","circle","relaxed_first","MainTask",132,"Fixation","Go","relaxed",1,0.364667399999234,"post_correct_inh",97.4206349206349
423.4816719,0.1,"AG05AS29","2022_Mar_17_1032","circle","relaxed_first","MainTask",132,"Target","Go","relaxed",1,0.364667399999234,"post_correct_inh",97.4206349206349
423.5817055,1.26466739999923,"AG05AS29","2022_Mar_17_1032","circle","relaxed_first","MainTask",132,"ITI","Go","relaxed",1,0.364667399999234,"post_correct_inh",97.4206349206349
423.846339299999,0,"AG05AS29","2022_Mar_17_1032","circle","relaxed_first","MainTask",132,"Response","Go","relaxed",1,0.364667399999234,"post_correct_inh",97.4206349206349
424.8823548,0.5,"AG05AS29","2022_Mar_17_1032","circle","relaxed_first","MainTask",133,"Fixation","Go","relaxed",1,0.340611399999943,"post_correct_resp",97.4206349206349
425.381637799999,0.1,"AG05AS29","2022_Mar_17_1032","circle","relaxed_first","MainTask",133,"Target","Go","relaxed",1,0.340611399999943,"post_correct_resp",97.4206349206349
425.481592599999,1.24061139999994,"AG05AS29","2022_Mar_17_1032","circle","relaxed_first","MainTask",133,"ITI","Go","relaxed",1,0.340611399999943,"post_correct_resp",97.4206349206349
425.722249199999,0,"AG05AS29","2022_Mar_17_1032","circle","relaxed_first","MainTask",133,"Response","Go","relaxed",1,0.340611399999943,"post_correct_resp",97.4206349206349
426.779213299999,0.5,"AG05AS29","2022_Mar_17_1032","circle","relaxed_first","MainTask",134,"Fixation","Go","relaxed",1,0.444265600000108,"post_correct_resp",97.4206349206349
427.264983599999,0.1,"AG05AS29","2022_Mar_17_1032","circle","relaxed_first","MainTask",134,"Target","Go","relaxed",1,0.444265600000108,"post_correct_resp",97.4206349206349
427.3649792,1.34426560000011,"AG05AS29","2022_Mar_17_1032","circle","relaxed_first","MainTask",134,"ITI","Go","relaxed",1,0.444265600000108,"post_correct_resp",97.4206349206349
427.709249199999,0,"AG05AS29","2022_Mar_17_1032","circle","relaxed_first","MainTask",134,"Response","Go","relaxed",1,0.444265600000108,"post_correct_resp",97.4206349206349
428.7490203,0.5,"AG05AS29","2022_Mar_17_1032","circle","relaxed_first","MainTask",135,"Fixation","NoGo","relaxed",1,NA,"post_correct_resp",97.4206349206349
429.2483364,0.1,"AG05AS29","2022_Mar_17_1032","circle","relaxed_first","MainTask",135,"Target","NoGo","relaxed",1,NA,"post_correct_resp",97.4206349206349
429.3482293,1.5,"AG05AS29","2022_Mar_17_1032","circle","relaxed_first","MainTask",135,"ITI","NoGo","relaxed",1,NA,"post_correct_resp",97.4206349206349
430.8793919,0.5,"AG05AS29","2022_Mar_17_1032","circle","relaxed_first","MainTask",136,"Fixation","NoGo","relaxed",1,NA,"post_correct_inh",97.4206349206349
431.364998,0.1,"AG05AS29","2022_Mar_17_1032","circle","relaxed_first","MainTask",136,"Target","NoGo","relaxed",1,NA,"post_correct_inh",97.4206349206349
431.4649984,1.5,"AG05AS29","2022_Mar_17_1032","circle","relaxed_first","MainTask",136,"ITI","NoGo","relaxed",1,NA,"post_correct_inh",97.4206349206349
432.9656203,0.5,"AG05AS29","2022_Mar_17_1032","circle","relaxed_first","MainTask",137,"Fixation","Go","relaxed",1,0.382265100000041,"post_correct_inh",97.4206349206349
433.464881899999,0.1,"AG05AS29","2022_Mar_17_1032","circle","relaxed_first","MainTask",137,"Target","Go","relaxed",1,0.382265100000041,"post_correct_inh",97.4206349206349
433.564906199999,1.28226510000004,"AG05AS29","2022_Mar_17_1032","circle","relaxed_first","MainTask",137,"ITI","Go","relaxed",1,0.382265100000041,"post_correct_inh",97.4206349206349
433.847146999999,0,"AG05AS29","2022_Mar_17_1032","circle","relaxed_first","MainTask",137,"Response","Go","relaxed",1,0.382265100000041,"post_correct_inh",97.4206349206349
434.8831904,0.5,"AG05AS29","2022_Mar_17_1032","circle","relaxed_first","MainTask",138,"Fixation","NoGo","relaxed",1,NA,"post_correct_resp",97.4206349206349
435.3816074,0.1,"AG05AS29","2022_Mar_17_1032","circle","relaxed_first","MainTask",138,"Target","NoGo","relaxed",1,NA,"post_correct_resp",97.4206349206349
435.481613,1.5,"AG05AS29","2022_Mar_17_1032","circle","relaxed_first","MainTask",138,"ITI","NoGo","relaxed",1,NA,"post_correct_resp",97.4206349206349
436.9959567,0.5,"AG05AS29","2022_Mar_17_1032","circle","relaxed_first","MainTask",139,"Fixation","NoGo","relaxed",1,NA,"post_correct_inh",97.4206349206349
437.481722699999,0.1,"AG05AS29","2022_Mar_17_1032","circle","relaxed_first","MainTask",139,"Target","NoGo","relaxed",1,NA,"post_correct_inh",97.4206349206349
437.581417699999,1.5,"AG05AS29","2022_Mar_17_1032","circle","relaxed_first","MainTask",139,"ITI","NoGo","relaxed",1,NA,"post_correct_inh",97.4206349206349
439.0998528,0.5,"AG05AS29","2022_Mar_17_1032","circle","relaxed_first","MainTask",140,"Fixation","Go","relaxed",1,0.367821199999526,"post_correct_inh",97.4206349206349
439.5983265,0.1,"AG05AS29","2022_Mar_17_1032","circle","relaxed_first","MainTask",140,"Target","Go","relaxed",1,0.367821199999526,"post_correct_inh",97.4206349206349
439.6981816,1.26782119999953,"AG05AS29","2022_Mar_17_1032","circle","relaxed_first","MainTask",140,"ITI","Go","relaxed",1,0.367821199999526,"post_correct_inh",97.4206349206349
439.966147699999,0,"AG05AS29","2022_Mar_17_1032","circle","relaxed_first","MainTask",140,"Response","Go","relaxed",1,0.367821199999526,"post_correct_inh",97.4206349206349
441.012717799999,0.5,"AG05AS29","2022_Mar_17_1032","circle","relaxed_first","MainTask",141,"Fixation","Go","relaxed",1,0.382883099999162,"post_correct_resp",97.4206349206349
441.4982762,0.1,"AG05AS29","2022_Mar_17_1032","circle","relaxed_first","MainTask",141,"Target","Go","relaxed",1,0.382883099999162,"post_correct_resp",97.4206349206349
441.5981229,1.28288309999916,"AG05AS29","2022_Mar_17_1032","circle","relaxed_first","MainTask",141,"ITI","Go","relaxed",1,0.382883099999162,"post_correct_resp",97.4206349206349
441.881159299999,0,"AG05AS29","2022_Mar_17_1032","circle","relaxed_first","MainTask",141,"Response","Go","relaxed",1,0.382883099999162,"post_correct_resp",97.4206349206349
442.9156661,0.5,"AG05AS29","2022_Mar_17_1032","circle","relaxed_first","MainTask",142,"Fixation","NoGo","relaxed",1,NA,"post_correct_resp",97.4206349206349
443.4149117,0.1,"AG05AS29","2022_Mar_17_1032","circle","relaxed_first","MainTask",142,"Target","NoGo","relaxed",1,NA,"post_correct_resp",97.4206349206349
443.514962499999,1.5,"AG05AS29","2022_Mar_17_1032","circle","relaxed_first","MainTask",142,"ITI","NoGo","relaxed",1,NA,"post_correct_resp",97.4206349206349
445.015646999999,0.5,"AG05AS29","2022_Mar_17_1032","circle","relaxed_first","MainTask",143,"Fixation","Go","relaxed",1,0.4113195000009,"post_correct_inh",97.4206349206349
445.514840999999,0.1,"AG05AS29","2022_Mar_17_1032","circle","relaxed_first","MainTask",143,"Target","Go","relaxed",1,0.4113195000009,"post_correct_inh",97.4206349206349
445.614843599999,1.3113195000009,"AG05AS29","2022_Mar_17_1032","circle","relaxed_first","MainTask",143,"ITI","Go","relaxed",1,0.4113195000009,"post_correct_inh",97.4206349206349
445.9261605,0,"AG05AS29","2022_Mar_17_1032","circle","relaxed_first","MainTask",143,"Response","Go","relaxed",1,0.4113195000009,"post_correct_inh",97.4206349206349
446.9792361,0.5,"AG05AS29","2022_Mar_17_1032","circle","relaxed_first","MainTask",144,"Fixation","Go","relaxed",1,0.370295800000349,"post_correct_resp",97.4206349206349
447.4648552,0.1,"AG05AS29","2022_Mar_17_1032","circle","relaxed_first","MainTask",144,"Target","Go","relaxed",1,0.370295800000349,"post_correct_resp",97.4206349206349
447.5648864,1.27029580000035,"AG05AS29","2022_Mar_17_1032","circle","relaxed_first","MainTask",144,"ITI","Go","relaxed",1,0.370295800000349,"post_correct_resp",97.4206349206349
447.835151,0,"AG05AS29","2022_Mar_17_1032","circle","relaxed_first","MainTask",144,"Response","Go","relaxed",1,0.370295800000349,"post_correct_resp",97.4206349206349
448.882301199999,0.5,"AG05AS29","2022_Mar_17_1032","circle","relaxed_first","MainTask",145,"Fixation","NoGo","relaxed",1,NA,"post_correct_resp",97.4206349206349
449.381594699999,0.1,"AG05AS29","2022_Mar_17_1032","circle","relaxed_first","MainTask",145,"Target","NoGo","relaxed",1,NA,"post_correct_resp",97.4206349206349
449.481530399999,1.5,"AG05AS29","2022_Mar_17_1032","circle","relaxed_first","MainTask",145,"ITI","NoGo","relaxed",1,NA,"post_correct_resp",97.4206349206349
450.9959887,0.5,"AG05AS29","2022_Mar_17_1032","circle","relaxed_first","MainTask",146,"Fixation","Go","relaxed",1,0.375658400000248,"post_correct_inh",97.4206349206349
451.4815134,0.1,"AG05AS29","2022_Mar_17_1032","circle","relaxed_first","MainTask",146,"Target","Go","relaxed",1,0.375658400000248,"post_correct_inh",97.4206349206349
451.5815852,1.27565840000025,"AG05AS29","2022_Mar_17_1032","circle","relaxed_first","MainTask",146,"ITI","Go","relaxed",1,0.375658400000248,"post_correct_inh",97.4206349206349
451.8571718,0,"AG05AS29","2022_Mar_17_1032","circle","relaxed_first","MainTask",146,"Response","Go","relaxed",1,0.375658400000248,"post_correct_inh",97.4206349206349
452.8990581,0.5,"AG05AS29","2022_Mar_17_1032","circle","relaxed_first","MainTask",147,"Fixation","Go","relaxed",1,0.411803999999393,"post_correct_resp",97.4206349206349
453.3983129,0.1,"AG05AS29","2022_Mar_17_1032","circle","relaxed_first","MainTask",147,"Target","Go","relaxed",1,0.411803999999393,"post_correct_resp",97.4206349206349
453.4982728,1.31180399999939,"AG05AS29","2022_Mar_17_1032","circle","relaxed_first","MainTask",147,"ITI","Go","relaxed",1,0.411803999999393,"post_correct_resp",97.4206349206349
453.810116899999,0,"AG05AS29","2022_Mar_17_1032","circle","relaxed_first","MainTask",147,"Response","Go","relaxed",1,0.411803999999393,"post_correct_resp",97.4206349206349
454.849130199999,0.5,"AG05AS29","2022_Mar_17_1032","circle","relaxed_first","MainTask",148,"Fixation","Go","relaxed",1,0.473772400000598,"post_correct_resp",97.4206349206349
455.348321799999,0.1,"AG05AS29","2022_Mar_17_1032","circle","relaxed_first","MainTask",148,"Target","Go","relaxed",1,0.473772400000598,"post_correct_resp",97.4206349206349
