Flanker,FlankerAndTarget,Congruency,Target,Item,Anchors,NASA_Item,NASA_Anchor,Practiceloop.thisRepN,Practiceloop.thisTrialN,Practiceloop.thisN,Practiceloop.thisIndex,Conditions.thisRepN,Conditions.thisTrialN,Conditions.thisN,Conditions.thisIndex,TrialLoop.thisRepN,TrialLoop.thisTrialN,TrialLoop.thisN,TrialLoop.thisIndex,NASAtrials.thisRepN,NASAtrials.thisTrialN,NASAtrials.thisN,NASAtrials.thisIndex,OrderExperimenter,ResponseMapping,ITI_jitter,IntTrInt.started,IntTrInt.stopped,CorrAns,PracFlankers.started,PracFlankers.stopped,PracTarget.started,PracTarget.stopped,PracResp.keys,PracResp.corr,PracResp.rt,PracFeedbackSlide.started,PracFeedbackSlide.stopped,cutoff,cond_marker,Experimenter_Resp.keys,Experimenter_Resp.rt,TargetTrigger,FlankerTrigger,ResponseTrigger,FlankerSlide.started,FlankerSlide.stopped,TargetSlide.started,TargetSlide.stopped,TargetResponse.keys,TargetResponse.corr,TargetResponse.rt,TargetResponse.started,TargetResponse.stopped,FeedbackSlide.started,FeedbackSlide.stopped,showReminder,ReminderErrors.started,ReminderErrors.stopped,key_resp_3.keys,key_resp_3.started,key_resp_3.stopped,break_slide.started,break_slide.stopped,break_resp.keys,break_resp.started,break_resp.stopped,text.started,text.stopped,key_resp_3.rt,break_resp.rt,ExperimenterPresence,SelfReport.started,SelfReport.stopped,anxious.response,anxious.rt,peppy.response,peppy.rt,peeved.response,peeved.rt,happy.response,happy.rt,tired.response,tired.rt,relaxed.response,relaxed.rt,sad.response,sad.rt,calm.response,calm.rt,exhausted.response,exhausted.rt,irritated.response,irritated.rt,ItemSlide.started,ItemSlide.stopped,rating.response,rating.rt,participant,session,EEGPort,LogFilesFolder,date,expName,psychopyVersion,frameRate,
HHH HHH,HHHHHHH,30,H,,,,,0,0,0,11,,,,,,,,,,,,,Present_First,S_blue,0.8384757108074795,55.20784959999946,None,2,54.371934599999804,54.474277999999686,54.4577307999989,54.65764379999928,2,1,0.7228933999995206,None,None,,,,,,,,,,,,,,,,,,,,,,,,,,,,,,,,,,,,,,,,,,,,,,,,,,,,,,,,,,,,,AG4EN28,1,0x5FB8,D:\CoScience\Logfiles\,2022_May_27_1215,Flanker,2020.1.3,59.937880381156035,
HHH HHH,HHHHHHH,30,H,,,,,0,1,1,10,,,,,,,,,,,,,,,0.9301607187628126,56.607573299999785,None,2,56.05762030000005,56.15769209999962,56.141181199998755,56.34028309999849,2,1,0.436485400001402,None,None,,,,,,,,,,,,,,,,,,,,,,,,,,,,,,,,,,,,,,,,,,,,,,,,,,,,,,,,,,,,,AG4EN28,1,0x5FB8,D:\CoScience\Logfiles\,2022_May_27_1215,Flanker,2020.1.3,59.937880381156035,
HHS SHH,HHSSSHH,10,S,,,,,0,2,2,1,,,,,,,,,,,,,,,0.8130627615425501,58.074129799999355,None,4,57.5428652999999,57.65768729999945,57.64107580000018,57.84103749999849,4,1,0.4156065999995917,None,None,,,,,,,,,,,,,,,,,,,,,,,,,,,,,,,,,,,,,,,,,,,,,,,,,,,,,,,,,,,,,AG4EN28,1,0x5FB8,D:\CoScience\Logfiles\,2022_May_27_1215,Flanker,2020.1.3,59.937880381156035,
SSS SSS,SSSSSSS,30,S,,,,,0,3,3,14,,,,,,,,,,,,,,,0.7983671216799942,59.37401189999946,None,4,58.89195599999948,58.991144599998734,58.991144599998734,59.19100709999839,4,1,0.35856520000015735,None,None,,,,,,,,,,,,,,,,,,,,,,,,,,,,,,,,,,,,,,,,,,,,,,,,,,,,,,,,,,,,,AG4EN28,1,0x5FB8,D:\CoScience\Logfiles\,2022_May_27_1215,Flanker,2020.1.3,59.937880381156035,
SSH HSS,SSHHHSS,10,H,,,,,0,4,4,7,,,,,,,,,,,,,,,0.9809445388125413,60.69071949999852,None,2,60.175282599999264,60.29094819999955,60.274479199999405,60.4744314999989,2,1,0.3886796000006143,None,None,,,,,,,,,,,,,,,,,,,,,,,,,,,,,,,,,,,,,,,,,,,,,,,,,,,,,,,,,,,,,AG4EN28,1,0x5FB8,D:\CoScience\Logfiles\,2022_May_27_1215,Flanker,2020.1.3,59.937880381156035,
HSS SSH,HSSSSSH,20,S,,,,,0,5,5,2,,,,,,,,,,,,,,,0.9696684965286371,62.14075789999879,None,4,61.67541789999996,61.77448169999843,61.77448169999843,61.974419000000125,4,1,0.3353687999988324,None,None,,,,,,,,,,,,,,,,,,,,,,,,,,,,,,,,,,,,,,,,,,,,,,,,,,,,,,,,,,,,,AG4EN28,1,0x5FB8,D:\CoScience\Logfiles\,2022_May_27_1215,Flanker,2020.1.3,59.937880381156035,
HHH HHH,HHHHHHH,30,H,,,,,0,6,6,9,,,,,,,,,,,,,,,0.892690955230685,63.57398319999993,None,2,63.12445250000019,63.22448859999895,63.22448859999895,63.42439589999958,2,1,0.33220340000116266,None,None,,,,,,,,,,,,,,,,,,,,,,,,,,,,,,,,,,,,,,,,,,,,,,,,,,,,,,,,,,,,,AG4EN28,1,0x5FB8,D:\CoScience\Logfiles\,2022_May_27_1215,Flanker,2020.1.3,59.937880381156035,
HHH HHH,HHHHHHH,30,H,,,,,0,7,7,12,,,,,,,,,,,,,,,0.9029992066734491,64.92384139999922,None,2,64.47439169999961,64.57427189999908,64.55776989999868,64.75766179999846,2,1,0.34386540000014065,None,None,,,,,,,,,,,,,,,,,,,,,,,,,,,,,,,,,,,,,,,,,,,,,,,,,,,,,,,,,,,,,AG4EN28,1,0x5FB8,D:\CoScience\Logfiles\,2022_May_27_1215,Flanker,2020.1.3,59.937880381156035,
HHH HHH,HHHSHHH,0,S,,,,,0,8,8,0,,,,,,,,,,,,,,,0.9252029794336575,66.30731409999862,None,4,65.84168089999912,65.94092869999986,65.92438069999844,66.12448179999956,4,1,0.35739509999984875,None,None,,,,,,,,,,,,,,,,,,,,,,,,,,,,,,,,,,,,,,,,,,,,,,,,,,,,,,,,,,,,,AG4EN28,1,0x5FB8,D:\CoScience\Logfiles\,2022_May_27_1215,Flanker,2020.1.3,59.937880381156035,
SSS SSS,SSSSSSS,30,S,,,,,0,9,9,4,,,,,,,,,,,,,,,0.818021837634675,67.640776799999,None,4,67.24220090000017,67.35761449999882,67.34107199999926,67.54111299999931,4,1,0.2805838999993284,None,None,,,,,,,,,,,,,,,,,,,,,,,,,,,,,,,,,,,,,,,,,,,,,,,,,,,,,,,,,,,,,AG4EN28,1,0x5FB8,D:\CoScience\Logfiles\,2022_May_27_1215,Flanker,2020.1.3,59.937880381156035,
HSS SSH,HSSSSSH,20,S,,,,,0,10,10,13,,,,,,,,,,,,,,,0.880157174856339,68.89074929999879,None,4,68.45896089999951,68.57426879999912,68.55790960000013,68.75788779999857,4,1,0.3016608999987511,None,None,,,,,,,,,,,,,,,,,,,,,,,,,,,,,,,,,,,,,,,,,,,,,,,,,,,,,,,,,,,,,AG4EN28,1,0x5FB8,D:\CoScience\Logfiles\,2022_May_27_1215,Flanker,2020.1.3,59.937880381156035,
SSS SSS,SSSHSSS,0,H,,,,,0,11,11,6,,,,,,,,,,,,,,,0.8110965483780346,70.30734609999854,None,2,69.77614499999981,69.8909552999994,69.87438659999862,70.07443219999914,2,1,0.4173836999998457,None,None,,,,,,,,,,,,,,,,,,,,,,,,,,,,,,,,,,,,,,,,,,,,,,,,,,,,,,,,,,,,,AG4EN28,1,0x5FB8,D:\CoScience\Logfiles\,2022_May_27_1215,Flanker,2020.1.3,59.937880381156035,
SSS SSS,SSSSSSS,30,S,,,,,0,12,12,3,,,,,,,,,,,,,,,0.8670001517643711,71.52402009999969,None,4,71.1248171999996,71.2241310999998,71.2074266999989,71.40779279999879,4,1,0.2825654000007489,None,None,,,,,,,,,,,,,,,,,,,,,,,,,,,,,,,,,,,,,,,,,,,,,,,,,,,,,,,,,,,,,AG4EN28,1,0x5FB8,D:\CoScience\Logfiles\,2022_May_27_1215,Flanker,2020.1.3,59.937880381156035,
SSS SSS,SSSSSSS,30,S,,,,,0,13,13,5,,,,,,,,,,,,,,,0.7729292202976519,72.84076749999986,None,4,72.39065909999954,72.49111149999953,72.47450299999946,72.67450879999888,4,1,0.33508359999905224,None,None,,,,,,,,,,,,,,,,,,,,,,,,,,,,,,,,,,,,,,,,,,,,,,,,,,,,,,,,,,,,,AG4EN28,1,0x5FB8,D:\CoScience\Logfiles\,2022_May_27_1215,Flanker,2020.1.3,59.937880381156035,
SHH HHS,SHHHHHS,20,H,,,,,0,14,14,8,,,,,,,,,,,,,,,0.8897108216573868,74.0907686999999,None,2,73.63874679999935,73.74095989999842,73.72442330000013,73.92442029999984,2,1,0.34414450000076613,None,None,,,,,,,,,,,,,,,,,,,,,,,,,,,,,,,,,,,,,,,,,,,,,,,,,,,,,,,,,,,,,AG4EN28,1,0x5FB8,D:\CoScience\Logfiles\,2022_May_27_1215,Flanker,2020.1.3,59.937880381156035,
HHH HHH,HHHHHHH,30,H,,,,,,,,,0,0,0,0,0,0,0,9,,,,,,,0.7840792572735582,113.7584472999988,None,2,,,,,,,,,,0.41596201062202454,200,n,5.117236200001571,234,230,236,112.20319009999912,112.30758449999848,112.29098819999854,112.49112509999941,2,1,0.41986220000035246,112.29098819999854,None,112.74783679999928,None,False,None,None,None,None,None,None,None,None,None,None,None,None,,,,,,,,,,,,,,,,,,,,,,,,,,,,,,AG4EN28,1,0x5FB8,D:\CoScience\Logfiles\,2022_May_27_1215,Flanker,2020.1.3,59.937880381156035,
HHH HHH,HHHHHHH,30,H,,,,,,,,,0,0,0,0,0,1,1,10,,,,,,,0.9858715764490456,115.0112285999985,None,2,,,,,,,,,,,,,,234,230,237,114.5570702999994,114.6575912999997,114.64099999999962,114.84066809999968,2,1,0.3380296000013914,114.64099999999962,None,None,None,False,None,None,None,None,None,None,None,None,None,None,None,None,,,,,,,,,,,,,,,,,,,,,,,,,,,,,,AG4EN28,1,0x5FB8,D:\CoScience\Logfiles\,2022_May_27_1215,Flanker,2020.1.3,59.937880381156035,
HHH HHH,HHHHHHH,30,H,,,,,,,,,0,0,0,0,0,2,2,9,,,,,,,0.7956154784284868,116.42771399999947,None,2,,,,,,,,,,,,,,234,230,237,116.00751919999857,116.1075026999988,116.09092669999882,116.2909998999985,2,1,0.3028580999998667,116.09092669999882,None,None,None,False,None,None,None,None,None,None,None,None,None,None,None,None,,,,,,,,,,,,,,,,,,,,,,,,,,,,,,AG4EN28,1,0x5FB8,D:\CoScience\Logfiles\,2022_May_27_1215,Flanker,2020.1.3,59.937880381156035,
SSH HSS,SSHHHSS,10,H,,,,,,,,,0,0,0,0,0,3,3,7,,,,,,,0.8893378497569131,117.72784049999973,None,2,,,,,,,,,,,,,,214,210,217,117.22527739999896,117.3409088999997,117.32436159999997,117.5243847999991,2,1,0.3754855999995925,117.32436159999997,None,None,None,False,None,None,None,None,None,None,None,None,None,None,None,None,,,,,,,,,,,,,,,,,,,,,,,,,,,,,,AG4EN28,1,0x5FB8,D:\CoScience\Logfiles\,2022_May_27_1215,Flanker,2020.1.3,59.937880381156035,
SSS SSS,SSSSSSS,30,S,,,,,,,,,0,0,0,0,0,4,4,5,,,,,,,0.7697988972479203,119.0449768999988,None,4,,,,,,,,,,,,,,234,230,239,118.62621469999976,118.74091880000014,118.7243727999994,118.92391059999864,2,0,0.29055289999996603,118.7243727999994,None,None,None,False,None,None,None,None,None,None,None,None,None,None,None,None,,,,,,,,,,,,,,,,,,,,,,,,,,,,,,AG4EN28,1,0x5FB8,D:\CoScience\Logfiles\,2022_May_27_1215,Flanker,2020.1.3,59.937880381156035,
SSS SSS,SSSSSSS,30,S,,,,,,,,,0,0,0,0,0,5,5,5,,,,,,,0.9314714409095302,120.22769340000013,None,4,,,,,,,,,,,,,,234,230,237,119.82428999999865,119.9242551999996,119.90769959999852,120.1076720000001,4,1,0.2862552999995387,119.90769959999852,None,None,None,False,None,None,None,None,None,None,None,None,None,None,None,None,,,,,,,,,,,,,,,,,,,,,,,,,,,,,,AG4EN28,1,0x5FB8,D:\CoScience\Logfiles\,2022_May_27_1215,Flanker,2020.1.3,59.937880381156035,
HHH HHH,HHHSHHH,0,S,,,,,,,,,0,0,0,0,0,6,6,0,,,,,,,0.8496838219140297,121.59480069999881,None,4,,,,,,,,,,,,,,204,200,207,121.17624209999849,121.29046119999839,121.27387159999853,121.47436779999953,4,1,0.29596049999963725,121.27387159999853,None,None,None,False,None,None,None,None,None,None,None,None,None,None,None,None,,,,,,,,,,,,,,,,,,,,,,,,,,,,,,AG4EN28,1,0x5FB8,D:\CoScience\Logfiles\,2022_May_27_1215,Flanker,2020.1.3,59.937880381156035,
SSS SSS,SSSSSSS,30,S,,,,,,,,,0,0,0,0,0,7,7,4,,,,,,,0.888872187244522,122.86136269999952,None,4,,,,,,,,,,,,,,234,230,237,122.45786289999887,122.55779619999885,122.55779619999885,122.75769789999867,4,1,0.27509919999829435,122.55779619999885,None,None,None,False,None,None,None,None,None,None,None,None,None,None,None,None,,,,,,,,,,,,,,,,,,,,,,,,,,,,,,AG4EN28,1,0x5FB8,D:\CoScience\Logfiles\,2022_May_27_1215,Flanker,2020.1.3,59.937880381156035,
HHH HHH,HHHHHHH,30,H,,,,,,,,,0,0,0,0,0,8,8,9,,,,,,,0.75177993905027,124.1445322999989,None,2,,,,,,,,,,,,,,234,230,237,123.75872429999981,123.87434759999996,123.85757149999881,124.05775170000015,2,1,0.26028430000042135,123.85757149999881,None,None,None,False,None,None,None,None,None,None,None,None,None,None,None,None,,,,,,,,,,,,,,,,,,,,,,,,,,,,,,AG4EN28,1,0x5FB8,D:\CoScience\Logfiles\,2022_May_27_1215,Flanker,2020.1.3,59.937880381156035,
HHH HHH,HHHSHHH,0,S,,,,,,,,,0,0,0,0,0,9,9,0,,,,,,,0.8519369739615072,125.37726079999993,None,4,,,,,,,,,,,,,,204,200,207,124.90797819999898,125.0074353,124.99095449999913,125.19060659999923,4,1,0.3600953000004665,124.99095449999913,None,None,None,False,None,None,None,None,None,None,None,None,None,None,None,None,,,,,,,,,,,,,,,,,,,,,,,,,,,,,,AG4EN28,1,0x5FB8,D:\CoScience\Logfiles\,2022_May_27_1215,Flanker,2020.1.3,59.937880381156035,
HSS SSH,HSSSSSH,20,S,,,,,,,,,0,0,0,0,0,10,10,2,,,,,,,0.8738835012070781,126.57799109999905,None,4,,,,,,,,,,,,,,224,220,229,126.24182099999962,126.34106499999871,126.34106499999871,126.54100920000019,2,0,0.2128472000003967,126.34106499999871,None,None,None,False,None,None,None,None,None,None,None,None,None,None,None,None,,,,,,,,,,,,,,,,,,,,,,,,,,,,,,AG4EN28,1,0x5FB8,D:\CoScience\Logfiles\,2022_May_27_1215,Flanker,2020.1.3,59.937880381156035,
HHS SHH,HHSSSHH,10,S,,,,,,,,,0,0,0,0,0,11,11,1,,,,,,,0.8760860403830665,127.89470189999884,None,4,,,,,,,,,,,,,,214,210,217,127.45852419999937,127.55775139999969,127.55775139999969,127.75761419999981,4,1,0.3062349000010727,127.55775139999969,None,None,None,False,None,None,None,None,None,None,None,None,None,None,None,None,,,,,,,,,,,,,,,,,,,,,,,,,,,,,,AG4EN28,1,0x5FB8,D:\CoScience\Logfiles\,2022_May_27_1215,Flanker,2020.1.3,59.937880381156035,
HHS SHH,HHSSSHH,10,S,,,,,,,,,0,0,0,0,1,0,12,1,,,,,,,0.8499135278867097,129.12780759999987,None,4,,,,,,,,,,,,,,214,210,217,128.7741432999992,128.87426679999953,128.8577411999995,129.05773969999973,4,1,0.24923850000050152,128.8577411999995,None,None,None,False,None,None,None,None,None,None,None,None,None,None,None,None,,,,,,,,,,,,,,,,,,,,,,,,,,,,,,AG4EN28,1,0x5FB8,D:\CoScience\Logfiles\,2022_May_27_1215,Flanker,2020.1.3,59.937880381156035,
HHH HHH,HHHHHHH,30,H,,,,,,,,,0,0,0,0,1,1,13,9,,,,,,,0.8543537713713235,130.41137489999892,None,2,,,,,,,,,,,,,,234,230,237,129.99291379999886,130.10760349999873,130.0910619999995,130.29108149999956,2,1,0.30074360000071465,130.0910619999995,None,None,None,False,None,None,None,None,None,None,None,None,None,None,None,None,,,,,,,,,,,,,,,,,,,,,,,,,,,,,,AG4EN28,1,0x5FB8,D:\CoScience\Logfiles\,2022_May_27_1215,Flanker,2020.1.3,59.937880381156035,
HHS SHH,HHSSSHH,10,S,,,,,,,,,0,0,0,0,1,2,14,1,,,,,,,0.9206514555832095,131.66118029999961,None,4,,,,,,,,,,,,,,214,210,217,131.27543839999998,131.3909253999991,131.37442759999976,131.57445279999956,4,1,0.268424199999572,131.37442759999976,None,None,None,False,None,None,None,None,None,None,None,None,None,None,None,None,,,,,,,,,,,,,,,,,,,,,,,,,,,,,,AG4EN28,1,0x5FB8,D:\CoScience\Logfiles\,2022_May_27_1215,Flanker,2020.1.3,59.937880381156035,
HSS SSH,HSSSSSH,20,S,,,,,,,,,0,0,0,0,1,3,15,2,,,,,,,0.7864294153837403,132.9282706999984,None,4,,,,,,,,,,,,,,224,220,227,132.5922331999991,132.70754039999883,132.69110089999958,132.89101469999878,4,1,0.20580639999934647,132.69110089999958,None,None,None,False,None,None,None,None,None,None,None,None,None,None,None,None,,,,,,,,,,,,,,,,,,,,,,,,,,,,,,AG4EN28,1,0x5FB8,D:\CoScience\Logfiles\,2022_May_27_1215,Flanker,2020.1.3,59.937880381156035,
SSS SSS,SSSHSSS,0,H,,,,,,,,,0,0,0,0,1,4,16,6,,,,,,,0.9895732235581707,134.16137759999947,None,2,,,,,,,,,,,,,,204,200,209,133.726345699999,133.84087889999864,133.82431199999883,134.02440690000003,4,0,0.31398780000017723,133.82431199999883,None,None,None,False,None,None,None,None,None,None,None,None,None,None,None,None,,,,,,,,,,,,,,,,,,,,,,,,,,,,,,AG4EN28,1,0x5FB8,D:\CoScience\Logfiles\,2022_May_27_1215,Flanker,2020.1.3,59.937880381156035,
HHH HHH,HHHHHHH,30,H,,,,,,,,,0,0,0,0,1,5,17,9,,,,,,,0.9338763051502603,135.52803200000017,None,2,,,,,,,,,,,,,,234,230,237,135.15870759999962,135.27431999999862,135.25765729999875,135.45759819999876,2,1,0.24716439999974682,135.25765729999875,None,None,None,False,None,None,None,None,None,None,None,None,None,None,None,None,,,,,,,,,,,,,,,,,,,,,,,,,,,,,,AG4EN28,1,0x5FB8,D:\CoScience\Logfiles\,2022_May_27_1215,Flanker,2020.1.3,59.937880381156035,
HSS SSH,HSSSSSH,20,S,,,,,,,,,0,0,0,0,1,6,18,2,,,,,,,0.8333341819847048,136.86142049999944,None,4,,,,,,,,,,,,,,224,220,227,136.47522469999967,136.574368399999,136.574368399999,136.77437019999888,4,1,0.25745390000156476,136.574368399999,None,None,None,False,None,None,None,None,None,None,None,None,None,None,None,None,,,,,,,,,,,,,,,,,,,,,,,,,,,,,,AG4EN28,1,0x5FB8,D:\CoScience\Logfiles\,2022_May_27_1215,Flanker,2020.1.3,59.937880381156035,
SSS SSS,SSSSSSS,30,S,,,,,,,,,0,0,0,0,1,7,19,4,,,,,,,0.9134270570116851,138.16105509999943,None,4,,,,,,,,,,,,,,234,230,237,137.7087077999986,137.82427659999848,137.80771999999888,138.00772609999876,4,1,0.3271273000009387,137.80771999999888,None,None,None,False,None,None,None,None,None,None,None,None,None,None,None,None,,,,,,,,,,,,,,,,,,,,,,,,,,,,,,AG4EN28,1,0x5FB8,D:\CoScience\Logfiles\,2022_May_27_1215,Flanker,2020.1.3,59.937880381156035,
SSS SSS,SSSSSSS,30,S,,,,,,,,,0,0,0,0,1,8,20,4,,,,,,,0.8076639237785584,139.40987249999853,None,4,,,,,,,,,,,,,,234,230,239,139.0740754999988,139.17429769999944,139.15773529999933,139.35771789999853,2,0,0.2200689000001148,139.15773529999933,None,None,None,False,None,None,None,None,None,None,None,None,None,None,None,None,,,,,,,,,,,,,,,,,,,,,,,,,,,,,,AG4EN28,1,0x5FB8,D:\CoScience\Logfiles\,2022_May_27_1215,Flanker,2020.1.3,59.937880381156035,
HHH HHH,HHHHHHH,30,H,,,,,,,,,0,0,0,0,1,9,21,9,,,,,,,0.9711547040331654,140.71085669999957,None,2,,,,,,,,,,,,,,234,230,239,140.2251699999997,140.32434069999908,140.32434069999908,140.52441129999897,4,0,0.36545810000097845,140.32434069999908,None,None,None,False,None,None,None,None,None,None,None,None,None,None,None,None,,,,,,,,,,,,,,,,,,,,,,,,,,,,,,AG4EN28,1,0x5FB8,D:\CoScience\Logfiles\,2022_May_27_1215,Flanker,2020.1.3,59.937880381156035,
HHH HHH,HHHHHHH,30,H,,,,,,,,,0,0,0,0,1,10,22,11,,,,,,,0.7832818005634582,142.16121759999987,None,2,,,,,,,,,,,,,,234,230,237,141.690788599999,141.79090559999895,141.77438660000007,141.9741954000001,2,1,0.35343830000056187,141.77438660000007,None,None,None,False,None,None,None,None,None,None,None,None,None,None,None,None,,,,,,,,,,,,,,,,,,,,,,,,,,,,,,AG4EN28,1,0x5FB8,D:\CoScience\Logfiles\,2022_May_27_1215,Flanker,2020.1.3,59.937880381156035,
HHH HHH,HHHSHHH,0,S,,,,,,,,,0,0,0,0,1,11,23,0,,,,,,,0.9874674892280831,143.32796039999994,None,4,,,,,,,,,,,,,,204,200,209,142.9585361999998,143.05747979999978,143.04105059999893,143.24097979999897,2,0,0.2648057999995217,143.04105059999893,None,None,None,False,None,None,None,None,None,None,None,None,None,None,None,None,,,,,,,,,,,,,,,,,,,,,,,,,,,,,,AG4EN28,1,0x5FB8,D:\CoScience\Logfiles\,2022_May_27_1215,Flanker,2020.1.3,59.937880381156035,
HSS SSH,HSSSSSH,20,S,,,,,,,,,0,0,0,0,2,0,24,2,,,,,,,0.9345411520731832,144.72702359999857,None,4,,,,,,,,,,,,,,224,220,227,144.32522999999856,144.42423659999986,144.42423659999986,144.6243218999989,4,1,0.2787055999997392,144.42423659999986,None,None,None,False,None,None,None,None,None,None,None,None,None,None,None,None,,,,,,,,,,,,,,,,,,,,,,,,,,,,,,AG4EN28,1,0x5FB8,D:\CoScience\Logfiles\,2022_May_27_1215,Flanker,2020.1.3,59.937880381156035,
SSS SSS,SSSHSSS,0,H,,,,,,,,,0,0,0,0,2,1,25,6,,,,,,,0.8885137471065307,146.0279176999993,None,2,,,,,,,,,,,,,,204,200,209,145.67524539999977,145.79068629999892,145.77434839999842,145.97423600000002,4,0,0.22844339999937802,145.77434839999842,None,None,None,False,None,None,None,None,None,None,None,None,None,None,None,None,,,,,,,,,,,,,,,,,,,,,,,,,,,,,,AG4EN28,1,0x5FB8,D:\CoScience\Logfiles\,2022_May_27_1215,Flanker,2020.1.3,59.937880381156035,
HHH HHH,HHHHHHH,30,H,,,,,,,,,0,0,0,0,2,2,26,9,,,,,,,0.9205689238547712,147.4112925999998,None,2,,,,,,,,,,,,,,234,230,237,146.92626740000014,147.04054779999933,147.024296399999,147.2243389999985,2,1,0.35849659999985306,147.024296399999,None,None,None,False,None,None,None,None,None,None,None,None,None,None,None,None,,,,,,,,,,,,,,,,,,,,,,,,,,,,,,AG4EN28,1,0x5FB8,D:\CoScience\Logfiles\,2022_May_27_1215,Flanker,2020.1.3,59.937880381156035,
SSS SSS,SSSHSSS,0,H,,,,,,,,,0,0,0,0,2,3,27,6,,,,,,,0.8103802031766124,148.8104104999984,None,2,,,,,,,,,,,,,,204,200,209,148.34218319999854,148.4575038999992,148.44101929999852,148.64099629999873,4,0,0.3487777999998798,148.44101929999852,None,None,None,False,None,None,None,None,None,None,None,None,None,None,None,None,,,,,,,,,,,,,,,,,,,,,,,,,,,,,,AG4EN28,1,0x5FB8,D:\CoScience\Logfiles\,2022_May_27_1215,Flanker,2020.1.3,59.937880381156035,
HHS SHH,HHSSSHH,10,S,,,,,,,,,0,0,0,0,2,4,28,1,,,,,,,0.8233505617599106,150.09416249999958,None,4,,,,,,,,,,,,,,214,210,219,149.62541619999865,149.74081699999988,149.72428299999956,149.9243502999998,2,0,0.3485353000014584,149.72428299999956,None,None,None,False,None,None,None,None,None,None,None,None,None,None,None,None,,,,,,,,,,,,,,,,,,,,,,,,,,,,,,AG4EN28,1,0x5FB8,D:\CoScience\Logfiles\,2022_May_27_1215,Flanker,2020.1.3,59.937880381156035,
SSH HSS,SSHHHSS,10,H,,,,,,,,,0,0,0,0,2,5,29,7,,,,,,,0.9740612510482807,151.427931799999,None,2,,,,,,,,,,,,,,214,210,217,150.92507959999966,151.04024149999896,151.0236361999996,151.22438669999974,2,1,0.37117490000127873,151.0236361999996,None,None,None,False,None,None,None,None,None,None,None,None,None,None,None,None,,,,,,,,,,,,,,,,,,,,,,,,,,,,,,AG4EN28,1,0x5FB8,D:\CoScience\Logfiles\,2022_May_27_1215,Flanker,2020.1.3,59.937880381156035,
SSH HSS,SSHHHSS,10,H,,,,,,,,,0,0,0,0,2,6,30,7,,,,,,,0.8064892392580003,152.72778859999926,None,2,,,,,,,,,,,,,,214,210,219,152.40669139999954,152.50687729999845,152.4902387000002,152.69107319999966,4,0,0.21800890000122308,152.4902387000002,None,None,None,False,None,None,None,None,None,None,None,None,None,None,None,None,,,,,,,,,,,,,,,,,,,,,,,,,,,,,,AG4EN28,1,0x5FB8,D:\CoScience\Logfiles\,2022_May_27_1215,Flanker,2020.1.3,59.937880381156035,
SSS SSS,SSSSSSS,30,S,,,,,,,,,0,0,0,0,2,7,31,3,,,,,,,0.996738815961241,153.95912019999923,None,4,,,,,,,,,,,,,,234,230,237,153.5415438,153.64101499999924,153.64101499999924,153.84088169999995,4,1,0.2935128999997687,153.64101499999924,None,None,None,False,None,None,None,None,None,None,None,None,None,None,None,None,,,,,,,,,,,,,,,,,,,,,,,,,,,,,,AG4EN28,1,0x5FB8,D:\CoScience\Logfiles\,2022_May_27_1215,Flanker,2020.1.3,59.937880381156035,
SSS SSS,SSSSSSS,30,S,,,,,,,,,0,0,0,0,2,8,32,4,,,,,,,0.8208403389754532,155.3442942999991,None,4,,,,,,,,,,,,,,234,230,237,154.95752449999964,155.05746120000003,155.0409706999999,155.24100569999973,4,1,0.27080669999850215,155.0409706999999,None,None,None,False,None,None,None,None,None,None,None,None,None,None,None,None,,,,,,,,,,,,,,,,,,,,,,,,,,,,,,AG4EN28,1,0x5FB8,D:\CoScience\Logfiles\,2022_May_27_1215,Flanker,2020.1.3,59.937880381156035,
HHH HHH,HHHSHHH,0,S,,,,,,,,,0,0,0,0,2,9,33,0,,,,,,,0.8350278897095921,156.52783349999845,None,4,,,,,,,,,,,,,,204,200,209,156.1751760999996,156.2904454999989,156.2739160000001,156.4742213999998,2,0,0.22400139999990643,156.2739160000001,None,None,None,False,None,None,None,None,None,None,None,None,None,None,None,None,,,,,,,,,,,,,,,,,,,,,,,,,,,,,,AG4EN28,1,0x5FB8,D:\CoScience\Logfiles\,2022_May_27_1215,Flanker,2020.1.3,59.937880381156035,
SSS SSS,SSSHSSS,0,H,,,,,,,,,0,0,0,0,2,10,34,6,,,,,,,0.976648868437675,169.23956759999965,None,2,,,,,,,,,,,,,,204,200,209,157.37541769999916,157.49084169999878,157.4743681,157.67435990000013,4,0,0.3615417000000889,157.4743681,None,None,None,True,157.8652172000002,None,return,157.8652172000002,None,None,None,None,None,None,None,None,11.356606700001066,,,,,,,,,,,,,,,,,,,,,,,,,,,,,AG4EN28,1,0x5FB8,D:\CoScience\Logfiles\,2022_May_27_1215,Flanker,2020.1.3,59.937880381156035,
SSH HSS,SSHHHSS,10,H,,,,,,,,,0,0,0,0,2,11,35,7,,,,,,,0.8159130141685484,170.71108379999896,None,2,,,,,,,,,,,,,,214,210,217,170.22533139999905,170.32422219999899,170.32422219999899,170.52420279999933,2,1,0.36270299999887357,170.32422219999899,None,None,None,False,None,None,None,None,None,None,None,None,None,None,None,None,,,,,,,,,,,,,,,,,,,,,,,,,,,,,,AG4EN28,1,0x5FB8,D:\CoScience\Logfiles\,2022_May_27_1215,Flanker,2020.1.3,59.937880381156035,
HHH HHH,HHHHHHH,30,H,,,,,,,,,0,0,0,0,3,0,36,10,,,,,,,0.8563039372460556,171.96113829999922,None,2,,,,,,,,,,,,,,234,230,237,171.5427740999985,171.65752669999893,171.6410065,171.84042189999855,2,1,0.28875029999835533,171.6410065,None,None,None,False,None,None,None,None,None,None,None,None,None,None,None,None,,,,,,,,,,,,,,,,,,,,,,,,,,,,,,AG4EN28,1,0x5FB8,D:\CoScience\Logfiles\,2022_May_27_1215,Flanker,2020.1.3,59.937880381156035,
SHH HHS,SHHHHHS,20,H,,,,,,,,,0,0,0,0,3,1,37,8,,,,,,,0.865941205719306,173.3443729999999,None,2,,,,,,,,,,,,,,224,220,227,172.82625779999944,172.94083580000006,172.92443739999908,173.12431119999928,2,1,0.38642780000009225,172.92443739999908,None,None,None,False,None,None,None,None,None,None,None,None,None,None,None,None,,,,,,,,,,,,,,,,,,,,,,,,,,,,,,AG4EN28,1,0x5FB8,D:\CoScience\Logfiles\,2022_May_27_1215,Flanker,2020.1.3,59.937880381156035,
HHS SHH,HHSSSHH,10,S,,,,,,,,,0,0,0,0,3,2,38,1,,,,,,,0.9832390259751767,174.54475169999932,None,4,,,,,,,,,,,,,,214,210,219,174.22549829999843,174.3407774999996,174.32424339999852,174.52425089999997,2,0,0.1916667999994388,174.32424339999852,None,None,None,False,None,None,None,None,None,None,None,None,None,None,None,None,,,,,,,,,,,,,,,,,,,,,,,,,,,,,,AG4EN28,1,0x5FB8,D:\CoScience\Logfiles\,2022_May_27_1215,Flanker,2020.1.3,59.937880381156035,
HHS SHH,HHSSSHH,10,S,,,,,,,,,0,0,0,0,3,3,39,1,,,,,,,0.7638108640336372,175.96154119999846,None,4,,,,,,,,,,,,,,214,210,219,175.54069639999943,175.6408264999991,175.62434380000013,175.82427029999963,2,0,0.3175740999995469,175.62434380000013,None,None,None,False,None,None,None,None,None,None,None,None,None,None,None,None,,,,,,,,,,,,,,,,,,,,,,,,,,,,,,AG4EN28,1,0x5FB8,D:\CoScience\Logfiles\,2022_May_27_1215,Flanker,2020.1.3,59.937880381156035,
HHH HHH,HHHHHHH,30,H,,,,,,,,,0,0,0,0,3,4,40,11,,,,,,,0.9464481471646164,177.21099629999844,None,2,,,,,,,,,,,,,,234,230,237,176.74208649999855,176.85744339999837,176.84088429999974,177.04090629999882,2,1,0.3430810999998357,176.84088429999974,None,None,None,False,None,None,None,None,None,None,None,None,None,None,None,None,,,,,,,,,,,,,,,,,,,,,,,,,,,,,,AG4EN28,1,0x5FB8,D:\CoScience\Logfiles\,2022_May_27_1215,Flanker,2020.1.3,59.937880381156035,
SSS SSS,SSSSSSS,30,S,,,,,,,,,0,0,0,0,3,5,41,5,,,,,,,0.8008670218126407,178.52779409999857,None,4,,,,,,,,,,,,,,234,230,237,178.15863569999965,178.2741520999989,178.25761319999947,178.4575944999997,4,1,0.25028129999918747,178.25761319999947,None,None,None,False,None,None,None,None,None,None,None,None,None,None,None,None,,,,,,,,,,,,,,,,,,,,,,,,,,,,,,AG4EN28,1,0x5FB8,D:\CoScience\Logfiles\,2022_May_27_1215,Flanker,2020.1.3,59.937880381156035,
SHH HHS,SHHHHHS,20,H,,,,,,,,,0,0,0,0,3,6,42,8,,,,,,,0.927566161833282,179.77763210000012,None,2,,,,,,,,,,,,,,224,220,227,179.3428262999987,179.4574225999986,179.44092929999897,179.64089879999847,2,1,0.30508630000076664,179.44092929999897,None,None,None,False,None,None,None,None,None,None,None,None,None,None,None,None,,,,,,,,,,,,,,,,,,,,,,,,,,,,,,AG4EN28,1,0x5FB8,D:\CoScience\Logfiles\,2022_May_27_1215,Flanker,2020.1.3,59.937880381156035,
SSS SSS,SSSSSSS,30,S,,,,,,,,,0,0,0,0,3,7,43,3,,,,,,,0.9392061084181413,181.1947307999999,None,4,,,,,,,,,,,,,,234,230,237,180.70844690000013,180.82411669999965,180.8072665999989,181.0076025999988,4,1,0.3535671000008733,180.8072665999989,None,None,None,False,None,None,None,None,None,None,None,None,None,None,None,None,,,,,,,,,,,,,,,,,,,,,,,,,,,,,,AG4EN28,1,0x5FB8,D:\CoScience\Logfiles\,2022_May_27_1215,Flanker,2020.1.3,59.937880381156035,
SSS SSS,SSSHSSS,0,H,,,,,,,,,0,0,0,0,3,8,44,6,,,,,,,0.8999944267840382,183.6901128999998,None,2,,,,,,,,,,,,,,204,200,206,182.14200809999966,182.25699410000016,182.22428969999964,182.42412999999942,2,1,0.4214573000008386,182.22428969999964,None,182.68010689999937,None,False,None,None,None,None,None,None,None,None,None,None,None,None,,,,,,,,,,,,,,,,,,,,,,,,,,,,,,AG4EN28,1,0x5FB8,D:\CoScience\Logfiles\,2022_May_27_1215,Flanker,2020.1.3,59.937880381156035,
HHH HHH,HHHHHHH,30,H,,,,,,,,,0,0,0,0,3,9,45,10,,,,,,,0.8981365302620703,184.99447639999926,None,2,,,,,,,,,,,,,,234,230,237,184.59115199999906,184.69095209999978,184.69095209999978,184.8908649999994,2,1,0.28178830000069865,184.69095209999978,None,None,None,False,None,None,None,None,None,None,None,None,None,None,None,None,,,,,,,,,,,,,,,,,,,,,,,,,,,,,,AG4EN28,1,0x5FB8,D:\CoScience\Logfiles\,2022_May_27_1215,Flanker,2020.1.3,59.937880381156035,
SSS SSS,SSSSSSS,30,S,,,,,,,,,0,0,0,0,3,10,46,5,,,,,,,0.7851603221914452,186.2765615999997,None,4,,,,,,,,,,,,,,234,230,237,185.90871379999953,186.0240716999997,186.00745969999844,186.20747239999946,4,1,0.244375600001149,186.00745969999844,None,None,None,False,None,None,None,None,None,None,None,None,None,None,None,None,,,,,,,,,,,,,,,,,,,,,,,,,,,,,,AG4EN28,1,0x5FB8,D:\CoScience\Logfiles\,2022_May_27_1215,Flanker,2020.1.3,59.937880381156035,
SSS SSS,SSSSSSS,30,S,,,,,,,,,0,0,0,0,3,11,47,5,,,,,,,0.7654829080404459,187.4772798999984,None,4,,,,,,,,,,,,,,234,230,237,187.07357669999874,187.17423210000015,187.15765529999953,187.357614999999,4,1,0.293237500000032,187.15765529999953,None,None,None,False,None,None,None,None,None,None,None,None,None,None,None,None,,,,,,,,,,,,,,,,,,,,,,,,,,,,,,AG4EN28,1,0x5FB8,D:\CoScience\Logfiles\,2022_May_27_1215,Flanker,2020.1.3,59.937880381156035,
HHH HHH,HHHSHHH,0,S,,,,,,,,,0,0,0,0,4,0,48,0,,,,,,,0.9974218112888485,188.64414559999932,None,4,,,,,,,,,,,,,,204,200,209,188.25849769999877,188.35765879999963,188.35765879999963,188.55759799999942,2,0,0.267119799998909,188.35765879999963,None,None,None,False,None,None,None,None,None,None,None,None,None,None,None,None,,,,,,,,,,,,,,,,,,,,,,,,,,,,,,AG4EN28,1,0x5FB8,D:\CoScience\Logfiles\,2022_May_27_1215,Flanker,2020.1.3,59.937880381156035,
HHH HHH,HHHSHHH,0,S,,,,,,,,,0,0,0,0,4,1,49,0,,,,,,,0.9077086429221994,190.01112329999887,None,4,,,,,,,,,,,,,,204,200,209,189.6408199999987,189.7408665999992,189.72418079999989,189.9242635999999,2,0,0.2575512000003073,189.72418079999989,None,None,None,False,None,None,None,None,None,None,None,None,None,None,None,None,,,,,,,,,,,,,,,,,,,,,,,,,,,,,,AG4EN28,1,0x5FB8,D:\CoScience\Logfiles\,2022_May_27_1215,Flanker,2020.1.3,59.937880381156035,
SHH HHS,SHHHHHS,20,H,,,,,,,,,0,0,0,0,4,2,50,8,,,,,,,0.9323573973372175,191.3277737999997,None,2,,,,,,,,,,,,,,224,220,227,190.9262216999996,191.04084729999886,191.0242306,191.22429229999943,2,1,0.28250560000014957,191.0242306,None,None,None,False,None,None,None,None,None,None,None,None,None,None,None,None,,,,,,,,,,,,,,,,,,,,,,,,,,,,,,AG4EN28,1,0x5FB8,D:\CoScience\Logfiles\,2022_May_27_1215,Flanker,2020.1.3,59.937880381156035,
HSS SSH,HSSSSSH,20,S,,,,,,,,,0,0,0,0,4,3,51,2,,,,,,,0.8007792894114297,192.77766579999843,None,4,,,,,,,,,,,,,,224,220,227,192.2763003,192.39083309999842,192.37414119999994,192.57429450000018,4,1,0.37664699999913864,192.37414119999994,None,None,None,False,None,None,None,None,None,None,None,None,None,None,None,None,,,,,,,,,,,,,,,,,,,,,,,,,,,,,,AG4EN28,1,0x5FB8,D:\CoScience\Logfiles\,2022_May_27_1215,Flanker,2020.1.3,59.937880381156035,
SSS SSS,SSSSSSS,30,S,,,,,,,,,0,0,0,0,4,4,52,5,,,,,,,0.9015111300740684,193.9435343999994,None,4,,,,,,,,,,,,,,234,230,237,193.5927441999993,193.70747269999993,193.69092069999897,193.8905326999993,4,1,0.21992409999984375,193.69092069999897,None,None,None,False,None,None,None,None,None,None,None,None,None,None,None,None,,,,,,,,,,,,,,,,,,,,,,,,,,,,,,AG4EN28,1,0x5FB8,D:\CoScience\Logfiles\,2022_May_27_1215,Flanker,2020.1.3,59.937880381156035,
SSH HSS,SSHHHSS,10,H,,,,,,,,,0,0,0,0,4,5,53,7,,,,,,,0.9904705570266817,195.37775069999952,None,2,,,,,,,,,,,,,,214,210,217,194.8594607999985,194.97422740000002,194.95759969999926,195.15747159999955,2,1,0.39220969999951194,194.95759969999926,None,None,None,False,None,None,None,None,None,None,None,None,None,None,None,None,,,,,,,,,,,,,,,,,,,,,,,,,,,,,,AG4EN28,1,0x5FB8,D:\CoScience\Logfiles\,2022_May_27_1215,Flanker,2020.1.3,59.937880381156035,
SSH HSS,SSHHHSS,10,H,,,,,,,,,0,0,0,0,4,6,54,7,,,,,,,0.7854579189414213,196.71083329999965,None,2,,,,,,,,,,,,,,214,210,219,196.37387599999965,196.47408689999975,196.45756569999867,196.65755379999973,4,0,0.22149480000007316,196.45756569999867,None,None,None,False,None,None,None,None,None,None,None,None,None,None,None,None,,,,,,,,,,,,,,,,,,,,,,,,,,,,,,AG4EN28,1,0x5FB8,D:\CoScience\Logfiles\,2022_May_27_1215,Flanker,2020.1.3,59.937880381156035,
HHH HHH,HHHSHHH,0,S,,,,,,,,,0,0,0,0,4,7,55,0,,,,,,,0.9581776596546818,197.94442909999998,None,4,,,,,,,,,,,,,,204,200,207,197.50830510000014,197.60746010000003,197.59090669999932,197.79082299999936,4,1,0.3221185999991576,197.59090669999932,None,None,None,False,None,None,None,None,None,None,None,None,None,None,None,None,,,,,,,,,,,,,,,,,,,,,,,,,,,,,,AG4EN28,1,0x5FB8,D:\CoScience\Logfiles\,2022_May_27_1215,Flanker,2020.1.3,59.937880381156035,
HHH HHH,HHHHHHH,30,H,,,,,,,,,0,0,0,0,4,8,56,10,,,,,,,0.8332730506664864,199.32771929999944,None,2,,,,,,,,,,,,,,234,230,237,198.90805739999996,199.00747539999975,198.99086999999963,199.1904347999989,2,1,0.30686530000093626,198.99086999999963,None,None,None,False,None,None,None,None,None,None,None,None,None,None,None,None,,,,,,,,,,,,,,,,,,,,,,,,,,,,,,AG4EN28,1,0x5FB8,D:\CoScience\Logfiles\,2022_May_27_1215,Flanker,2020.1.3,59.937880381156035,
SSS SSS,SSSSSSS,30,S,,,,,,,,,0,0,0,0,4,9,57,5,,,,,,,0.8016276344888713,200.57717419999972,None,4,,,,,,,,,,,,,,234,230,237,200.17542519999915,200.29080909999902,200.27423669999916,200.47422559999904,4,1,0.27250550000098883,200.27423669999916,None,None,None,False,None,None,None,None,None,None,None,None,None,None,None,None,,,,,,,,,,,,,,,,,,,,,,,,,,,,,,AG4EN28,1,0x5FB8,D:\CoScience\Logfiles\,2022_May_27_1215,Flanker,2020.1.3,59.937880381156035,
HHH HHH,HHHHHHH,30,H,,,,,,,,,0,0,0,0,4,10,58,10,,,,,,,0.9944946783450107,201.8111119999994,None,2,,,,,,,,,,,,,,234,230,237,201.39279519999945,201.5074558999986,201.49083509999946,201.69085239999913,2,1,0.2931570999990072,201.49083509999946,None,None,None,False,None,None,None,None,None,None,None,None,None,None,None,None,,,,,,,,,,,,,,,,,,,,,,,,,,,,,,AG4EN28,1,0x5FB8,D:\CoScience\Logfiles\,2022_May_27_1215,Flanker,2020.1.3,59.937880381156035,
HHH HHH,HHHHHHH,30,H,,,,,,,,,0,0,0,0,4,11,59,11,,,,,,,0.7585060946363552,203.1445592,None,2,,,,,,,,,,,,,,234,230,237,202.8074050999985,202.90748779999922,202.89091310000003,203.09082630000012,2,1,0.22396850000041013,202.89091310000003,None,None,None,False,None,None,None,None,None,None,None,None,None,None,None,None,,,,,,,,,,,,,,,,,,,,,,,,,,,,,,AG4EN28,1,0x5FB8,D:\CoScience\Logfiles\,2022_May_27_1215,Flanker,2020.1.3,59.937880381156035,
SSS SSS,SSSHSSS,0,H,,,,,,,,,0,0,0,0,5,0,60,6,,,,,,,0.8675195429762157,204.41085609999936,None,2,,,,,,,,,,,,,,204,200,207,203.90871159999915,204.02413179999894,204.00759649999964,204.20719629999985,2,1,0.37823480000042764,204.00759649999964,None,None,None,False,None,None,None,None,None,None,None,None,None,None,None,None,,,,,,,,,,,,,,,,,,,,,,,,,,,,,,AG4EN28,1,0x5FB8,D:\CoScience\Logfiles\,2022_May_27_1215,Flanker,2020.1.3,59.937880381156035,
SSS SSS,SSSSSSS,30,S,,,,,,,,,0,0,0,0,5,1,61,4,,,,,,,0.7572426120558194,205.64379459999873,None,4,,,,,,,,,,,,,,234,230,239,205.29194659999848,205.4073902,205.39077550000002,205.59088089999932,2,0,0.2189765000002808,205.39077550000002,None,None,None,False,None,None,None,None,None,None,None,None,None,None,None,None,,,,,,,,,,,,,,,,,,,,,,,,,,,,,,AG4EN28,1,0x5FB8,D:\CoScience\Logfiles\,2022_May_27_1215,Flanker,2020.1.3,59.937880381156035,
SSS SSS,SSSSSSS,30,S,,,,,,,,,0,0,0,0,5,2,62,3,,,,,,,0.9087426954501742,206.8936974999997,None,4,,,,,,,,,,,,,,234,230,237,206.40735569999924,206.52433109999947,206.49094139999943,206.69090399999914,4,1,0.36980269999912707,206.49094139999943,None,None,None,False,None,None,None,None,None,None,None,None,None,None,None,None,,,,,,,,,,,,,,,,,,,,,,,,,,,,,,AG4EN28,1,0x5FB8,D:\CoScience\Logfiles\,2022_May_27_1215,Flanker,2020.1.3,59.937880381156035,
HHH HHH,HHHHHHH,30,H,,,,,,,,,0,0,0,0,5,3,63,11,,,,,,,0.8620439743614211,208.1945624,None,2,,,,,,,,,,,,,,234,230,237,207.80960589999995,207.92416169999888,207.90758639999876,208.10754300000008,2,1,0.2661420000004,207.90758639999876,None,None,None,False,None,None,None,None,None,None,None,None,None,None,None,None,,,,,,,,,,,,,,,,,,,,,,,,,,,,,,AG4EN28,1,0x5FB8,D:\CoScience\Logfiles\,2022_May_27_1215,Flanker,2020.1.3,59.937880381156035,
SSS SSS,SSSSSSS,30,S,,,,,,,,,0,0,0,0,5,4,64,3,,,,,,,0.8264545776281809,209.47686299999987,None,4,,,,,,,,,,,,,,234,230,237,209.05871019999904,209.17412999999942,209.15758629999982,209.35753879999902,4,1,0.29916989999946964,209.15758629999982,None,None,None,False,None,None,None,None,None,None,None,None,None,None,None,None,,,,,,,,,,,,,,,,,,,,,,,,,,,,,,AG4EN28,1,0x5FB8,D:\CoScience\Logfiles\,2022_May_27_1215,Flanker,2020.1.3,59.937880381156035,
HHH HHH,HHHHHHH,30,H,,,,,,,,,0,0,0,0,5,5,65,10,,,,,,,0.8519800244035827,210.67744499999935,None,2,,,,,,,,,,,,,,234,230,237,210.30857319999996,210.4241220999993,210.40754789999846,210.6075852999984,2,1,0.2461246000002575,210.40754789999846,None,None,None,False,None,None,None,None,None,None,None,None,None,None,None,None,,,,,,,,,,,,,,,,,,,,,,,,,,,,,,AG4EN28,1,0x5FB8,D:\CoScience\Logfiles\,2022_May_27_1215,Flanker,2020.1.3,59.937880381156035,
SHH HHS,SHHHHHS,20,H,,,,,,,,,0,0,0,0,5,6,66,8,,,,,,,0.8357917627381789,211.9944953999984,None,2,,,,,,,,,,,,,,224,220,227,211.54188339999928,211.64097559999936,211.64097559999936,211.84098119999908,2,1,0.3288591999989876,211.64097559999936,None,None,None,False,None,None,None,None,None,None,None,None,None,None,None,None,,,,,,,,,,,,,,,,,,,,,,,,,,,,,,AG4EN28,1,0x5FB8,D:\CoScience\Logfiles\,2022_May_27_1215,Flanker,2020.1.3,59.937880381156035,
SSS SSS,SSSSSSS,30,S,,,,,,,,,0,0,0,0,5,7,67,5,,,,,,,0.8851992428555702,213.22817439999926,None,4,,,,,,,,,,,,,,234,230,237,212.84200579999924,212.95745589999933,212.94097729999885,213.14087349999863,4,1,0.2627245999992738,212.94097729999885,None,None,None,False,None,None,None,None,None,None,None,None,None,None,None,None,,,,,,,,,,,,,,,,,,,,,,,,,,,,,,AG4EN28,1,0x5FB8,D:\CoScience\Logfiles\,2022_May_27_1215,Flanker,2020.1.3,59.937880381156035,
HSS SSH,HSSSSSH,20,S,,,,,,,,,0,0,0,0,5,8,68,2,,,,,,,0.9899513794149933,214.56094929999927,None,4,,,,,,,,,,,,,,224,220,227,214.12527640000008,214.24079960000017,214.22408170000017,214.42417479999858,4,1,0.30562800000006973,214.22408170000017,None,None,None,False,None,None,None,None,None,None,None,None,None,None,None,None,,,,,,,,,,,,,,,,,,,,,,,,,,,,,,AG4EN28,1,0x5FB8,D:\CoScience\Logfiles\,2022_May_27_1215,Flanker,2020.1.3,59.937880381156035,
SSH HSS,SSHHHSS,10,H,,,,,,,,,0,0,0,0,5,9,69,7,,,,,,,0.8834655335378027,215.8776901000001,None,2,,,,,,,,,,,,,,214,210,219,215.55772549999892,215.65715689999888,215.65715689999888,215.85765739999988,4,0,0.1985597000002599,215.65715689999888,None,None,None,False,None,None,None,None,None,None,None,None,None,None,None,None,,,,,,,,,,,,,,,,,,,,,,,,,,,,,,AG4EN28,1,0x5FB8,D:\CoScience\Logfiles\,2022_May_27_1215,Flanker,2020.1.3,59.937880381156035,
HHS SHH,HHSSSHH,10,S,,,,,,,,,0,0,0,0,5,10,70,1,,,,,,,0.8601471889523096,217.19411479999872,None,4,,,,,,,,,,,,,,214,210,217,216.77535419999913,216.89085389999855,216.87424109999847,217.07426589999886,4,1,0.2864375999997719,216.87424109999847,None,None,None,False,None,None,None,None,None,None,None,None,None,None,None,None,,,,,,,,,,,,,,,,,,,,,,,,,,,,,,AG4EN28,1,0x5FB8,D:\CoScience\Logfiles\,2022_May_27_1215,Flanker,2020.1.3,59.937880381156035,
SSS SSS,SSSSSSS,30,S,,,,,,,,,0,0,0,0,5,11,71,5,,,,,,,0.8015017969722056,218.44209039999987,None,4,,,,,,,,,,,,,,234,230,237,218.05883659999927,218.17415139999866,218.1574755999991,218.35749459999897,4,1,0.25322159999996074,218.1574755999991,None,None,None,False,None,None,None,None,None,None,None,None,None,None,None,None,,,,,,,,,,,,,,,,,,,,,,,,,,,,,,AG4EN28,1,0x5FB8,D:\CoScience\Logfiles\,2022_May_27_1215,Flanker,2020.1.3,59.937880381156035,
SHH HHS,SHHHHHS,20,H,,,,,,,,,0,0,0,0,6,0,72,8,,,,,,,0.752294882747929,219.6445036999994,None,2,,,,,,,,,,,,,,224,220,227,219.25886910000008,219.3741917999996,219.35740519999854,219.5575375999997,2,1,0.25847520000024815,219.35740519999854,None,None,None,False,None,None,None,None,None,None,None,None,None,None,None,None,,,,,,,,,,,,,,,,,,,,,,,,,,,,,,AG4EN28,1,0x5FB8,D:\CoScience\Logfiles\,2022_May_27_1215,Flanker,2020.1.3,59.937880381156035,
HSS SSH,HSSSSSH,20,S,,,,,,,,,0,0,0,0,6,1,73,2,,,,,,,0.9538332269895642,220.8445632999992,None,4,,,,,,,,,,,,,,224,220,227,220.40784840000015,220.50723469999866,220.50723469999866,220.70751989999917,4,1,0.3144780999991781,220.50723469999866,None,None,None,False,None,None,None,None,None,None,None,None,None,None,None,None,,,,,,,,,,,,,,,,,,,,,,,,,,,,,,AG4EN28,1,0x5FB8,D:\CoScience\Logfiles\,2022_May_27_1215,Flanker,2020.1.3,59.937880381156035,
SHH HHS,SHHHHHS,20,H,,,,,,,,,0,0,0,0,6,2,74,8,,,,,,,0.8710491174027708,222.09444369999983,None,2,,,,,,,,,,,,,,224,220,227,221.80807859999913,221.90755009999884,221.90755009999884,None,2,1,0.1602333999999246,221.90755009999884,None,None,None,False,None,None,None,None,None,None,None,None,None,None,None,None,,,,,,,,,,,,,,,,,,,,,,,,,,,,,,AG4EN28,1,0x5FB8,D:\CoScience\Logfiles\,2022_May_27_1215,Flanker,2020.1.3,59.937880381156035,
HHS SHH,HHSSSHH,10,S,,,,,,,,,0,0,0,0,6,3,75,1,,,,,,,0.9141185620315082,223.32766049999918,None,4,,,,,,,,,,,,,,214,210,217,222.97542909999902,223.09082989999843,223.0742182999984,223.2741780999986,4,1,0.23456090000036056,223.0742182999984,None,None,None,False,None,None,None,None,None,None,None,None,None,None,None,None,,,,,,,,,,,,,,,,,,,,,,,,,,,,,,AG4EN28,1,0x5FB8,D:\CoScience\Logfiles\,2022_May_27_1215,Flanker,2020.1.3,59.937880381156035,
HHS SHH,HHSSSHH,10,S,,,,,,,,,0,0,0,0,6,4,76,1,,,,,,,0.890452162346407,224.66115899999932,None,4,,,,,,,,,,,,,,214,210,217,224.25735369999893,224.3574353999993,224.34086769999885,224.54083399999945,4,1,0.30182369999965886,224.34086769999885,None,None,None,False,None,None,None,None,None,None,None,None,None,None,None,None,,,,,,,,,,,,,,,,,,,,,,,,,,,,,,AG4EN28,1,0x5FB8,D:\CoScience\Logfiles\,2022_May_27_1215,Flanker,2020.1.3,59.937880381156035,
HSS SSH,HSSSSSH,20,S,,,,,,,,,0,0,0,0,6,5,77,2,,,,,,,0.8533477453620258,225.92717529999936,None,4,,,,,,,,,,,,,,224,220,227,225.55852839999898,225.6740293999992,225.6575611999997,225.8575535,4,1,0.2511950000007346,225.6575611999997,None,None,None,False,None,None,None,None,None,None,None,None,None,None,None,None,,,,,,,,,,,,,,,,,,,,,,,,,,,,,,AG4EN28,1,0x5FB8,D:\CoScience\Logfiles\,2022_May_27_1215,Flanker,2020.1.3,59.937880381156035,
HHH HHH,HHHHHHH,30,H,,,,,,,,,0,0,0,0,6,6,78,11,,,,,,,0.9676217712623554,227.1275597999993,None,2,,,,,,,,,,,,,,234,230,237,226.79174160000002,226.90743159999874,226.89044209999884,227.09086469999966,2,1,0.2093074999993405,226.89044209999884,None,None,None,False,None,None,None,None,None,None,None,None,None,None,None,None,,,,,,,,,,,,,,,,,,,,,,,,,,,,,,AG4EN28,1,0x5FB8,D:\CoScience\Logfiles\,2022_May_27_1215,Flanker,2020.1.3,59.937880381156035,
SSS SSS,SSSHSSS,0,H,,,,,,,,,0,0,0,0,6,7,79,6,,,,,,,0.8350493717877976,228.4431872999994,None,2,,,,,,,,,,,,,,204,200,209,228.10869569999886,228.22408389999873,228.2074279999997,228.4075157999996,4,0,0.21719339999981457,228.2074279999997,None,None,None,False,None,None,None,None,None,None,None,None,None,None,None,None,,,,,,,,,,,,,,,,,,,,,,,,,,,,,,AG4EN28,1,0x5FB8,D:\CoScience\Logfiles\,2022_May_27_1215,Flanker,2020.1.3,59.937880381156035,
SSS SSS,SSSSSSS,30,S,,,,,,,,,0,0,0,0,6,8,80,3,,,,,,,0.9352477621798195,229.7109335999994,None,4,,,,,,,,,,,,,,234,230,237,229.3052606000001,229.40742209999917,229.39089579999927,229.59089399999903,4,1,0.286815999999817,229.39089579999927,None,None,None,False,None,None,None,None,None,None,None,None,None,None,None,None,,,,,,,,,,,,,,,,,,,,,,,,,,,,,,AG4EN28,1,0x5FB8,D:\CoScience\Logfiles\,2022_May_27_1215,Flanker,2020.1.3,59.937880381156035,
HHH HHH,HHHHHHH,30,H,,,,,,,,,0,0,0,0,6,9,81,9,,,,,,,0.8901572693221581,231.04351489999863,None,2,,,,,,,,,,,,,,234,230,237,230.65843659999882,230.75751469999886,230.75751469999886,230.95755349999854,2,1,0.26349839999966207,230.75751469999886,None,None,None,False,None,None,None,None,None,None,None,None,None,None,None,None,,,,,,,,,,,,,,,,,,,,,,,,,,,,,,AG4EN28,1,0x5FB8,D:\CoScience\Logfiles\,2022_May_27_1215,Flanker,2020.1.3,59.937880381156035,
HHH HHH,HHHHHHH,30,H,,,,,,,,,0,0,0,0,6,10,82,11,,,,,,,0.7727591927394729,232.3442419999992,None,2,,,,,,,,,,,,,,234,230,237,231.9408203999992,232.04076819999864,232.02408419999847,232.22403589999885,2,1,0.297638599999118,232.02408419999847,None,None,None,False,None,None,None,None,None,None,None,None,None,None,None,None,,,,,,,,,,,,,,,,,,,,,,,,,,,,,,AG4EN28,1,0x5FB8,D:\CoScience\Logfiles\,2022_May_27_1215,Flanker,2020.1.3,59.937880381156035,
SHH HHS,SHHHHHS,20,H,,,,,,,,,0,0,0,0,6,11,83,8,,,,,,,0.7551763179471319,233.55694819999917,None,2,,,,,,,,,,,,,,224,220,227,233.1249801999984,233.22429059999922,233.22429059999922,233.43956009999965,2,1,0.3130698000004486,233.22429059999922,None,None,None,False,None,None,None,None,None,None,None,None,None,None,None,None,,,,,,,,,,,,,,,,,,,,,,,,,,,,,,AG4EN28,1,0x5FB8,D:\CoScience\Logfiles\,2022_May_27_1215,Flanker,2020.1.3,59.937880381156035,
SSS SSS,SSSSSSS,30,S,,,,,,,,,0,0,0,0,7,0,84,5,,,,,,,0.9493871363738746,234.69448740000007,None,4,,,,,,,,,,,,,,234,230,237,234.32531860000017,234.44080269999904,234.42434349999894,234.62408049999976,4,1,0.25045520000094257,234.42434349999894,None,None,None,False,None,None,None,None,None,None,None,None,None,None,None,None,,,,,,,,,,,,,,,,,,,,,,,,,,,,,,AG4EN28,1,0x5FB8,D:\CoScience\Logfiles\,2022_May_27_1215,Flanker,2020.1.3,59.937880381156035,
SSS SSS,SSSSSSS,30,S,,,,,,,,,0,0,0,0,7,1,85,4,,,,,,,0.8149546864650761,236.04448199999933,None,4,,,,,,,,,,,,,,234,230,237,235.65730219999932,235.75749019999967,235.74084459999904,235.9405124999994,4,1,0.2761052000005293,235.74084459999904,None,None,None,False,None,None,None,None,None,None,None,None,None,None,None,None,,,,,,,,,,,,,,,,,,,,,,,,,,,,,,AG4EN28,1,0x5FB8,D:\CoScience\Logfiles\,2022_May_27_1215,Flanker,2020.1.3,59.937880381156035,
SSH HSS,SSHHHSS,10,H,,,,,,,,,0,0,0,0,7,2,86,7,,,,,,,0.8289764695333617,237.2109548999997,None,2,,,,,,,,,,,,,,214,210,217,236.8749943999992,236.97428239999863,236.97428239999863,237.17409749999933,2,1,0.21391790000052424,236.97428239999863,None,None,None,False,None,None,None,None,None,None,None,None,None,None,None,None,,,,,,,,,,,,,,,,,,,,,,,,,,,,,,AG4EN28,1,0x5FB8,D:\CoScience\Logfiles\,2022_May_27_1215,Flanker,2020.1.3,59.937880381156035,
SSS SSS,SSSSSSS,30,S,,,,,,,,,0,0,0,0,7,3,87,3,,,,,,,0.8517993947588789,238.5265313,None,4,,,,,,,,,,,,,,234,230,237,238.04126039999937,238.1408625999993,238.1408625999993,238.34090109999852,4,1,0.355363300001045,238.1408625999993,None,None,None,False,None,None,None,None,None,None,None,None,None,None,None,None,,,,,,,,,,,,,,,,,,,,,,,,,,,,,,AG4EN28,1,0x5FB8,D:\CoScience\Logfiles\,2022_May_27_1215,Flanker,2020.1.3,59.937880381156035,
HHH HHH,HHHHHHH,30,H,,,,,,,,,0,0,0,0,7,4,88,10,,,,,,,0.9731114588516995,239.86138969999956,None,2,,,,,,,,,,,,,,234,230,237,239.39204289999907,239.50742639999953,239.4908222999984,239.6904025999993,2,1,0.3398388999994495,239.4908222999984,None,None,None,False,None,None,None,None,None,None,None,None,None,None,None,None,,,,,,,,,,,,,,,,,,,,,,,,,,,,,,AG4EN28,1,0x5FB8,D:\CoScience\Logfiles\,2022_May_27_1215,Flanker,2020.1.3,59.937880381156035,
SSS SSS,SSSSSSS,30,S,,,,,,,,,0,0,0,0,7,5,89,4,,,,,,,0.784451408434637,241.1777674999994,None,4,,,,,,,,,,,,,,234,230,237,240.84199289999924,240.95746270000018,240.94087089999994,241.1408397999985,4,1,0.2090009999992617,240.94087089999994,None,None,None,False,None,None,None,None,None,None,None,None,None,None,None,None,,,,,,,,,,,,,,,,,,,,,,,,,,,,,,AG4EN28,1,0x5FB8,D:\CoScience\Logfiles\,2022_May_27_1215,Flanker,2020.1.3,59.937880381156035,
SSS SSS,SSSSSSS,30,S,,,,,,,,,0,0,0,0,7,6,90,3,,,,,,,0.868561317570759,242.39441269999952,None,4,,,,,,,,,,,,,,234,230,237,241.97399309999855,242.07419889999983,242.05752239999856,242.25752869999997,4,1,0.304523099999642,242.05752239999856,None,None,None,False,None,None,None,None,None,None,None,None,None,None,None,None,,,,,,,,,,,,,,,,,,,,,,,,,,,,,,AG4EN28,1,0x5FB8,D:\CoScience\Logfiles\,2022_May_27_1215,Flanker,2020.1.3,59.937880381156035,
SSS SSS,SSSSSSS,30,S,,,,,,,,,0,0,0,0,7,7,91,3,,,,,,,0.8593744049969183,243.6276762999987,None,4,,,,,,,,,,,,,,234,230,237,243.27395019999858,243.3741298999994,243.3575392999992,243.55749189999915,4,1,0.23609480000050098,243.3575392999992,None,None,None,False,None,None,None,None,None,None,None,None,None,None,None,None,,,,,,,,,,,,,,,,,,,,,,,,,,,,,,AG4EN28,1,0x5FB8,D:\CoScience\Logfiles\,2022_May_27_1215,Flanker,2020.1.3,59.937880381156035,
SSS SSS,SSSSSSS,30,S,,,,,,,,,0,0,0,0,7,8,92,5,,,,,,,0.8314758819409281,244.9274749999986,None,4,,,,,,,,,,,,,,234,230,237,244.4906532999994,244.5906673999998,244.5741524999994,244.7742092999997,4,1,0.32251589999941643,244.5741524999994,None,None,None,False,None,None,None,None,None,None,None,None,None,None,None,None,,,,,,,,,,,,,,,,,,,,,,,,,,,,,,AG4EN28,1,0x5FB8,D:\CoScience\Logfiles\,2022_May_27_1215,Flanker,2020.1.3,59.937880381156035,
SSS SSS,SSSSSSS,30,S,,,,,,,,,0,0,0,0,7,9,93,5,,,,,,,0.7759559788050209,246.10937279999962,None,4,,,,,,,,,,,,,,234,230,237,245.7739786000002,245.87404929999866,245.8569899999984,246.0569792999995,4,1,0.2236957999994047,245.8569899999984,None,None,None,False,None,None,None,None,None,None,None,None,None,None,None,None,,,,,,,,,,,,,,,,,,,,,,,,,,,,,,AG4EN28,1,0x5FB8,D:\CoScience\Logfiles\,2022_May_27_1215,Flanker,2020.1.3,59.937880381156035,
SSS SSS,SSSHSSS,0,H,,,,,,,,,0,0,0,0,7,10,94,6,,,,,,,0.8633573664413583,247.37720139999874,None,2,,,,,,,,,,,,,,204,200,207,246.89184939999905,246.99070409999877,246.97423589999926,247.17417769999884,2,1,0.37342569999964326,246.97423589999926,None,None,None,False,None,None,None,None,None,None,None,None,None,None,None,None,,,,,,,,,,,,,,,,,,,,,,,,,,,,,,AG4EN28,1,0x5FB8,D:\CoScience\Logfiles\,2022_May_27_1215,Flanker,2020.1.3,59.937880381156035,
HHH HHH,HHHHHHH,30,H,,,,,,,,,0,0,0,0,7,11,95,10,,,,,,,0.761323375781363,277.1408427999995,None,2,,,,,,,,,,,,,,234,230,239,248.24205509999956,248.35742869999922,248.34083779999855,248.54086969999844,4,0,0.22694770000089193,248.34083779999855,None,None,None,False,None,None,None,None,None,248.59931049999977,None,space,250.5904937999985,None,277.0260354999991,None,,26.413161599999512,,,,,,,,,,,,,,,,,,,,,,,,,,,,AG4EN28,1,0x5FB8,D:\CoScience\Logfiles\,2022_May_27_1215,Flanker,2020.1.3,59.937880381156035,
SHH HHS,SHHHHHS,20,H,,,,,,,,,0,0,0,0,8,0,96,8,,,,,,,0.9210583434734912,278.4263823000001,None,2,,,,,,,,,,,,,,224,220,227,277.90847009999925,278.02404279999973,278.00746759999856,278.20747709999887,2,1,0.3913979000008112,278.00746759999856,None,None,None,False,None,None,None,None,None,None,None,None,None,None,None,None,,,,,,,,,,,,,,,,,,,,,,,,,,,,,,AG4EN28,1,0x5FB8,D:\CoScience\Logfiles\,2022_May_27_1215,Flanker,2020.1.3,59.937880381156035,
HHH HHH,HHHHHHH,30,H,,,,,,,,,0,0,0,0,8,1,97,9,,,,,,,0.8961496921549256,279.72755529999995,None,2,,,,,,,,,,,,,,234,230,237,279.3582917999993,279.4575851999998,279.4575851999998,279.657473199999,2,1,0.25117080000018177,279.4575851999998,None,None,None,False,None,None,None,None,None,None,None,None,None,None,None,None,,,,,,,,,,,,,,,,,,,,,,,,,,,,,,AG4EN28,1,0x5FB8,D:\CoScience\Logfiles\,2022_May_27_1215,Flanker,2020.1.3,59.937880381156035,
HSS SSH,HSSSSSH,20,S,,,,,,,,,0,0,0,0,8,2,98,2,,,,,,,0.764976554087167,281.01111989999845,None,4,,,,,,,,,,,,,,224,220,229,280.62495559999843,280.7240468,280.7240468,280.92424149999897,2,0,0.264154000000417,280.7240468,None,None,None,False,None,None,None,None,None,None,None,None,None,None,None,None,,,,,,,,,,,,,,,,,,,,,,,,,,,,,,AG4EN28,1,0x5FB8,D:\CoScience\Logfiles\,2022_May_27_1215,Flanker,2020.1.3,59.937880381156035,
SSS SSS,SSSSSSS,30,S,,,,,,,,,0,0,0,0,8,3,99,5,,,,,,,0.8062984579498045,282.2445897999987,None,4,,,,,,,,,,,,,,234,230,239,281.7919101999996,281.9074127999993,281.8908802999995,282.09021570000004,2,0,0.32682519999980286,281.8908802999995,None,None,None,False,None,None,None,None,None,None,None,None,None,None,None,None,,,,,,,,,,,,,,,,,,,,,,,,,,,,,,AG4EN28,1,0x5FB8,D:\CoScience\Logfiles\,2022_May_27_1215,Flanker,2020.1.3,59.937880381156035,
SSH HSS,SSHHHSS,10,H,,,,,,,,,0,0,0,0,8,4,100,7,,,,,,,0.9099864009296156,283.44412209999973,None,2,,,,,,,,,,,,,,214,210,217,283.0585566999998,283.17394929999864,283.15747869999905,283.3574282999998,2,1,0.2561433999999281,283.15747869999905,None,None,None,False,None,None,None,None,None,None,None,None,None,None,None,None,,,,,,,,,,,,,,,,,,,,,,,,,,,,,,AG4EN28,1,0x5FB8,D:\CoScience\Logfiles\,2022_May_27_1215,Flanker,2020.1.3,59.937880381156035,
SSS SSS,SSSHSSS,0,H,,,,,,,,,0,0,0,0,8,5,101,6,,,,,,,0.8661725799319422,284.7444070999991,None,2,,,,,,,,,,,,,,204,200,209,284.3578645999987,284.4574823999992,284.4574823999992,284.6574722999994,4,0,0.25725760000023,284.4574823999992,None,None,None,False,None,None,None,None,None,None,None,None,None,None,None,None,,,,,,,,,,,,,,,,,,,,,,,,,,,,,,AG4EN28,1,0x5FB8,D:\CoScience\Logfiles\,2022_May_27_1215,Flanker,2020.1.3,59.937880381156035,
HSS SSH,HSSSSSH,20,S,,,,,,,,,0,0,0,0,8,6,102,2,,,,,,,0.9040772033583011,285.9777355999995,None,4,,,,,,,,,,,,,,224,220,227,285.6254855999996,285.74065229999906,285.7240880999998,285.92412689999946,4,1,0.23156849999941187,285.7240880999998,None,None,None,False,None,None,None,None,None,None,None,None,None,None,None,None,,,,,,,,,,,,,,,,,,,,,,,,,,,,,,AG4EN28,1,0x5FB8,D:\CoScience\Logfiles\,2022_May_27_1215,Flanker,2020.1.3,59.937880381156035,
SSS SSS,SSSSSSS,30,S,,,,,,,,,0,0,0,0,8,7,103,4,,,,,,,0.8045074841895754,287.3435907999992,None,4,,,,,,,,,,,,,,234,230,237,286.89178469999933,286.9908848999985,286.9908848999985,287.1908356999993,4,1,0.32571830000051705,286.9908848999985,None,None,None,False,None,None,None,None,None,None,None,None,None,None,None,None,,,,,,,,,,,,,,,,,,,,,,,,,,,,,,AG4EN28,1,0x5FB8,D:\CoScience\Logfiles\,2022_May_27_1215,Flanker,2020.1.3,59.937880381156035,
HHH HHH,HHHHHHH,30,H,,,,,,,,,0,0,0,0,8,8,104,10,,,,,,,0.8169378300867128,288.66106169999875,None,2,,,,,,,,,,,,,,234,230,237,288.15832789999877,288.2573993999995,288.2573993999995,288.4573974999985,2,1,0.3691841999989265,288.2573993999995,None,None,None,False,None,None,None,None,None,None,None,None,None,None,None,None,,,,,,,,,,,,,,,,,,,,,,,,,,,,,,AG4EN28,1,0x5FB8,D:\CoScience\Logfiles\,2022_May_27_1215,Flanker,2020.1.3,59.937880381156035,
SSS SSS,SSSSSSS,30,S,,,,,,,,,0,0,0,0,8,9,105,3,,,,,,,0.9563333709371454,289.8444161999996,None,4,,,,,,,,,,,,,,234,230,237,289.49180889999843,289.59082019999914,289.59082019999914,289.79079739999906,4,1,0.22081270000126096,289.59082019999914,None,None,None,False,None,None,None,None,None,None,None,None,None,None,None,None,,,,,,,,,,,,,,,,,,,,,,,,,,,,,,AG4EN28,1,0x5FB8,D:\CoScience\Logfiles\,2022_May_27_1215,Flanker,2020.1.3,59.937880381156035,
SHH HHS,SHHHHHS,20,H,,,,,,,,,0,0,0,0,8,10,106,8,,,,,,,0.839522662490099,291.1611002999998,None,2,,,,,,,,,,,,,,224,220,229,290.8084323999992,290.90748879999956,290.90748879999956,291.10746889999973,4,0,0.2352420000006532,290.90748879999956,None,None,None,False,None,None,None,None,None,None,None,None,None,None,None,None,,,,,,,,,,,,,,,,,,,,,,,,,,,,,,AG4EN28,1,0x5FB8,D:\CoScience\Logfiles\,2022_May_27_1215,Flanker,2020.1.3,59.937880381156035,
SSS SSS,SSSHSSS,0,H,,,,,,,,,0,0,0,0,8,11,107,6,,,,,,,0.8423048791395674,292.34415759999865,None,2,,,,,,,,,,,,,,204,200,207,292.00836829999935,292.1074254999985,292.1074254999985,292.3074239999987,2,1,0.21520060000148078,292.1074254999985,None,None,None,False,None,None,None,None,None,None,None,None,None,None,None,None,,,,,,,,,,,,,,,,,,,,,,,,,,,,,,AG4EN28,1,0x5FB8,D:\CoScience\Logfiles\,2022_May_27_1215,Flanker,2020.1.3,59.937880381156035,
SSS SSS,SSSHSSS,0,H,,,,,,,,,0,0,0,0,9,0,108,6,,,,,,,0.8235552690094206,293.56085579999854,None,2,,,,,,,,,,,,,,204,200,209,293.19054959999994,293.29022409999925,293.2741412999985,293.4741568999998,4,0,0.2584520000000339,293.2741412999985,None,None,None,False,None,None,None,None,None,None,None,None,None,None,None,None,,,,,,,,,,,,,,,,,,,,,,,,,,,,,,AG4EN28,1,0x5FB8,D:\CoScience\Logfiles\,2022_May_27_1215,Flanker,2020.1.3,59.937880381156035,
SSS SSS,SSSSSSS,30,S,,,,,,,,,0,0,0,0,9,1,109,3,,,,,,,0.987698384996762,294.7443336999986,None,4,,,,,,,,,,,,,,234,230,239,294.4053989999993,294.50728100000015,294.49088109999866,294.6904377999999,2,0,0.23078509999868402,294.49088109999866,None,None,None,False,None,None,None,None,None,None,None,None,None,None,None,None,,,,,,,,,,,,,,,,,,,,,,,,,,,,,,AG4EN28,1,0x5FB8,D:\CoScience\Logfiles\,2022_May_27_1215,Flanker,2020.1.3,59.937880381156035,
SSH HSS,SSHHHSS,10,H,,,,,,,,,0,0,0,0,9,2,110,7,,,,,,,0.8135427352759456,296.11042049999924,None,2,,,,,,,,,,,,,,214,210,217,295.7420449000001,295.85728629999903,295.840825199999,296.0408219000001,2,1,0.24718380000012985,295.840825199999,None,None,None,False,None,None,None,None,None,None,None,None,None,None,None,None,,,,,,,,,,,,,,,,,,,,,,,,,,,,,,AG4EN28,1,0x5FB8,D:\CoScience\Logfiles\,2022_May_27_1215,Flanker,2020.1.3,59.937880381156035,
HHH HHH,HHHHHHH,30,H,,,,,,,,,0,0,0,0,9,3,111,11,,,,,,,0.9592053730981032,297.394359599999,None,2,,,,,,,,,,,,,,234,230,237,296.9249446999984,297.0241685000001,297.0241685000001,297.22414969999954,2,1,0.3504161999990174,297.0241685000001,None,None,None,False,None,None,None,None,None,None,None,None,None,None,None,None,,,,,,,,,,,,,,,,,,,,,,,,,,,,,,AG4EN28,1,0x5FB8,D:\CoScience\Logfiles\,2022_May_27_1215,Flanker,2020.1.3,59.937880381156035,
HHH HHH,HHHSHHH,0,S,,,,,,,,,0,0,0,0,9,4,112,0,,,,,,,0.8319040188578445,298.8443893999993,None,4,,,,,,,,,,,,,,204,200,207,298.3581435999986,298.4572852000001,298.4407510000001,298.6407712,4,1,0.3848422999999457,298.4407510000001,None,None,None,False,None,None,None,None,None,None,None,None,None,None,None,None,,,,,,,,,,,,,,,,,,,,,,,,,,,,,,AG4EN28,1,0x5FB8,D:\CoScience\Logfiles\,2022_May_27_1215,Flanker,2020.1.3,59.937880381156035,
HHH HHH,HHHHHHH,30,H,,,,,,,,,0,0,0,0,9,5,113,9,,,,,,,0.9804148490150828,299.97663939999984,None,2,,,,,,,,,,,,,,234,230,237,299.6911629999995,299.79067589999977,299.77413199999864,None,2,1,0.17755179999949178,299.77413199999864,None,None,None,False,None,None,None,None,None,None,None,None,None,None,None,None,,,,,,,,,,,,,,,,,,,,,,,,,,,,,,AG4EN28,1,0x5FB8,D:\CoScience\Logfiles\,2022_May_27_1215,Flanker,2020.1.3,59.937880381156035,
HHS SHH,HHSSSHH,10,S,,,,,,,,,0,0,0,0,9,6,114,1,,,,,,,0.7695595107552,301.2942433999997,None,4,,,,,,,,,,,,,,214,210,217,300.959426899999,301.07405689999905,301.0575599999993,301.2574955,4,1,0.2169629999989411,301.0575599999993,None,None,None,False,None,None,None,None,None,None,None,None,None,None,None,None,,,,,,,,,,,,,,,,,,,,,,,,,,,,,,AG4EN28,1,0x5FB8,D:\CoScience\Logfiles\,2022_May_27_1215,Flanker,2020.1.3,59.937880381156035,
HHS SHH,HHSSSHH,10,S,,,,,,,,,0,0,0,0,9,7,115,1,,,,,,,0.7680210076727072,302.4110669999991,None,4,,,,,,,,,,,,,,214,210,219,302.07399169999917,302.17360089999966,302.15696109999953,302.35745209999914,2,0,0.23279329999968468,302.15696109999953,None,None,None,False,None,None,None,None,None,None,None,None,None,None,None,None,,,,,,,,,,,,,,,,,,,,,,,,,,,,,,AG4EN28,1,0x5FB8,D:\CoScience\Logfiles\,2022_May_27_1215,Flanker,2020.1.3,59.937880381156035,
HHH HHH,HHHHHHH,30,H,,,,,,,,,0,0,0,0,9,8,116,11,,,,,,,0.835137397155986,303.5928824999992,None,2,,,,,,,,,,,,,,234,230,237,303.19200679999994,303.30734219999977,303.290800499999,303.49041699999907,2,1,0.2698387999989791,303.290800499999,None,None,None,False,None,None,None,None,None,None,None,None,None,None,None,None,,,,,,,,,,,,,,,,,,,,,,,,,,,,,,AG4EN28,1,0x5FB8,D:\CoScience\Logfiles\,2022_May_27_1215,Flanker,2020.1.3,59.937880381156035,
HHH HHH,HHHHHHH,30,H,,,,,,,,,0,0,0,0,9,9,117,10,,,,,,,0.7811565530014467,304.81095389999973,None,2,,,,,,,,,,,,,,234,230,237,304.4406326999997,304.5407243999998,304.52402789999906,304.7240196999992,2,1,0.2639937000003556,304.52402789999906,None,None,None,False,None,None,None,None,None,None,None,None,None,None,None,None,,,,,,,,,,,,,,,,,,,,,,,,,,,,,,AG4EN28,1,0x5FB8,D:\CoScience\Logfiles\,2022_May_27_1215,Flanker,2020.1.3,59.937880381156035,
SHH HHS,SHHHHHS,20,H,,,,,,,,,0,0,0,0,9,10,118,8,,,,,,,0.8814439202235236,306.0939724,None,2,,,,,,,,,,,,,,224,220,227,305.60939979999966,305.72390819999964,305.7075098999994,305.9074241999988,2,1,0.3672281999988627,305.7075098999994,None,None,None,False,None,None,None,None,None,None,None,None,None,None,None,None,,,,,,,,,,,,,,,,,,,,,,,,,,,,,,AG4EN28,1,0x5FB8,D:\CoScience\Logfiles\,2022_May_27_1215,Flanker,2020.1.3,59.937880381156035,
SSS SSS,SSSSSSS,30,S,,,,,,,,,0,0,0,0,9,11,119,4,,,,,,,0.855674913099531,307.39366469999914,None,4,,,,,,,,,,,,,,234,230,237,306.9908684000002,307.09072259999994,307.0740588999997,307.2741538999999,4,1,0.29769190000115486,307.0740588999997,None,None,None,False,None,None,None,None,None,None,None,None,None,None,None,None,,,,,,,,,,,,,,,,,,,,,,,,,,,,,,AG4EN28,1,0x5FB8,D:\CoScience\Logfiles\,2022_May_27_1215,Flanker,2020.1.3,59.937880381156035,
SHH HHS,SHHHHHS,20,H,,,,,,,,,0,0,0,0,10,0,120,8,,,,,,,0.753051406652439,308.7611677999994,None,2,,,,,,,,,,,,,,224,220,227,308.25856909999857,308.3739498999985,308.35750539999935,308.55745149999893,2,1,0.3831138999994437,308.35750539999935,None,None,None,False,None,None,None,None,None,None,None,None,None,None,None,None,,,,,,,,,,,,,,,,,,,,,,,,,,,,,,AG4EN28,1,0x5FB8,D:\CoScience\Logfiles\,2022_May_27_1215,Flanker,2020.1.3,59.937880381156035,
SSS SSS,SSSSSSS,30,S,,,,,,,,,0,0,0,0,10,1,121,4,,,,,,,0.9869998258755246,309.8943303999986,None,4,,,,,,,,,,,,,,234,230,237,309.5252227000001,309.64054020000003,309.62400389999857,309.82413089999864,4,1,0.2356190999998944,309.62400389999857,None,None,None,False,None,None,None,None,None,None,None,None,None,None,None,None,,,,,,,,,,,,,,,,,,,,,,,,,,,,,,AG4EN28,1,0x5FB8,D:\CoScience\Logfiles\,2022_May_27_1215,Flanker,2020.1.3,59.937880381156035,
HHH HHH,HHHHHHH,30,H,,,,,,,,,0,0,0,0,10,2,122,11,,,,,,,0.822710200363048,311.2443136999991,None,2,,,,,,,,,,,,,,234,230,237,310.89222639999934,311.00736379999944,310.9903798999985,311.1908160999992,2,1,0.22318540000014764,310.9903798999985,None,None,None,False,None,None,None,None,None,None,None,None,None,None,None,None,,,,,,,,,,,,,,,,,,,,,,,,,,,,,,AG4EN28,1,0x5FB8,D:\CoScience\Logfiles\,2022_May_27_1215,Flanker,2020.1.3,59.937880381156035,
SHH HHS,SHHHHHS,20,H,,,,,,,,,0,0,0,0,10,3,123,8,,,,,,,0.9409212973514651,312.5611207000002,None,2,,,,,,,,,,,,,,224,220,227,312.0762094999991,312.1906485999989,312.1740761000001,312.374186699999,2,1,0.3616330000004382,312.1740761000001,None,None,None,False,None,None,None,None,None,None,None,None,None,None,None,None,,,,,,,,,,,,,,,,,,,,,,,,,,,,,,AG4EN28,1,0x5FB8,D:\CoScience\Logfiles\,2022_May_27_1215,Flanker,2020.1.3,59.937880381156035,
SSS SSS,SSSSSSS,30,S,,,,,,,,,0,0,0,0,10,4,124,3,,,,,,,0.770359105959747,313.86120709999886,None,4,,,,,,,,,,,,,,234,230,239,313.50895259999925,313.62405109999963,313.6073569,313.80745229999957,2,0,0.22665020000022196,313.6073569,None,None,None,False,None,None,None,None,None,None,None,None,None,None,None,None,,,,,,,,,,,,,,,,,,,,,,,,,,,,,,AG4EN28,1,0x5FB8,D:\CoScience\Logfiles\,2022_May_27_1215,Flanker,2020.1.3,59.937880381156035,
HHH HHH,HHHHHHH,30,H,,,,,,,,,0,0,0,0,10,5,125,10,,,,,,,0.7791828236615241,315.0110401000002,None,2,,,,,,,,,,,,,,234,230,237,314.64184679999926,314.75689389999934,314.74033119999876,314.94072739999865,2,1,0.24819400000160385,314.74033119999876,None,None,None,False,None,None,None,None,None,None,None,None,None,None,None,None,,,,,,,,,,,,,,,,,,,,,,,,,,,,,,AG4EN28,1,0x5FB8,D:\CoScience\Logfiles\,2022_May_27_1215,Flanker,2020.1.3,59.937880381156035,
HHH HHH,HHHSHHH,0,S,,,,,,,,,0,0,0,0,10,6,126,0,,,,,,,0.8503783991458748,316.1776143999996,None,4,,,,,,,,,,,,,,204,200,209,315.7904196999989,315.890630599999,315.87413539999943,316.0740917999992,2,0,0.27198499999940395,315.87413539999943,None,None,None,False,None,None,None,None,None,None,None,None,None,None,None,None,,,,,,,,,,,,,,,,,,,,,,,,,,,,,,AG4EN28,1,0x5FB8,D:\CoScience\Logfiles\,2022_May_27_1215,Flanker,2020.1.3,59.937880381156035,
SSH HSS,SSHHHSS,10,H,,,,,,,,,0,0,0,0,10,7,127,7,,,,,,,0.8308926170260337,317.49418069999956,None,2,,,,,,,,,,,,,,214,210,217,317.0417043999987,317.1573112999995,317.1407397999992,317.3407333999985,2,1,0.3340587000002415,317.1407397999992,None,None,None,False,None,None,None,None,None,None,None,None,None,None,None,None,,,,,,,,,,,,,,,,,,,,,,,,,,,,,,AG4EN28,1,0x5FB8,D:\CoScience\Logfiles\,2022_May_27_1215,Flanker,2020.1.3,59.937880381156035,
SSS SSS,SSSSSSS,30,S,,,,,,,,,0,0,0,0,10,8,128,5,,,,,,,0.7834870911244687,318.6943864999994,None,4,,,,,,,,,,,,,,234,230,237,318.32496399999945,318.42401289999907,318.42401289999907,318.62408369999866,4,1,0.24862719999873661,318.42401289999907,None,None,None,False,None,None,None,None,None,None,None,None,None,None,None,None,,,,,,,,,,,,,,,,,,,,,,,,,,,,,,AG4EN28,1,0x5FB8,D:\CoScience\Logfiles\,2022_May_27_1215,Flanker,2020.1.3,59.937880381156035,
HSS SSH,HSSSSSH,20,S,,,,,,,,,0,0,0,0,10,9,129,2,,,,,,,0.8883231839873282,319.9106506999997,None,4,,,,,,,,,,,,,,224,220,227,319.4910194999993,319.59087759999966,319.59087759999966,319.7907492999984,4,1,0.29728419999992184,319.59087759999966,None,None,None,False,None,None,None,None,None,None,None,None,None,None,None,None,,,,,,,,,,,,,,,,,,,,,,,,,,,,,,AG4EN28,1,0x5FB8,D:\CoScience\Logfiles\,2022_May_27_1215,Flanker,2020.1.3,59.937880381156035,
HHS SHH,HHSSSHH,10,S,,,,,,,,,0,0,0,0,10,10,130,1,,,,,,,0.9344527070867203,321.22756069999923,None,4,,,,,,,,,,,,,,214,210,217,320.80861079999886,320.9240102999993,320.9074437999989,321.10746019999897,4,1,0.287164200000916,320.9074437999989,None,None,None,False,None,None,None,None,None,None,None,None,None,None,None,None,,,,,,,,,,,,,,,,,,,,,,,,,,,,,,AG4EN28,1,0x5FB8,D:\CoScience\Logfiles\,2022_May_27_1215,Flanker,2020.1.3,59.937880381156035,
HHH HHH,HHHHHHH,30,H,,,,,,,,,0,0,0,0,10,11,131,10,,,,,,,0.8690183700854381,322.4609443999998,None,2,,,,,,,,,,,,,,234,230,237,322.1751031999993,322.29055209999933,322.2741282999996,None,2,1,0.1544789999989007,322.2741282999996,None,None,None,False,None,None,None,None,None,None,None,None,None,None,None,None,,,,,,,,,,,,,,,,,,,,,,,,,,,,,,AG4EN28,1,0x5FB8,D:\CoScience\Logfiles\,2022_May_27_1215,Flanker,2020.1.3,59.937880381156035,
SSS SSS,SSSSSSS,30,S,,,,,,,,,0,0,0,0,11,0,132,3,,,,,,,0.7796924188163514,323.69424509999953,None,4,,,,,,,,,,,,,,234,230,237,323.34198899999865,323.457317299999,323.4405850999992,323.64068880000013,4,1,0.21901279999838152,323.4405850999992,None,None,None,False,None,None,None,None,None,None,None,None,None,None,None,None,,,,,,,,,,,,,,,,,,,,,,,,,,,,,,AG4EN28,1,0x5FB8,D:\CoScience\Logfiles\,2022_May_27_1215,Flanker,2020.1.3,59.937880381156035,
HHS SHH,HHSSSHH,10,S,,,,,,,,,0,0,0,0,11,1,133,1,,,,,,,0.9685981262790363,324.9612510999996,None,4,,,,,,,,,,,,,,214,210,217,324.475188299999,324.5906580999999,324.57402589999947,324.7740909999993,4,1,0.3555054000007658,324.57402589999947,None,None,None,False,None,None,None,None,None,None,None,None,None,None,None,None,,,,,,,,,,,,,,,,,,,,,,,,,,,,,,AG4EN28,1,0x5FB8,D:\CoScience\Logfiles\,2022_May_27_1215,Flanker,2020.1.3,59.937880381156035,
HHH HHH,HHHHHHH,30,H,,,,,,,,,0,0,0,0,11,2,134,9,,,,,,,0.754855513631014,326.2097058999989,None,2,,,,,,,,,,,,,,234,230,237,325.9416567999997,326.04066149999926,326.04066149999926,None,2,1,0.1473122000006697,326.04066149999926,None,None,None,False,None,None,None,None,None,None,None,None,None,None,None,None,,,,,,,,,,,,,,,,,,,,,,,,,,,,,,AG4EN28,1,0x5FB8,D:\CoScience\Logfiles\,2022_May_27_1215,Flanker,2020.1.3,59.937880381156035,
HHH HHH,HHHHHHH,30,H,,,,,,,,,0,0,0,0,11,3,135,9,,,,,,,0.8604596483590017,327.32772419999856,None,2,,,,,,,,,,,,,,234,230,239,326.97397379999893,327.0739813,327.05748200000016,327.2574102999988,4,0,0.24712410000029195,327.05748200000016,None,None,None,False,None,None,None,None,None,None,None,None,None,None,None,None,,,,,,,,,,,,,,,,,,,,,,,,,,,,,,AG4EN28,1,0x5FB8,D:\CoScience\Logfiles\,2022_May_27_1215,Flanker,2020.1.3,59.937880381156035,
HSS SSH,HSSSSSH,20,S,,,,,,,,,0,0,0,0,11,4,136,2,,,,,,,0.7571745661107554,328.5414628999988,None,4,,,,,,,,,,,,,,224,220,227,328.19177239999954,328.30733859999964,328.2907239999986,328.4907461999992,4,1,0.22688130000096862,328.2907239999986,None,None,None,False,None,None,None,None,None,None,None,None,None,None,None,None,,,,,,,,,,,,,,,,,,,,,,,,,,,,,,AG4EN28,1,0x5FB8,D:\CoScience\Logfiles\,2022_May_27_1215,Flanker,2020.1.3,59.937880381156035,
HHH HHH,HHHHHHH,30,H,,,,,,,,,0,0,0,0,11,5,137,11,,,,,,,0.840390655967546,329.67527789999986,None,2,,,,,,,,,,,,,,234,230,237,329.30871379999917,329.4239031999987,329.4073926000001,329.60741469999994,2,1,0.2452954000000318,329.4073926000001,None,None,None,False,None,None,None,None,None,None,None,None,None,None,None,None,,,,,,,,,,,,,,,,,,,,,,,,,,,,,,AG4EN28,1,0x5FB8,D:\CoScience\Logfiles\,2022_May_27_1215,Flanker,2020.1.3,59.937880381156035,
HHS SHH,HHSSSHH,10,S,,,,,,,,,0,0,0,0,11,6,138,1,,,,,,,0.9143059318221712,330.9276682999989,None,4,,,,,,,,,,,,,,214,210,217,330.5250354999989,330.62413129999914,330.62413129999914,330.8241199999993,4,1,0.2815901000012673,330.62413129999914,None,None,None,False,None,None,None,None,None,None,None,None,None,None,None,None,,,,,,,,,,,,,,,,,,,,,,,,,,,,,,AG4EN28,1,0x5FB8,D:\CoScience\Logfiles\,2022_May_27_1215,Flanker,2020.1.3,59.937880381156035,
SHH HHS,SHHHHHS,20,H,,,,,,,,,0,0,0,0,11,7,139,8,,,,,,,0.8141037179603335,332.1600256999991,None,2,,,,,,,,,,,,,,224,220,227,331.859273099999,331.9739875999985,331.95725949999905,None,2,1,0.18141300000024785,331.95725949999905,None,None,None,False,None,None,None,None,None,None,None,None,None,None,None,None,,,,,,,,,,,,,,,,,,,,,,,,,,,,,,AG4EN28,1,0x5FB8,D:\CoScience\Logfiles\,2022_May_27_1215,Flanker,2020.1.3,59.937880381156035,
HSS SSH,HSSSSSH,20,S,,,,,,,,,0,0,0,0,11,8,140,2,,,,,,,0.9997745834735525,333.3266784999996,None,4,,,,,,,,,,,,,,224,220,227,332.9753449,333.09065629999895,333.0742528999999,333.27416959999937,4,1,0.23132129999976314,333.0742528999999,None,None,None,False,None,None,None,None,None,None,None,None,None,None,None,None,,,,,,,,,,,,,,,,,,,,,,,,,,,,,,AG4EN28,1,0x5FB8,D:\CoScience\Logfiles\,2022_May_27_1215,Flanker,2020.1.3,59.937880381156035,
HSS SSH,HSSSSSH,20,S,,,,,,,,,0,0,0,0,11,9,141,2,,,,,,,0.9111906549033556,336.4399810999985,None,4,,,,,,,,,,,,,,224,220,0,334.34049869999944,334.44072659999983,334.4239985999993,334.6239979000002,None,0,,334.4239985999993,None,335.4280390999993,None,False,None,None,None,None,None,None,None,None,None,None,None,None,,,,,,,,,,,,,,,,,,,,,,,,,,,,,,AG4EN28,1,0x5FB8,D:\CoScience\Logfiles\,2022_May_27_1215,Flanker,2020.1.3,59.937880381156035,
SHH HHS,SHHHHHS,20,H,,,,,,,,,0,0,0,0,11,10,142,8,,,,,,,0.9309830812513702,337.76063409999915,None,2,,,,,,,,,,,,,,224,220,227,337.35919119999926,337.47403080000004,337.45735779999995,337.65740919999917,2,1,0.2774103000010655,337.45735779999995,None,None,None,False,None,None,None,None,None,None,None,None,None,None,None,None,,,,,,,,,,,,,,,,,,,,,,,,,,,,,,AG4EN28,1,0x5FB8,D:\CoScience\Logfiles\,2022_May_27_1215,Flanker,2020.1.3,59.937880381156035,
HHH HHH,HHHHHHH,30,H,,,,,,,,,0,0,0,0,11,11,143,10,,,,,,,0.9148075753995821,339.04332689999865,None,2,,,,,,,,,,,,,,234,230,237,338.6917722999988,338.80723119999857,338.7906288999984,338.9902966999998,2,1,0.2260124000003998,338.7906288999984,None,None,None,False,None,None,None,None,None,None,None,None,None,None,None,None,,,,,,,,,,,,,,,,,,,,,,,,,,,,,,AG4EN28,1,0x5FB8,D:\CoScience\Logfiles\,2022_May_27_1215,Flanker,2020.1.3,59.937880381156035,
SSS SSS,SSSSSSS,30,S,,,,,,,,,0,0,0,0,12,0,144,5,,,,,,,0.9477275013014974,340.36093919999985,None,4,,,,,,,,,,,,,,234,230,237,339.9585714999994,340.0739414999989,340.057358,340.25733579999905,4,1,0.2714307000005647,340.057358,None,None,None,False,None,None,None,None,None,None,None,None,None,None,None,None,,,,,,,,,,,,,,,,,,,,,,,,,,,,,,AG4EN28,1,0x5FB8,D:\CoScience\Logfiles\,2022_May_27_1215,Flanker,2020.1.3,59.937880381156035,
HSS SSH,HSSSSSH,20,S,,,,,,,,,0,0,0,0,12,1,145,2,,,,,,,0.7647351738545771,341.66072059999897,None,4,,,,,,,,,,,,,,224,220,229,341.3248145999987,341.42407119999916,341.42407119999916,341.62404979999883,2,0,0.2034836999991967,341.42407119999916,None,None,None,False,None,None,None,None,None,None,None,None,None,None,None,None,,,,,,,,,,,,,,,,,,,,,,,,,,,,,,AG4EN28,1,0x5FB8,D:\CoScience\Logfiles\,2022_May_27_1215,Flanker,2020.1.3,59.937880381156035,
HHS SHH,HHSSSHH,10,S,,,,,,,,,0,0,0,0,12,2,146,1,,,,,,,0.8075114262683778,342.7941056999989,None,4,,,,,,,,,,,,,,214,210,219,342.44081879999976,342.5404949999993,342.5240238999995,342.7239007999997,2,0,0.2455076000005647,342.5240238999995,None,None,None,False,None,None,None,None,None,None,None,None,None,None,None,None,,,,,,,,,,,,,,,,,,,,,,,,,,,,,,AG4EN28,1,0x5FB8,D:\CoScience\Logfiles\,2022_May_27_1215,Flanker,2020.1.3,59.937880381156035,
SSS SSS,SSSSSSS,30,S,,,,,,,,,0,0,0,0,12,3,147,4,,,,,,,0.8946211770825415,344.0112202,None,4,,,,,,,,,,,,,,234,230,237,343.6083955999984,343.7239372999993,343.7073365999986,343.9069787999997,4,1,0.28120709999893734,343.7073365999986,None,None,None,False,None,None,None,None,None,None,None,None,None,None,None,None,,,,,,,,,,,,,,,,,,,,,,,,,,,,,,AG4EN28,1,0x5FB8,D:\CoScience\Logfiles\,2022_May_27_1215,Flanker,2020.1.3,59.937880381156035,
SHH HHS,SHHHHHS,20,H,,,,,,,,,0,0,0,0,12,4,148,8,,,,,,,0.8895516886223487,345.2775978999998,None,2,,,,,,,,,,,,,,224,220,227,344.9082593999992,345.0074164999987,345.0074164999987,345.20738359999996,2,1,0.2481219000001147,345.0074164999987,None,None,None,False,None,None,None,None,None,None,None,None,None,None,None,None,,,,,,,,,,,,,,,,,,,,,,,,,,,,,,AG4EN28,1,0x5FB8,D:\CoScience\Logfiles\,2022_May_27_1215,Flanker,2020.1.3,59.937880381156035,
SHH HHS,SHHHHHS,20,H,,,,,,,,,0,0,0,0,12,5,149,8,,,,,,,0.939003274606518,346.6277042999991,None,2,,,,,,,,,,,,,,224,220,227,346.1738779999996,346.27383909999844,346.25727879999977,346.4573051999996,2,1,0.3452562000002217,346.25727879999977,None,None,None,False,None,None,None,None,None,None,None,None,None,None,None,None,,,,,,,,,,,,,,,,,,,,,,,,,,,,,,AG4EN28,1,0x5FB8,D:\CoScience\Logfiles\,2022_May_27_1215,Flanker,2020.1.3,59.937880381156035,
SSS SSS,SSSHSSS,0,H,,,,,,,,,0,0,0,0,12,6,150,6,,,,,,,0.967983980900522,347.9609942999996,None,2,,,,,,,,,,,,,,204,200,209,347.57509839999875,347.69058570000016,347.67399569999907,347.8741528999999,4,0,0.2535561000004236,347.67399569999907,None,None,None,False,None,None,None,None,None,None,None,None,None,None,None,None,,,,,,,,,,,,,,,,,,,,,,,,,,,,,,AG4EN28,1,0x5FB8,D:\CoScience\Logfiles\,2022_May_27_1215,Flanker,2020.1.3,59.937880381156035,
SSH HSS,SSHHHSS,10,H,,,,,,,,,0,0,0,0,12,7,151,7,,,,,,,0.8016936013432335,349.42742389999876,None,2,,,,,,,,,,,,,,214,210,217,348.94172719999915,349.0407319999995,349.0407319999995,349.24071059999915,2,1,0.36694360000001325,349.0407319999995,None,None,None,False,None,None,None,None,None,None,None,None,None,None,None,None,,,,,,,,,,,,,,,,,,,,,,,,,,,,,,AG4EN28,1,0x5FB8,D:\CoScience\Logfiles\,2022_May_27_1215,Flanker,2020.1.3,59.937880381156035,
HHS SHH,HHSSSHH,10,S,,,,,,,,,0,0,0,0,12,8,152,1,,,,,,,0.9910275521491251,350.62746960000004,None,4,,,,,,,,,,,,,,214,210,219,350.2415698999994,350.3404523999998,350.3404523999998,350.5407925999989,2,0,0.26827290000073845,350.3404523999998,None,None,None,False,None,None,None,None,None,None,None,None,None,None,None,None,,,,,,,,,,,,,,,,,,,,,,,,,,,,,,AG4EN28,1,0x5FB8,D:\CoScience\Logfiles\,2022_May_27_1215,Flanker,2020.1.3,59.937880381156035,
SSS SSS,SSSSSSS,30,S,,,,,,,,,0,0,0,0,12,9,153,4,,,,,,,0.7510153914124251,351.9774196999988,None,4,,,,,,,,,,,,,,234,230,239,351.6260724999993,351.74052279999887,351.7240501999986,351.92402409999886,2,0,0.23457300000154646,351.7240501999986,None,None,None,False,None,None,None,None,None,None,None,None,None,None,None,None,,,,,,,,,,,,,,,,,,,,,,,,,,,,,,AG4EN28,1,0x5FB8,D:\CoScience\Logfiles\,2022_May_27_1215,Flanker,2020.1.3,59.937880381156035,
HHH HHH,HHHHHHH,30,H,,,,,,,,,0,0,0,0,12,10,154,10,,,,,,,0.9925985311625836,353.1110166999988,None,2,,,,,,,,,,,,,,234,230,237,352.74178739999843,352.85719509999944,352.8407481999984,353.0408267999992,2,1,0.24736659999871335,352.8407481999984,None,None,None,False,None,None,None,None,None,None,None,None,None,None,None,None,,,,,,,,,,,,,,,,,,,,,,,,,,,,,,AG4EN28,1,0x5FB8,D:\CoScience\Logfiles\,2022_May_27_1215,Flanker,2020.1.3,59.937880381156035,
SSS SSS,SSSHSSS,0,H,,,,,,,,,0,0,0,0,12,11,155,6,,,,,,,0.924830028320214,354.54149719999987,None,2,,,,,,,,,,,,,,204,200,209,354.1085183999985,354.22403609999856,354.2073862999987,354.40744449999875,4,0,0.3161417999999685,354.2073862999987,None,None,None,False,None,None,None,None,None,None,None,None,None,None,None,None,,,,,,,,,,,,,,,,,,,,,,,,,,,,,,AG4EN28,1,0x5FB8,D:\CoScience\Logfiles\,2022_May_27_1215,Flanker,2020.1.3,59.937880381156035,
SSH HSS,SSHHHSS,10,H,,,,,,,,,0,0,0,0,13,0,156,7,,,,,,,0.9022078008168845,355.8774720000001,None,2,,,,,,,,,,,,,,214,210,217,355.47591829999874,355.5906328000001,355.5740372,355.77398509999875,2,1,0.26946029999999155,355.5740372,None,None,None,False,None,None,None,None,None,None,None,None,None,None,None,None,,,,,,,,,,,,,,,,,,,,,,,,,,,,,,AG4EN28,1,0x5FB8,D:\CoScience\Logfiles\,2022_May_27_1215,Flanker,2020.1.3,59.937880381156035,
HHH HHH,HHHHHHH,30,H,,,,,,,,,0,0,0,0,13,1,157,10,,,,,,,0.9443194276548923,357.2775566,None,2,,,,,,,,,,,,,,234,230,237,356.7916719999994,356.89071220000005,356.89071220000005,357.0906825999991,2,1,0.36382159999993746,356.89071220000005,None,None,None,False,None,None,None,None,None,None,None,None,None,None,None,None,,,,,,,,,,,,,,,,,,,,,,,,,,,,,,AG4EN28,1,0x5FB8,D:\CoScience\Logfiles\,2022_May_27_1215,Flanker,2020.1.3,59.937880381156035,
HHH HHH,HHHHHHH,30,H,,,,,,,,,0,0,0,0,13,2,158,11,,,,,,,0.7915624001763497,358.6441330999987,None,2,,,,,,,,,,,,,,234,230,237,358.22346169999946,358.32396439999866,358.3074018999996,358.5073625999994,2,1,0.3071055000000342,358.3074018999996,None,None,None,False,None,None,None,None,None,None,None,None,None,None,None,None,,,,,,,,,,,,,,,,,,,,,,,,,,,,,,AG4EN28,1,0x5FB8,D:\CoScience\Logfiles\,2022_May_27_1215,Flanker,2020.1.3,59.937880381156035,
SSS SSS,SSSSSSS,30,S,,,,,,,,,0,0,0,0,13,3,159,4,,,,,,,0.8265245241891209,359.87754799999857,None,4,,,,,,,,,,,,,,234,230,237,359.44095749999906,359.5406699999985,359.5406699999985,359.7402622999998,4,1,0.3051799000004394,359.5406699999985,None,None,None,False,None,None,None,None,None,None,None,None,None,None,None,None,,,,,,,,,,,,,,,,,,,,,,,,,,,,,,AG4EN28,1,0x5FB8,D:\CoScience\Logfiles\,2022_May_27_1215,Flanker,2020.1.3,59.937880381156035,
HSS SSH,HSSSSSH,20,S,,,,,,,,,0,0,0,0,13,4,160,2,,,,,,,0.8117843157344329,361.14331779999884,None,4,,,,,,,,,,,,,,224,220,227,360.70812339999975,360.80726609999874,360.80726609999874,361.0072446999984,4,1,0.31521690000045055,360.80726609999874,None,None,None,False,None,None,None,None,None,None,None,None,None,None,None,None,,,,,,,,,,,,,,,,,,,,,,,,,,,,,,AG4EN28,1,0x5FB8,D:\CoScience\Logfiles\,2022_May_27_1215,Flanker,2020.1.3,59.937880381156035,
SSS SSS,SSSHSSS,0,H,,,,,,,,,0,0,0,0,13,5,161,6,,,,,,,0.9528532522485424,362.3274774999991,None,2,,,,,,,,,,,,,,204,200,209,361.9577518999995,362.056939099999,362.056939099999,362.25734809999994,4,0,0.23553829999946174,362.056939099999,None,None,None,False,None,None,None,None,None,None,None,None,None,None,None,None,,,,,,,,,,,,,,,,,,,,,,,,,,,,,,AG4EN28,1,0x5FB8,D:\CoScience\Logfiles\,2022_May_27_1215,Flanker,2020.1.3,59.937880381156035,
HHH HHH,HHHHHHH,30,H,,,,,,,,,0,0,0,0,13,6,162,11,,,,,,,0.9958173691975524,363.6255917999988,None,2,,,,,,,,,,,,,,234,230,237,363.2918745999996,363.4072879999985,363.39069329999984,363.5906252999994,2,1,0.2053329999998823,363.39069329999984,None,None,None,False,None,None,None,None,None,None,None,None,None,None,None,None,,,,,,,,,,,,,,,,,,,,,,,,,,,,,,AG4EN28,1,0x5FB8,D:\CoScience\Logfiles\,2022_May_27_1215,Flanker,2020.1.3,59.937880381156035,
SHH HHS,SHHHHHS,20,H,,,,,,,,,0,0,0,0,13,7,163,8,,,,,,,0.9801443987666509,365.0270176999984,None,2,,,,,,,,,,,,,,224,220,229,364.6249435999998,364.7406125999987,364.72360729999855,364.9240424999989,4,0,0.2728927999996813,364.72360729999855,None,None,None,False,None,None,None,None,None,None,None,None,None,None,None,None,,,,,,,,,,,,,,,,,,,,,,,,,,,,,,AG4EN28,1,0x5FB8,D:\CoScience\Logfiles\,2022_May_27_1215,Flanker,2020.1.3,59.937880381156035,
HHH HHH,HHHHHHH,30,H,,,,,,,,,0,0,0,0,13,8,164,9,,,,,,,0.7550916327007987,366.32650849999845,None,2,,,,,,,,,,,,,,234,230,237,366.0084588999998,366.12381209999876,366.10730109999895,366.30721099999937,2,1,0.1893075999996654,366.10730109999895,None,None,None,False,None,None,None,None,None,None,None,None,None,None,None,None,,,,,,,,,,,,,,,,,,,,,,,,,,,,,,AG4EN28,1,0x5FB8,D:\CoScience\Logfiles\,2022_May_27_1215,Flanker,2020.1.3,59.937880381156035,
HHH HHH,HHHHHHH,30,H,,,,,,,,,0,0,0,0,13,9,165,10,,,,,,,0.8228730888460694,367.51098659999843,None,2,,,,,,,,,,,,,,234,230,237,367.0901766999996,367.1906136999987,367.1741414999997,367.3741197999989,2,1,0.31735180000032415,367.1741414999997,None,None,None,False,None,None,None,None,None,None,None,None,None,None,None,None,,,,,,,,,,,,,,,,,,,,,,,,,,,,,,AG4EN28,1,0x5FB8,D:\CoScience\Logfiles\,2022_May_27_1215,Flanker,2020.1.3,59.937880381156035,
SSS SSS,SSSSSSS,30,S,,,,,,,,,0,0,0,0,13,10,166,3,,,,,,,0.7604967807305546,368.8110154999995,None,4,,,,,,,,,,,,,,234,230,237,368.34163420000004,368.4407715999987,368.4407715999987,368.6407096999992,4,1,0.3507316000013816,368.4407715999987,None,None,None,False,None,None,None,None,None,None,None,None,None,None,None,None,,,,,,,,,,,,,,,,,,,,,,,,,,,,,,AG4EN28,1,0x5FB8,D:\CoScience\Logfiles\,2022_May_27_1215,Flanker,2020.1.3,59.937880381156035,
HHS SHH,HHSSSHH,10,S,,,,,,,,,0,0,0,0,13,11,167,1,,,,,,,0.8104812355715726,369.97697829999925,None,4,,,,,,,,,,,,,,214,210,217,369.576086699999,369.6905674999998,369.67399979999936,369.8740655999991,4,1,0.28251989999989746,369.67399979999936,None,None,None,False,None,None,None,None,None,None,None,None,None,None,None,None,,,,,,,,,,,,,,,,,,,,,,,,,,,,,,AG4EN28,1,0x5FB8,D:\CoScience\Logfiles\,2022_May_27_1215,Flanker,2020.1.3,59.937880381156035,
SHH HHS,SHHHHHS,20,H,,,,,,,,,0,0,0,0,14,0,168,8,,,,,,,0.9916780395212874,371.160931299999,None,2,,,,,,,,,,,,,,224,220,227,370.7919871999984,370.9072944999989,370.8905965999984,371.0902238999988,2,1,0.23991469999964465,370.8905965999984,None,None,None,False,None,None,None,None,None,None,None,None,None,None,None,None,,,,,,,,,,,,,,,,,,,,,,,,,,,,,,AG4EN28,1,0x5FB8,D:\CoScience\Logfiles\,2022_May_27_1215,Flanker,2020.1.3,59.937880381156035,
HHH HHH,HHHSHHH,0,S,,,,,,,,,0,0,0,0,14,1,169,0,,,,,,,0.8563861136692975,372.5109219999995,None,4,,,,,,,,,,,,,,204,200,209,372.15835349999907,372.2573937999987,372.2573937999987,372.45737539999936,2,0,0.22414720000051602,372.2573937999987,None,None,None,False,None,None,None,None,None,None,None,None,None,None,None,None,,,,,,,,,,,,,,,,,,,,,,,,,,,,,,AG4EN28,1,0x5FB8,D:\CoScience\Logfiles\,2022_May_27_1215,Flanker,2020.1.3,59.937880381156035,
HHS SHH,HHSSSHH,10,S,,,,,,,,,0,0,0,0,14,2,170,1,,,,,,,0.8023745782784849,373.8276141999995,None,4,,,,,,,,,,,,,,214,210,217,373.3750887999995,373.4906101999986,373.47393329999977,373.6740108999984,4,1,0.33164450000003853,373.47393329999977,None,None,None,False,None,None,None,None,None,None,None,None,None,None,None,None,,,,,,,,,,,,,,,,,,,,,,,,,,,,,,AG4EN28,1,0x5FB8,D:\CoScience\Logfiles\,2022_May_27_1215,Flanker,2020.1.3,59.937880381156035,
HHH HHH,HHHHHHH,30,H,,,,,,,,,0,0,0,0,14,3,171,9,,,,,,,0.9973918000059626,375.0609943999989,None,2,,,,,,,,,,,,,,234,230,237,374.64140880000014,374.7407440999996,374.7407440999996,374.94068829999924,2,1,0.2907145999997738,374.7407440999996,None,None,None,False,None,None,None,None,None,None,None,None,None,None,None,None,,,,,,,,,,,,,,,,,,,,,,,,,,,,,,AG4EN28,1,0x5FB8,D:\CoScience\Logfiles\,2022_May_27_1215,Flanker,2020.1.3,59.937880381156035,
HHH HHH,HHHHHHH,30,H,,,,,,,,,0,0,0,0,14,4,172,11,,,,,,,0.8218453497501452,376.44416739999906,None,2,,,,,,,,,,,,,,234,230,237,376.07378679999965,376.1738186999992,376.15726639999957,376.3574809999991,2,1,0.2603331000009348,376.15726639999957,None,None,None,False,None,None,None,None,None,None,None,None,None,None,None,None,,,,,,,,,,,,,,,,,,,,,,,,,,,,,,AG4EN28,1,0x5FB8,D:\CoScience\Logfiles\,2022_May_27_1215,Flanker,2020.1.3,59.937880381156035,
HSS SSH,HSSSSSH,20,S,,,,,,,,,0,0,0,0,14,5,173,2,,,,,,,0.8510138468447578,377.6442552999997,None,4,,,,,,,,,,,,,,224,220,229,377.27523569999903,377.3906129999996,377.37393279999924,377.57404179999867,2,0,0.2436506999983976,377.37393279999924,None,None,None,False,None,None,None,None,None,None,None,None,None,None,None,None,,,,,,,,,,,,,,,,,,,,,,,,,,,,,,AG4EN28,1,0x5FB8,D:\CoScience\Logfiles\,2022_May_27_1215,Flanker,2020.1.3,59.937880381156035,
SSH HSS,SSHHHSS,10,H,,,,,,,,,0,0,0,0,14,6,174,7,,,,,,,0.7822369551960626,378.87515600000006,None,2,,,,,,,,,,,,,,214,210,217,378.5083677999992,378.6239038999993,378.60733359999904,378.80735379999896,2,1,0.24207580000074813,378.60733359999904,None,None,None,False,None,None,None,None,None,None,None,None,None,None,None,None,,,,,,,,,,,,,,,,,,,,,,,,,,,,,,AG4EN28,1,0x5FB8,D:\CoScience\Logfiles\,2022_May_27_1215,Flanker,2020.1.3,59.937880381156035,
HSS SSH,HSSSSSH,20,S,,,,,,,,,0,0,0,0,14,7,175,2,,,,,,,0.9380330742966481,380.07763709999927,None,4,,,,,,,,,,,,,,224,220,227,379.6586481999984,379.7736030999986,379.75735109999914,379.9573728999985,4,1,0.2910933999992267,379.75735109999914,None,None,None,False,None,None,None,None,None,None,None,None,None,None,None,None,,,,,,,,,,,,,,,,,,,,,,,,,,,,,,AG4EN28,1,0x5FB8,D:\CoScience\Logfiles\,2022_May_27_1215,Flanker,2020.1.3,59.937880381156035,
SSS SSS,SSSSSSS,30,S,,,,,,,,,0,0,0,0,14,8,176,4,,,,,,,0.8938761642085385,381.3610669999998,None,4,,,,,,,,,,,,,,234,230,239,381.0251604999994,381.1406008999984,381.1239377999991,381.32400640000014,2,0,0.21167109999987588,381.1239377999991,None,None,None,False,None,None,None,None,None,None,None,None,None,None,None,None,,,,,,,,,,,,,,,,,,,,,,,,,,,,,,AG4EN28,1,0x5FB8,D:\CoScience\Logfiles\,2022_May_27_1215,Flanker,2020.1.3,59.937880381156035,
HSS SSH,HSSSSSH,20,S,,,,,,,,,0,0,0,0,14,9,177,2,,,,,,,0.8311092058979428,382.61079339999924,None,4,,,,,,,,,,,,,,224,220,227,382.2582184999992,382.3573992999991,382.3573992999991,382.5573368999994,4,1,0.2290871999994124,382.3573992999991,None,None,None,False,None,None,None,None,None,None,None,None,None,None,None,None,,,,,,,,,,,,,,,,,,,,,,,,,,,,,,AG4EN28,1,0x5FB8,D:\CoScience\Logfiles\,2022_May_27_1215,Flanker,2020.1.3,59.937880381156035,
SSH HSS,SSHHHSS,10,H,,,,,,,,,0,0,0,0,14,10,178,7,,,,,,,0.9161089413841479,383.81096909999906,None,2,,,,,,,,,,,,,,214,210,217,383.4584681999986,383.5734569999986,383.55692239999917,383.75733189999846,2,1,0.21954159999950207,383.55692239999917,None,None,None,False,None,None,None,None,None,None,None,None,None,None,None,None,,,,,,,,,,,,,,,,,,,,,,,,,,,,,,AG4EN28,1,0x5FB8,D:\CoScience\Logfiles\,2022_May_27_1215,Flanker,2020.1.3,59.937880381156035,
SSS SSS,SSSSSSS,30,S,,,,,,,,,0,0,0,0,14,11,179,3,,,,,,,0.9232065483496146,385.1109127,None,4,,,,,,,,,,,,,,234,230,237,384.7418259999995,384.85716729999876,384.84067199999845,385.04070049999973,4,1,0.23589319999882719,384.84067199999845,None,None,None,False,None,None,None,None,None,None,None,None,None,None,None,None,,,,,,,,,,,,,,,,,,,,,,,,,,,,,,AG4EN28,1,0x5FB8,D:\CoScience\Logfiles\,2022_May_27_1215,Flanker,2020.1.3,59.937880381156035,
SSS SSS,SSSHSSS,0,H,,,,,,,,,0,0,0,0,15,0,180,6,,,,,,,0.7965333312834215,386.4108250999998,None,2,,,,,,,,,,,,,,204,200,209,386.04162749999887,386.1567146999987,386.14020679999885,386.3404907999993,4,0,0.23943829999916488,386.14020679999885,None,None,None,False,None,None,None,None,None,None,None,None,None,None,None,None,,,,,,,,,,,,,,,,,,,,,,,,,,,,,,AG4EN28,1,0x5FB8,D:\CoScience\Logfiles\,2022_May_27_1215,Flanker,2020.1.3,59.937880381156035,
SSH HSS,SSHHHSS,10,H,,,,,,,,,0,0,0,0,15,1,181,7,,,,,,,0.8239624770994111,387.6604905999993,None,2,,,,,,,,,,,,,,214,210,217,387.20848079999996,387.32396179999887,387.30725279999933,387.5072595999991,2,1,0.3323894000004657,387.30725279999933,None,None,None,False,None,None,None,None,None,None,None,None,None,None,None,None,,,,,,,,,,,,,,,,,,,,,,,,,,,,,,AG4EN28,1,0x5FB8,D:\CoScience\Logfiles\,2022_May_27_1215,Flanker,2020.1.3,59.937880381156035,
HHH HHH,HHHHHHH,30,H,,,,,,,,,0,0,0,0,15,2,182,9,,,,,,,0.784236707501701,388.87791879999895,None,2,,,,,,,,,,,,,,234,230,237,388.49185469999975,388.60723809999945,388.5906537999999,388.79061229999934,2,1,0.2688273999992816,388.5906537999999,None,None,None,False,None,None,None,None,None,None,None,None,None,None,None,None,,,,,,,,,,,,,,,,,,,,,,,,,,,,,,AG4EN28,1,0x5FB8,D:\CoScience\Logfiles\,2022_May_27_1215,Flanker,2020.1.3,59.937880381156035,
SSS SSS,SSSHSSS,0,H,,,,,,,,,0,0,0,0,15,3,183,6,,,,,,,0.9663284586917729,390.09363499999927,None,2,,,,,,,,,,,,,,204,200,209,389.67504409999856,389.7905577999991,389.77401109999846,389.97410619999937,4,0,0.287485499999093,389.77401109999846,None,None,None,False,None,None,None,None,None,None,None,None,None,None,None,None,,,,,,,,,,,,,,,,,,,,,,,,,,,,,,AG4EN28,1,0x5FB8,D:\CoScience\Logfiles\,2022_May_27_1215,Flanker,2020.1.3,59.937880381156035,
HHH HHH,HHHSHHH,0,S,,,,,,,,,0,0,0,0,15,4,184,0,,,,,,,0.9923295058734971,391.41028839999854,None,4,,,,,,,,,,,,,,204,200,209,391.07505499999934,391.190527499999,391.1739239999988,391.37402519999887,2,0,0.21255550000023504,391.1739239999988,None,None,None,False,None,None,None,None,None,None,None,None,None,None,None,None,,,,,,,,,,,,,,,,,,,,,,,,,,,,,,AG4EN28,1,0x5FB8,D:\CoScience\Logfiles\,2022_May_27_1215,Flanker,2020.1.3,59.937880381156035,
HHH HHH,HHHHHHH,30,H,,,,,,,,,0,0,0,0,15,5,185,9,,,,,,,0.883700193071123,392.7942065999996,None,2,,,,,,,,,,,,,,234,230,237,392.4219188999996,392.5238998999994,392.50738920000003,392.7073423999991,2,1,0.2520706000013888,392.50738920000003,None,None,None,False,None,None,None,None,None,None,None,None,None,None,None,None,,,,,,,,,,,,,,,,,,,,,,,,,,,,,,AG4EN28,1,0x5FB8,D:\CoScience\Logfiles\,2022_May_27_1215,Flanker,2020.1.3,59.937880381156035,
HHH HHH,HHHHHHH,30,H,,,,,,,,,0,0,0,0,15,6,186,9,,,,,,,0.782643235531067,394.0927216,None,2,,,,,,,,,,,,,,234,230,237,393.6902786999999,393.7904961999993,393.77387850000014,393.9738964999997,2,1,0.29762529999970866,393.77387850000014,None,None,None,False,None,None,None,None,None,None,None,None,None,None,None,None,,,,,,,,,,,,,,,,,,,,,,,,,,,,,,AG4EN28,1,0x5FB8,D:\CoScience\Logfiles\,2022_May_27_1215,Flanker,2020.1.3,59.937880381156035,
HHH HHH,HHHHHHH,30,H,,,,,,,,,0,0,0,0,15,7,187,10,,,,,,,0.9433906469653414,395.3612828999994,None,2,,,,,,,,,,,,,,234,230,237,394.89039859999866,394.9905815000002,394.9740602999991,395.174062099999,2,1,0.36389889999918523,394.9740602999991,None,None,None,False,None,None,None,None,None,None,None,None,None,None,None,None,,,,,,,,,,,,,,,,,,,,,,,,,,,,,,AG4EN28,1,0x5FB8,D:\CoScience\Logfiles\,2022_May_27_1215,Flanker,2020.1.3,59.937880381156035,
SSS SSS,SSSHSSS,0,H,,,,,,,,,0,0,0,0,15,8,188,6,,,,,,,0.9901835785643383,396.7776310999998,None,2,,,,,,,,,,,,,,204,200,209,396.30821509999987,396.40725239999847,396.40725239999847,396.6069353999992,4,0,0.33628459999999905,396.40725239999847,None,None,None,False,None,None,None,None,None,None,None,None,None,None,None,None,,,,,,,,,,,,,,,,,,,,,,,,,,,,,,AG4EN28,1,0x5FB8,D:\CoScience\Logfiles\,2022_May_27_1215,Flanker,2020.1.3,59.937880381156035,
HHH HHH,HHHHHHH,30,H,,,,,,,,,0,0,0,0,15,9,189,11,,,,,,,0.941449237734636,398.12757280000005,None,2,,,,,,,,,,,,,,234,230,237,397.7751350999988,397.8902365999984,397.873429199999,398.074047099999,2,1,0.23116399999889836,397.873429199999,None,None,None,False,None,None,None,None,None,None,None,None,None,None,None,None,,,,,,,,,,,,,,,,,,,,,,,,,,,,,,AG4EN28,1,0x5FB8,D:\CoScience\Logfiles\,2022_May_27_1215,Flanker,2020.1.3,59.937880381156035,
HSS SSH,HSSSSSH,20,S,,,,,,,,,0,0,0,0,15,10,190,2,,,,,,,0.7905593140464534,399.4776443999999,None,4,,,,,,,,,,,,,,224,220,227,399.07491799999843,399.19048779999866,399.1739619,399.37388589999864,4,1,0.2766356000011001,399.1739619,None,None,None,False,None,None,None,None,None,None,None,None,None,None,None,None,,,,,,,,,,,,,,,,,,,,,,,,,,,,,,AG4EN28,1,0x5FB8,D:\CoScience\Logfiles\,2022_May_27_1215,Flanker,2020.1.3,59.937880381156035,
SSS SSS,SSSSSSS,30,S,,,,,,,,,0,0,0,0,15,11,191,3,,,,,,,0.9787379288532425,435.59052319999864,None,4,,,,,,,,,,,,,,234,230,237,400.27482989999953,400.3905345999992,400.3740164999999,400.57403650000015,4,1,0.2925455000004149,400.3740164999999,None,None,None,False,None,None,None,None,None,400.6987269000001,None,space,402.6906024,None,435.4915917999988,None,,32.76889850000043,,,,,,,,,,,,,,,,,,,,,,,,,,,,AG4EN28,1,0x5FB8,D:\CoScience\Logfiles\,2022_May_27_1215,Flanker,2020.1.3,59.937880381156035,
HHH HHH,HHHSHHH,0,S,,,,,,,,,0,0,0,0,16,0,192,0,,,,,,,0.9658970154359072,437.0775001999991,None,4,,,,,,,,,,,,,,204,200,207,436.57518869999876,436.69046379999963,436.67400029999953,436.8739401999992,4,1,0.3744329999990441,436.67400029999953,None,None,None,False,None,None,None,None,None,None,None,None,None,None,None,None,,,,,,,,,,,,,,,,,,,,,,,,,,,,,,AG4EN28,1,0x5FB8,D:\CoScience\Logfiles\,2022_May_27_1215,Flanker,2020.1.3,59.937880381156035,
HHH HHH,HHHSHHH,0,S,,,,,,,,,0,0,0,0,16,1,193,0,,,,,,,0.7838825195461359,438.37749019999865,None,4,,,,,,,,,,,,,,204,200,209,438.0569829999986,438.1571325999994,438.1406814000002,438.3406254999991,2,0,0.21575579999989714,438.1406814000002,None,None,None,False,None,None,None,None,None,None,None,None,None,None,None,None,,,,,,,,,,,,,,,,,,,,,,,,,,,,,,AG4EN28,1,0x5FB8,D:\CoScience\Logfiles\,2022_May_27_1215,Flanker,2020.1.3,59.937880381156035,
HHH HHH,HHHHHHH,30,H,,,,,,,,,0,0,0,0,16,2,194,11,,,,,,,0.9379814056359648,439.5932053999986,None,2,,,,,,,,,,,,,,234,230,237,439.1748998999992,439.2737565999996,439.25729820000015,439.4573298999985,2,1,0.30411780000031285,439.25729820000015,None,None,None,False,None,None,None,None,None,None,None,None,None,None,None,None,,,,,,,,,,,,,,,,,,,,,,,,,,,,,,AG4EN28,1,0x5FB8,D:\CoScience\Logfiles\,2022_May_27_1215,Flanker,2020.1.3,59.937880381156035,
HHS SHH,HHSSSHH,10,S,,,,,,,,,0,0,0,0,16,3,195,1,,,,,,,0.8775400251336851,440.9599557999991,None,4,,,,,,,,,,,,,,214,210,217,440.54179209999893,440.65718359999846,440.6405928999993,440.84069239999917,4,1,0.29782069999964733,440.6405928999993,None,None,None,False,None,None,None,None,None,None,None,None,None,None,None,None,,,,,,,,,,,,,,,,,,,,,,,,,,,,,,AG4EN28,1,0x5FB8,D:\CoScience\Logfiles\,2022_May_27_1215,Flanker,2020.1.3,59.937880381156035,
SSS SSS,SSSHSSS,0,H,,,,,,,,,0,0,0,0,16,4,196,6,,,,,,,0.9015675489771187,442.24260369999865,None,2,,,,,,,,,,,,,,204,200,209,441.84177089999866,441.9571670999994,441.94060199999876,442.14054509999914,4,0,0.2689750000008644,441.94060199999876,None,None,None,False,None,None,None,None,None,None,None,None,None,None,None,None,,,,,,,,,,,,,,,,,,,,,,,,,,,,,,AG4EN28,1,0x5FB8,D:\CoScience\Logfiles\,2022_May_27_1215,Flanker,2020.1.3,59.937880381156035,
HHS SHH,HHSSSHH,10,S,,,,,,,,,0,0,0,0,16,5,197,1,,,,,,,0.9296593915350886,443.5608142000001,None,4,,,,,,,,,,,,,,214,210,217,443.15848169999845,443.27375459999894,443.2571892999986,443.45726060000015,4,1,0.2812290000001667,443.2571892999986,None,None,None,False,None,None,None,None,None,None,None,None,None,None,None,None,,,,,,,,,,,,,,,,,,,,,,,,,,,,,,AG4EN28,1,0x5FB8,D:\CoScience\Logfiles\,2022_May_27_1215,Flanker,2020.1.3,59.937880381156035,
HHH HHH,HHHHHHH,30,H,,,,,,,,,0,0,0,0,16,6,198,10,,,,,,,0.8885210942391886,444.86066049999863,None,2,,,,,,,,,,,,,,234,230,237,444.491806,444.6071799000001,444.59033719999934,444.79055770000014,2,1,0.23606280000058177,444.59033719999934,None,None,None,False,None,None,None,None,None,None,None,None,None,None,None,None,,,,,,,,,,,,,,,,,,,,,,,,,,,,,,AG4EN28,1,0x5FB8,D:\CoScience\Logfiles\,2022_May_27_1215,Flanker,2020.1.3,59.937880381156035,
SSS SSS,SSSSSSS,30,S,,,,,,,,,0,0,0,0,16,7,199,5,,,,,,,0.8054296005194628,446.1441997000002,None,4,,,,,,,,,,,,,,234,230,237,445.7562199999993,445.8570936999986,445.8405217999989,446.04056390000005,4,1,0.2749678000000131,445.8405217999989,None,None,None,False,None,None,None,None,None,None,None,None,None,None,None,None,,,,,,,,,,,,,,,,,,,,,,,,,,,,,,AG4EN28,1,0x5FB8,D:\CoScience\Logfiles\,2022_May_27_1215,Flanker,2020.1.3,59.937880381156035,
HHH HHH,HHHSHHH,0,S,,,,,,,,,0,0,0,0,16,8,200,0,,,,,,,0.9059022766328415,447.3274100999988,None,4,,,,,,,,,,,,,,204,200,209,446.95828139999867,447.073836399999,447.0571556999985,447.25717639999857,2,0,0.2423226999999315,447.0571556999985,None,None,None,False,None,None,None,None,None,None,None,None,None,None,None,None,,,,,,,,,,,,,,,,,,,,,,,,,,,,,,AG4EN28,1,0x5FB8,D:\CoScience\Logfiles\,2022_May_27_1215,Flanker,2020.1.3,59.937880381156035,
SSS SSS,SSSSSSS,30,S,,,,,,,,,0,0,0,0,16,9,201,4,,,,,,,0.7760870250057057,448.64401670000007,None,4,,,,,,,,,,,,,,234,230,237,448.24157000000014,448.3406331999995,448.3406331999995,448.5406755999993,4,1,0.28475389999948675,448.3406331999995,None,None,None,False,None,None,None,None,None,None,None,None,None,None,None,None,,,,,,,,,,,,,,,,,,,,,,,,,,,,,,AG4EN28,1,0x5FB8,D:\CoScience\Logfiles\,2022_May_27_1215,Flanker,2020.1.3,59.937880381156035,
HSS SSH,HSSSSSH,20,S,,,,,,,,,0,0,0,0,16,10,202,2,,,,,,,0.9706481819990448,449.89419429999907,None,4,,,,,,,,,,,,,,224,220,227,449.4251695999992,449.5405071999994,449.5239357999999,449.72400469999957,4,1,0.34947360000114713,449.5239357999999,None,None,None,False,None,None,None,None,None,None,None,None,None,None,None,None,,,,,,,,,,,,,,,,,,,,,,,,,,,,,,AG4EN28,1,0x5FB8,D:\CoScience\Logfiles\,2022_May_27_1215,Flanker,2020.1.3,59.937880381156035,
HHH HHH,HHHSHHH,0,S,,,,,,,,,0,0,0,0,16,11,203,0,,,,,,,0.8707712187116535,451.2105869999996,None,4,,,,,,,,,,,,,,204,200,209,450.8748661999998,450.9739269999991,450.9739269999991,451.1738028,2,0,0.21054220000041823,450.9739269999991,None,None,None,False,None,None,None,None,None,None,None,None,None,None,None,None,,,,,,,,,,,,,,,,,,,,,,,,,,,,,,AG4EN28,1,0x5FB8,D:\CoScience\Logfiles\,2022_May_27_1215,Flanker,2020.1.3,59.937880381156035,
SSS SSS,SSSSSSS,30,S,,,,,,,,,0,0,0,0,17,0,204,3,,,,,,,0.9156690111355598,452.5272922999993,None,4,,,,,,,,,,,,,,234,230,237,452.0926105999988,452.20717909999985,452.1904375999984,452.3904301999992,4,1,0.3029583999996248,452.1904375999984,None,None,None,False,None,None,None,None,None,None,None,None,None,None,None,None,,,,,,,,,,,,,,,,,,,,,,,,,,,,,,AG4EN28,1,0x5FB8,D:\CoScience\Logfiles\,2022_May_27_1215,Flanker,2020.1.3,59.937880381156035,
SSH HSS,SSHHHSS,10,H,,,,,,,,,0,0,0,0,17,1,205,7,,,,,,,0.9450472673360111,453.9107469999999,None,2,,,,,,,,,,,,,,214,210,217,453.45776879999903,453.5571513999985,453.5571513999985,453.7573457999988,2,1,0.32524240000020654,453.5571513999985,None,None,None,False,None,None,None,None,None,None,None,None,None,None,None,None,,,,,,,,,,,,,,,,,,,,,,,,,,,,,,AG4EN28,1,0x5FB8,D:\CoScience\Logfiles\,2022_May_27_1215,Flanker,2020.1.3,59.937880381156035,
SSS SSS,SSSSSSS,30,S,,,,,,,,,0,0,0,0,17,2,206,4,,,,,,,0.7783505472800244,455.27749199999926,None,4,,,,,,,,,,,,,,234,230,239,454.85803999999916,454.95733219999966,454.95733219999966,455.1572639999995,2,0,0.28608389999862993,454.95733219999966,None,None,None,False,None,None,None,None,None,None,None,None,None,None,None,None,,,,,,,,,,,,,,,,,,,,,,,,,,,,,,AG4EN28,1,0x5FB8,D:\CoScience\Logfiles\,2022_May_27_1215,Flanker,2020.1.3,59.937880381156035,
HHH HHH,HHHSHHH,0,S,,,,,,,,,0,0,0,0,17,3,207,0,,,,,,,0.9883015958420664,456.5601881999992,None,4,,,,,,,,,,,,,,204,200,207,456.05834979999963,456.1737830000002,456.15720129999863,456.3570501999984,4,1,0.38429960000030405,456.15720129999863,None,None,None,False,None,None,None,None,None,None,None,None,None,None,None,None,,,,,,,,,,,,,,,,,,,,,,,,,,,,,,AG4EN28,1,0x5FB8,D:\CoScience\Logfiles\,2022_May_27_1215,Flanker,2020.1.3,59.937880381156035,
HHH HHH,HHHHHHH,30,H,,,,,,,,,0,0,0,0,17,4,208,9,,,,,,,0.8253132714297973,457.9435399999984,None,2,,,,,,,,,,,,,,234,230,237,457.55760909999844,457.6570770999988,457.6405393999994,457.8405907999986,2,1,0.28501589999905264,457.6405393999994,None,None,None,False,None,None,None,None,None,None,None,None,None,None,None,None,,,,,,,,,,,,,,,,,,,,,,,,,,,,,,AG4EN28,1,0x5FB8,D:\CoScience\Logfiles\,2022_May_27_1215,Flanker,2020.1.3,59.937880381156035,
SSS SSS,SSSSSSS,30,S,,,,,,,,,0,0,0,0,17,5,209,5,,,,,,,0.933572566283319,459.19401429999925,None,4,,,,,,,,,,,,,,234,230,237,458.7747651999998,458.8739236000001,458.8739236000001,459.07389650000005,4,1,0.3014901999995345,458.8739236000001,None,None,None,False,None,None,None,None,None,None,None,None,None,None,None,None,,,,,,,,,,,,,,,,,,,,,,,,,,,,,,AG4EN28,1,0x5FB8,D:\CoScience\Logfiles\,2022_May_27_1215,Flanker,2020.1.3,59.937880381156035,
