"Onset","Duration","Participant","date_time","Order_Experimenter","Response_Mapping","Running","Trial","Event","ExperimenterPresence","Congruency","Target","Response","Accuracy","RT","RT_Condition","Post_Trial","Cutoff","TaskPerf"
54.3719345999998,0.1,"AG4EN28","2022_May_27_1215","Present_First","S_blue","Practice",0,"PracFlankers",NA,1,"H","2",1,0.722893399999521,NA,NA,NA,77.0833333333333
54.4577307999989,0.2,"AG4EN28","2022_May_27_1215","Present_First","S_blue","Practice",0,"PracTarget",NA,1,"H","2",1,0.722893399999521,NA,NA,NA,77.0833333333333
55.1806241999984,0,"AG4EN28","2022_May_27_1215","Present_First","S_blue","Practice",0,"PracResponse",NA,1,"H","2",1,0.722893399999521,NA,NA,NA,77.0833333333333
56.0576203000001,0.1,"AG4EN28","2022_May_27_1215","Present_First","S_blue","Practice",1,"PracFlankers",NA,1,"H","2",1,0.436485400001402,NA,NA,NA,77.0833333333333
56.1411811999988,0.2,"AG4EN28","2022_May_27_1215","Present_First","S_blue","Practice",1,"PracTarget",NA,1,"H","2",1,0.436485400001402,NA,NA,NA,77.0833333333333
56.5776666000002,0,"AG4EN28","2022_May_27_1215","Present_First","S_blue","Practice",1,"PracResponse",NA,1,"H","2",1,0.436485400001402,NA,NA,NA,77.0833333333333
57.5428652999999,0.1,"AG4EN28","2022_May_27_1215","Present_First","S_blue","Practice",2,"PracFlankers",NA,0.33,"S","4",1,0.415606599999592,NA,NA,NA,77.0833333333333
57.6410758000002,0.2,"AG4EN28","2022_May_27_1215","Present_First","S_blue","Practice",2,"PracTarget",NA,0.33,"S","4",1,0.415606599999592,NA,NA,NA,77.0833333333333
58.0566823999998,0,"AG4EN28","2022_May_27_1215","Present_First","S_blue","Practice",2,"PracResponse",NA,0.33,"S","4",1,0.415606599999592,NA,NA,NA,77.0833333333333
58.8919559999995,0.1,"AG4EN28","2022_May_27_1215","Present_First","S_blue","Practice",3,"PracFlankers",NA,1,"S","4",1,0.358565200000157,NA,NA,NA,77.0833333333333
58.9911445999987,0.2,"AG4EN28","2022_May_27_1215","Present_First","S_blue","Practice",3,"PracTarget",NA,1,"S","4",1,0.358565200000157,NA,NA,NA,77.0833333333333
59.3497097999989,0,"AG4EN28","2022_May_27_1215","Present_First","S_blue","Practice",3,"PracResponse",NA,1,"S","4",1,0.358565200000157,NA,NA,NA,77.0833333333333
60.1752825999993,0.1,"AG4EN28","2022_May_27_1215","Present_First","S_blue","Practice",4,"PracFlankers",NA,0.33,"H","2",1,0.388679600000614,NA,NA,NA,77.0833333333333
60.2744791999994,0.2,"AG4EN28","2022_May_27_1215","Present_First","S_blue","Practice",4,"PracTarget",NA,0.33,"H","2",1,0.388679600000614,NA,NA,NA,77.0833333333333
60.6631588,0,"AG4EN28","2022_May_27_1215","Present_First","S_blue","Practice",4,"PracResponse",NA,0.33,"H","2",1,0.388679600000614,NA,NA,NA,77.0833333333333
61.6754179,0.1,"AG4EN28","2022_May_27_1215","Present_First","S_blue","Practice",5,"PracFlankers",NA,0.66,"S","4",1,0.335368799998832,NA,NA,NA,77.0833333333333
61.7744816999984,0.2,"AG4EN28","2022_May_27_1215","Present_First","S_blue","Practice",5,"PracTarget",NA,0.66,"S","4",1,0.335368799998832,NA,NA,NA,77.0833333333333
62.1098504999973,0,"AG4EN28","2022_May_27_1215","Present_First","S_blue","Practice",5,"PracResponse",NA,0.66,"S","4",1,0.335368799998832,NA,NA,NA,77.0833333333333
63.1244525000002,0.1,"AG4EN28","2022_May_27_1215","Present_First","S_blue","Practice",6,"PracFlankers",NA,1,"H","2",1,0.332203400001163,NA,NA,NA,77.0833333333333
63.2244885999989,0.2,"AG4EN28","2022_May_27_1215","Present_First","S_blue","Practice",6,"PracTarget",NA,1,"H","2",1,0.332203400001163,NA,NA,NA,77.0833333333333
63.5566920000001,0,"AG4EN28","2022_May_27_1215","Present_First","S_blue","Practice",6,"PracResponse",NA,1,"H","2",1,0.332203400001163,NA,NA,NA,77.0833333333333
64.4743916999996,0.1,"AG4EN28","2022_May_27_1215","Present_First","S_blue","Practice",7,"PracFlankers",NA,1,"H","2",1,0.343865400000141,NA,NA,NA,77.0833333333333
64.5577698999987,0.2,"AG4EN28","2022_May_27_1215","Present_First","S_blue","Practice",7,"PracTarget",NA,1,"H","2",1,0.343865400000141,NA,NA,NA,77.0833333333333
64.9016352999988,0,"AG4EN28","2022_May_27_1215","Present_First","S_blue","Practice",7,"PracResponse",NA,1,"H","2",1,0.343865400000141,NA,NA,NA,77.0833333333333
65.8416808999991,0.1,"AG4EN28","2022_May_27_1215","Present_First","S_blue","Practice",8,"PracFlankers",NA,0,"S","4",1,0.357395099999849,NA,NA,NA,77.0833333333333
65.9243806999984,0.2,"AG4EN28","2022_May_27_1215","Present_First","S_blue","Practice",8,"PracTarget",NA,0,"S","4",1,0.357395099999849,NA,NA,NA,77.0833333333333
66.2817757999983,0,"AG4EN28","2022_May_27_1215","Present_First","S_blue","Practice",8,"PracResponse",NA,0,"S","4",1,0.357395099999849,NA,NA,NA,77.0833333333333
67.2422009000002,0.1,"AG4EN28","2022_May_27_1215","Present_First","S_blue","Practice",9,"PracFlankers",NA,1,"S","4",1,0.280583899999328,NA,NA,NA,77.0833333333333
67.3410719999993,0.2,"AG4EN28","2022_May_27_1215","Present_First","S_blue","Practice",9,"PracTarget",NA,1,"S","4",1,0.280583899999328,NA,NA,NA,77.0833333333333
67.6216558999986,0,"AG4EN28","2022_May_27_1215","Present_First","S_blue","Practice",9,"PracResponse",NA,1,"S","4",1,0.280583899999328,NA,NA,NA,77.0833333333333
68.4589608999995,0.1,"AG4EN28","2022_May_27_1215","Present_First","S_blue","Practice",10,"PracFlankers",NA,0.66,"S","4",1,0.301660899998751,NA,NA,NA,77.0833333333333
68.5579096000001,0.2,"AG4EN28","2022_May_27_1215","Present_First","S_blue","Practice",10,"PracTarget",NA,0.66,"S","4",1,0.301660899998751,NA,NA,NA,77.0833333333333
68.8595704999989,0,"AG4EN28","2022_May_27_1215","Present_First","S_blue","Practice",10,"PracResponse",NA,0.66,"S","4",1,0.301660899998751,NA,NA,NA,77.0833333333333
69.7761449999998,0.1,"AG4EN28","2022_May_27_1215","Present_First","S_blue","Practice",11,"PracFlankers",NA,0,"H","2",1,0.417383699999846,NA,NA,NA,77.0833333333333
69.8743865999986,0.2,"AG4EN28","2022_May_27_1215","Present_First","S_blue","Practice",11,"PracTarget",NA,0,"H","2",1,0.417383699999846,NA,NA,NA,77.0833333333333
70.2917702999985,0,"AG4EN28","2022_May_27_1215","Present_First","S_blue","Practice",11,"PracResponse",NA,0,"H","2",1,0.417383699999846,NA,NA,NA,77.0833333333333
71.1248171999996,0.1,"AG4EN28","2022_May_27_1215","Present_First","S_blue","Practice",12,"PracFlankers",NA,1,"S","4",1,0.282565400000749,NA,NA,NA,77.0833333333333
71.2074266999989,0.2,"AG4EN28","2022_May_27_1215","Present_First","S_blue","Practice",12,"PracTarget",NA,1,"S","4",1,0.282565400000749,NA,NA,NA,77.0833333333333
71.4899920999997,0,"AG4EN28","2022_May_27_1215","Present_First","S_blue","Practice",12,"PracResponse",NA,1,"S","4",1,0.282565400000749,NA,NA,NA,77.0833333333333
72.3906590999995,0.1,"AG4EN28","2022_May_27_1215","Present_First","S_blue","Practice",13,"PracFlankers",NA,1,"S","4",1,0.335083599999052,NA,NA,NA,77.0833333333333
72.4745029999995,0.2,"AG4EN28","2022_May_27_1215","Present_First","S_blue","Practice",13,"PracTarget",NA,1,"S","4",1,0.335083599999052,NA,NA,NA,77.0833333333333
72.8095865999985,0,"AG4EN28","2022_May_27_1215","Present_First","S_blue","Practice",13,"PracResponse",NA,1,"S","4",1,0.335083599999052,NA,NA,NA,77.0833333333333
73.6387467999994,0.1,"AG4EN28","2022_May_27_1215","Present_First","S_blue","Practice",14,"PracFlankers",NA,0.66,"H","2",1,0.344144500000766,NA,NA,NA,77.0833333333333
73.7244233000001,0.2,"AG4EN28","2022_May_27_1215","Present_First","S_blue","Practice",14,"PracTarget",NA,0.66,"H","2",1,0.344144500000766,NA,NA,NA,77.0833333333333
74.0685678000009,0,"AG4EN28","2022_May_27_1215","Present_First","S_blue","Practice",14,"PracResponse",NA,0.66,"H","2",1,0.344144500000766,NA,NA,NA,77.0833333333333
112.203190099999,0.1,"AG4EN28","2022_May_27_1215","Present_First","S_blue","MainTask",0,"Flanker","present",1,"H","2",1,0.419862200000352,"slow",NA,0.415962010622025,77.0833333333333
112.290988199999,0.2,"AG4EN28","2022_May_27_1215","Present_First","S_blue","MainTask",0,"Target","present",1,"H","2",1,0.419862200000352,"slow",NA,0.415962010622025,77.0833333333333
112.710850399999,0,"AG4EN28","2022_May_27_1215","Present_First","S_blue","MainTask",0,"Response","present",1,"H","2",1,0.419862200000352,"slow",NA,0.415962010622025,77.0833333333333
112.747836799999,0.1,"AG4EN28","2022_May_27_1215","Present_First","S_blue","MainTask",0,"TooSlowFeedback","present",1,"H","2",1,0.419862200000352,"slow",NA,0.415962010622025,77.0833333333333
114.557070299999,0.1,"AG4EN28","2022_May_27_1215","Present_First","S_blue","MainTask",1,"Flanker","present",1,"H","2",1,0.338029600001391,"fast","post_correct",0.415962010622025,77.0833333333333
114.641,0.2,"AG4EN28","2022_May_27_1215","Present_First","S_blue","MainTask",1,"Target","present",1,"H","2",1,0.338029600001391,"fast","post_correct",0.415962010622025,77.0833333333333
114.979029600001,0,"AG4EN28","2022_May_27_1215","Present_First","S_blue","MainTask",1,"Response","present",1,"H","2",1,0.338029600001391,"fast","post_correct",0.415962010622025,77.0833333333333
116.007519199999,0.1,"AG4EN28","2022_May_27_1215","Present_First","S_blue","MainTask",2,"Flanker","present",1,"H","2",1,0.302858099999867,"fast","post_correct",0.415962010622025,77.0833333333333
116.090926699999,0.2,"AG4EN28","2022_May_27_1215","Present_First","S_blue","MainTask",2,"Target","present",1,"H","2",1,0.302858099999867,"fast","post_correct",0.415962010622025,77.0833333333333
116.393784799999,0,"AG4EN28","2022_May_27_1215","Present_First","S_blue","MainTask",2,"Response","present",1,"H","2",1,0.302858099999867,"fast","post_correct",0.415962010622025,77.0833333333333
117.225277399999,0.1,"AG4EN28","2022_May_27_1215","Present_First","S_blue","MainTask",3,"Flanker","present",0.33,"H","2",1,0.375485599999593,"fast","post_correct",0.415962010622025,77.0833333333333
117.3243616,0.2,"AG4EN28","2022_May_27_1215","Present_First","S_blue","MainTask",3,"Target","present",0.33,"H","2",1,0.375485599999593,"fast","post_correct",0.415962010622025,77.0833333333333
117.6998472,0,"AG4EN28","2022_May_27_1215","Present_First","S_blue","MainTask",3,"Response","present",0.33,"H","2",1,0.375485599999593,"fast","post_correct",0.415962010622025,77.0833333333333
118.6262147,0.1,"AG4EN28","2022_May_27_1215","Present_First","S_blue","MainTask",4,"Flanker","present",1,"S","2",0,0.290552899999966,"fast","post_correct",0.415962010622025,77.0833333333333
118.724372799999,0.2,"AG4EN28","2022_May_27_1215","Present_First","S_blue","MainTask",4,"Target","present",1,"S","2",0,0.290552899999966,"fast","post_correct",0.415962010622025,77.0833333333333
119.014925699999,0,"AG4EN28","2022_May_27_1215","Present_First","S_blue","MainTask",4,"Response","present",1,"S","2",0,0.290552899999966,"fast","post_correct",0.415962010622025,77.0833333333333
119.824289999999,0.1,"AG4EN28","2022_May_27_1215","Present_First","S_blue","MainTask",5,"Flanker","present",1,"S","4",1,0.286255299999539,"fast","post_error",0.415962010622025,77.0833333333333
119.907699599999,0.2,"AG4EN28","2022_May_27_1215","Present_First","S_blue","MainTask",5,"Target","present",1,"S","4",1,0.286255299999539,"fast","post_error",0.415962010622025,77.0833333333333
120.193954899998,0,"AG4EN28","2022_May_27_1215","Present_First","S_blue","MainTask",5,"Response","present",1,"S","4",1,0.286255299999539,"fast","post_error",0.415962010622025,77.0833333333333
121.176242099998,0.1,"AG4EN28","2022_May_27_1215","Present_First","S_blue","MainTask",6,"Flanker","present",0,"S","4",1,0.295960499999637,"fast","post_correct",0.415962010622025,77.0833333333333
121.273871599999,0.2,"AG4EN28","2022_May_27_1215","Present_First","S_blue","MainTask",6,"Target","present",0,"S","4",1,0.295960499999637,"fast","post_correct",0.415962010622025,77.0833333333333
121.569832099998,0,"AG4EN28","2022_May_27_1215","Present_First","S_blue","MainTask",6,"Response","present",0,"S","4",1,0.295960499999637,"fast","post_correct",0.415962010622025,77.0833333333333
122.457862899999,0.1,"AG4EN28","2022_May_27_1215","Present_First","S_blue","MainTask",7,"Flanker","present",1,"S","4",1,0.275099199998294,"fast","post_correct",0.415962010622025,77.0833333333333
122.557796199999,0.2,"AG4EN28","2022_May_27_1215","Present_First","S_blue","MainTask",7,"Target","present",1,"S","4",1,0.275099199998294,"fast","post_correct",0.415962010622025,77.0833333333333
122.832895399997,0,"AG4EN28","2022_May_27_1215","Present_First","S_blue","MainTask",7,"Response","present",1,"S","4",1,0.275099199998294,"fast","post_correct",0.415962010622025,77.0833333333333
123.7587243,0.1,"AG4EN28","2022_May_27_1215","Present_First","S_blue","MainTask",8,"Flanker","present",1,"H","2",1,0.260284300000421,"fast","post_correct",0.415962010622025,77.0833333333333
123.857571499999,0.2,"AG4EN28","2022_May_27_1215","Present_First","S_blue","MainTask",8,"Target","present",1,"H","2",1,0.260284300000421,"fast","post_correct",0.415962010622025,77.0833333333333
124.117855799999,0,"AG4EN28","2022_May_27_1215","Present_First","S_blue","MainTask",8,"Response","present",1,"H","2",1,0.260284300000421,"fast","post_correct",0.415962010622025,77.0833333333333
124.907978199999,0.1,"AG4EN28","2022_May_27_1215","Present_First","S_blue","MainTask",9,"Flanker","present",0,"S","4",1,0.360095300000467,"fast","post_correct",0.415962010622025,77.0833333333333
124.990954499999,0.2,"AG4EN28","2022_May_27_1215","Present_First","S_blue","MainTask",9,"Target","present",0,"S","4",1,0.360095300000467,"fast","post_correct",0.415962010622025,77.0833333333333
125.3510498,0,"AG4EN28","2022_May_27_1215","Present_First","S_blue","MainTask",9,"Response","present",0,"S","4",1,0.360095300000467,"fast","post_correct",0.415962010622025,77.0833333333333
126.241821,0.1,"AG4EN28","2022_May_27_1215","Present_First","S_blue","MainTask",10,"Flanker","present",0.66,"S","2",0,0.212847200000397,"fast","post_correct",0.415962010622025,77.0833333333333
126.341064999999,0.2,"AG4EN28","2022_May_27_1215","Present_First","S_blue","MainTask",10,"Target","present",0.66,"S","2",0,0.212847200000397,"fast","post_correct",0.415962010622025,77.0833333333333
126.553912199999,0,"AG4EN28","2022_May_27_1215","Present_First","S_blue","MainTask",10,"Response","present",0.66,"S","2",0,0.212847200000397,"fast","post_correct",0.415962010622025,77.0833333333333
127.458524199999,0.1,"AG4EN28","2022_May_27_1215","Present_First","S_blue","MainTask",11,"Flanker","present",0.33,"S","4",1,0.306234900001073,"fast","post_error",0.415962010622025,77.0833333333333
127.5577514,0.2,"AG4EN28","2022_May_27_1215","Present_First","S_blue","MainTask",11,"Target","present",0.33,"S","4",1,0.306234900001073,"fast","post_error",0.415962010622025,77.0833333333333
127.863986300001,0,"AG4EN28","2022_May_27_1215","Present_First","S_blue","MainTask",11,"Response","present",0.33,"S","4",1,0.306234900001073,"fast","post_error",0.415962010622025,77.0833333333333
128.774143299999,0.1,"AG4EN28","2022_May_27_1215","Present_First","S_blue","MainTask",12,"Flanker","present",0.33,"S","4",1,0.249238500000502,"fast","post_correct",0.415962010622025,77.0833333333333
128.8577412,0.2,"AG4EN28","2022_May_27_1215","Present_First","S_blue","MainTask",12,"Target","present",0.33,"S","4",1,0.249238500000502,"fast","post_correct",0.415962010622025,77.0833333333333
129.1069797,0,"AG4EN28","2022_May_27_1215","Present_First","S_blue","MainTask",12,"Response","present",0.33,"S","4",1,0.249238500000502,"fast","post_correct",0.415962010622025,77.0833333333333
129.992913799999,0.1,"AG4EN28","2022_May_27_1215","Present_First","S_blue","MainTask",13,"Flanker","present",1,"H","2",1,0.300743600000715,"fast","post_correct",0.415962010622025,77.0833333333333
130.091062,0.2,"AG4EN28","2022_May_27_1215","Present_First","S_blue","MainTask",13,"Target","present",1,"H","2",1,0.300743600000715,"fast","post_correct",0.415962010622025,77.0833333333333
130.3918056,0,"AG4EN28","2022_May_27_1215","Present_First","S_blue","MainTask",13,"Response","present",1,"H","2",1,0.300743600000715,"fast","post_correct",0.415962010622025,77.0833333333333
131.2754384,0.1,"AG4EN28","2022_May_27_1215","Present_First","S_blue","MainTask",14,"Flanker","present",0.33,"S","4",1,0.268424199999572,"fast","post_correct",0.415962010622025,77.0833333333333
131.3744276,0.2,"AG4EN28","2022_May_27_1215","Present_First","S_blue","MainTask",14,"Target","present",0.33,"S","4",1,0.268424199999572,"fast","post_correct",0.415962010622025,77.0833333333333
131.642851799999,0,"AG4EN28","2022_May_27_1215","Present_First","S_blue","MainTask",14,"Response","present",0.33,"S","4",1,0.268424199999572,"fast","post_correct",0.415962010622025,77.0833333333333
132.592233199999,0.1,"AG4EN28","2022_May_27_1215","Present_First","S_blue","MainTask",15,"Flanker","present",0.66,"S","4",1,0.205806399999346,"fast","post_correct",0.415962010622025,77.0833333333333
132.6911009,0.2,"AG4EN28","2022_May_27_1215","Present_First","S_blue","MainTask",15,"Target","present",0.66,"S","4",1,0.205806399999346,"fast","post_correct",0.415962010622025,77.0833333333333
132.896907299999,0,"AG4EN28","2022_May_27_1215","Present_First","S_blue","MainTask",15,"Response","present",0.66,"S","4",1,0.205806399999346,"fast","post_correct",0.415962010622025,77.0833333333333
133.726345699999,0.1,"AG4EN28","2022_May_27_1215","Present_First","S_blue","MainTask",16,"Flanker","present",0,"H","4",0,0.313987800000177,"fast","post_correct",0.415962010622025,77.0833333333333
133.824311999999,0.2,"AG4EN28","2022_May_27_1215","Present_First","S_blue","MainTask",16,"Target","present",0,"H","4",0,0.313987800000177,"fast","post_correct",0.415962010622025,77.0833333333333
134.138299799999,0,"AG4EN28","2022_May_27_1215","Present_First","S_blue","MainTask",16,"Response","present",0,"H","4",0,0.313987800000177,"fast","post_correct",0.415962010622025,77.0833333333333
135.1587076,0.1,"AG4EN28","2022_May_27_1215","Present_First","S_blue","MainTask",17,"Flanker","present",1,"H","2",1,0.247164399999747,"fast","post_error",0.415962010622025,77.0833333333333
135.257657299999,0.2,"AG4EN28","2022_May_27_1215","Present_First","S_blue","MainTask",17,"Target","present",1,"H","2",1,0.247164399999747,"fast","post_error",0.415962010622025,77.0833333333333
135.504821699999,0,"AG4EN28","2022_May_27_1215","Present_First","S_blue","MainTask",17,"Response","present",1,"H","2",1,0.247164399999747,"fast","post_error",0.415962010622025,77.0833333333333
136.4752247,0.1,"AG4EN28","2022_May_27_1215","Present_First","S_blue","MainTask",18,"Flanker","present",0.66,"S","4",1,0.257453900001565,"fast","post_correct",0.415962010622025,77.0833333333333
136.574368399999,0.2,"AG4EN28","2022_May_27_1215","Present_First","S_blue","MainTask",18,"Target","present",0.66,"S","4",1,0.257453900001565,"fast","post_correct",0.415962010622025,77.0833333333333
136.831822300001,0,"AG4EN28","2022_May_27_1215","Present_First","S_blue","MainTask",18,"Response","present",0.66,"S","4",1,0.257453900001565,"fast","post_correct",0.415962010622025,77.0833333333333
137.708707799999,0.1,"AG4EN28","2022_May_27_1215","Present_First","S_blue","MainTask",19,"Flanker","present",1,"S","4",1,0.327127300000939,"fast","post_correct",0.415962010622025,77.0833333333333
137.807719999999,0.2,"AG4EN28","2022_May_27_1215","Present_First","S_blue","MainTask",19,"Target","present",1,"S","4",1,0.327127300000939,"fast","post_correct",0.415962010622025,77.0833333333333
138.1348473,0,"AG4EN28","2022_May_27_1215","Present_First","S_blue","MainTask",19,"Response","present",1,"S","4",1,0.327127300000939,"fast","post_correct",0.415962010622025,77.0833333333333
139.074075499999,0.1,"AG4EN28","2022_May_27_1215","Present_First","S_blue","MainTask",20,"Flanker","present",1,"S","2",0,0.220068900000115,"fast","post_correct",0.415962010622025,77.0833333333333
139.157735299999,0.2,"AG4EN28","2022_May_27_1215","Present_First","S_blue","MainTask",20,"Target","present",1,"S","2",0,0.220068900000115,"fast","post_correct",0.415962010622025,77.0833333333333
139.377804199999,0,"AG4EN28","2022_May_27_1215","Present_First","S_blue","MainTask",20,"Response","present",1,"S","2",0,0.220068900000115,"fast","post_correct",0.415962010622025,77.0833333333333
140.22517,0.1,"AG4EN28","2022_May_27_1215","Present_First","S_blue","MainTask",21,"Flanker","present",1,"H","4",0,0.365458100000978,"fast","post_error",0.415962010622025,77.0833333333333
140.324340699999,0.2,"AG4EN28","2022_May_27_1215","Present_First","S_blue","MainTask",21,"Target","present",1,"H","4",0,0.365458100000978,"fast","post_error",0.415962010622025,77.0833333333333
140.6897988,0,"AG4EN28","2022_May_27_1215","Present_First","S_blue","MainTask",21,"Response","present",1,"H","4",0,0.365458100000978,"fast","post_error",0.415962010622025,77.0833333333333
141.690788599999,0.1,"AG4EN28","2022_May_27_1215","Present_First","S_blue","MainTask",22,"Flanker","present",1,"H","2",1,0.353438300000562,"fast","post_error",0.415962010622025,77.0833333333333
141.7743866,0.2,"AG4EN28","2022_May_27_1215","Present_First","S_blue","MainTask",22,"Target","present",1,"H","2",1,0.353438300000562,"fast","post_error",0.415962010622025,77.0833333333333
142.127824900001,0,"AG4EN28","2022_May_27_1215","Present_First","S_blue","MainTask",22,"Response","present",1,"H","2",1,0.353438300000562,"fast","post_error",0.415962010622025,77.0833333333333
142.9585362,0.1,"AG4EN28","2022_May_27_1215","Present_First","S_blue","MainTask",23,"Flanker","present",0,"S","2",0,0.264805799999522,"fast","post_correct",0.415962010622025,77.0833333333333
143.041050599999,0.2,"AG4EN28","2022_May_27_1215","Present_First","S_blue","MainTask",23,"Target","present",0,"S","2",0,0.264805799999522,"fast","post_correct",0.415962010622025,77.0833333333333
143.305856399998,0,"AG4EN28","2022_May_27_1215","Present_First","S_blue","MainTask",23,"Response","present",0,"S","2",0,0.264805799999522,"fast","post_correct",0.415962010622025,77.0833333333333
144.325229999999,0.1,"AG4EN28","2022_May_27_1215","Present_First","S_blue","MainTask",24,"Flanker","present",0.66,"S","4",1,0.278705599999739,"fast","post_error",0.415962010622025,77.0833333333333
144.4242366,0.2,"AG4EN28","2022_May_27_1215","Present_First","S_blue","MainTask",24,"Target","present",0.66,"S","4",1,0.278705599999739,"fast","post_error",0.415962010622025,77.0833333333333
144.7029422,0,"AG4EN28","2022_May_27_1215","Present_First","S_blue","MainTask",24,"Response","present",0.66,"S","4",1,0.278705599999739,"fast","post_error",0.415962010622025,77.0833333333333
145.6752454,0.1,"AG4EN28","2022_May_27_1215","Present_First","S_blue","MainTask",25,"Flanker","present",0,"H","4",0,0.228443399999378,"fast","post_correct",0.415962010622025,77.0833333333333
145.774348399998,0.2,"AG4EN28","2022_May_27_1215","Present_First","S_blue","MainTask",25,"Target","present",0,"H","4",0,0.228443399999378,"fast","post_correct",0.415962010622025,77.0833333333333
146.002791799998,0,"AG4EN28","2022_May_27_1215","Present_First","S_blue","MainTask",25,"Response","present",0,"H","4",0,0.228443399999378,"fast","post_correct",0.415962010622025,77.0833333333333
146.9262674,0.1,"AG4EN28","2022_May_27_1215","Present_First","S_blue","MainTask",26,"Flanker","present",1,"H","2",1,0.358496599999853,"fast","post_error",0.415962010622025,77.0833333333333
147.024296399999,0.2,"AG4EN28","2022_May_27_1215","Present_First","S_blue","MainTask",26,"Target","present",1,"H","2",1,0.358496599999853,"fast","post_error",0.415962010622025,77.0833333333333
147.382792999999,0,"AG4EN28","2022_May_27_1215","Present_First","S_blue","MainTask",26,"Response","present",1,"H","2",1,0.358496599999853,"fast","post_error",0.415962010622025,77.0833333333333
148.342183199999,0.1,"AG4EN28","2022_May_27_1215","Present_First","S_blue","MainTask",27,"Flanker","present",0,"H","4",0,0.34877779999988,"fast","post_correct",0.415962010622025,77.0833333333333
148.441019299999,0.2,"AG4EN28","2022_May_27_1215","Present_First","S_blue","MainTask",27,"Target","present",0,"H","4",0,0.34877779999988,"fast","post_correct",0.415962010622025,77.0833333333333
148.789797099998,0,"AG4EN28","2022_May_27_1215","Present_First","S_blue","MainTask",27,"Response","present",0,"H","4",0,0.34877779999988,"fast","post_correct",0.415962010622025,77.0833333333333
149.625416199999,0.1,"AG4EN28","2022_May_27_1215","Present_First","S_blue","MainTask",28,"Flanker","present",0.33,"S","2",0,0.348535300001458,"fast","post_error",0.415962010622025,77.0833333333333
149.724283,0.2,"AG4EN28","2022_May_27_1215","Present_First","S_blue","MainTask",28,"Target","present",0.33,"S","2",0,0.348535300001458,"fast","post_error",0.415962010622025,77.0833333333333
150.072818300001,0,"AG4EN28","2022_May_27_1215","Present_First","S_blue","MainTask",28,"Response","present",0.33,"S","2",0,0.348535300001458,"fast","post_error",0.415962010622025,77.0833333333333
150.9250796,0.1,"AG4EN28","2022_May_27_1215","Present_First","S_blue","MainTask",29,"Flanker","present",0.33,"H","2",1,0.371174900001279,"fast","post_error",0.415962010622025,77.0833333333333
151.0236362,0.2,"AG4EN28","2022_May_27_1215","Present_First","S_blue","MainTask",29,"Target","present",0.33,"H","2",1,0.371174900001279,"fast","post_error",0.415962010622025,77.0833333333333
151.394811100001,0,"AG4EN28","2022_May_27_1215","Present_First","S_blue","MainTask",29,"Response","present",0.33,"H","2",1,0.371174900001279,"fast","post_error",0.415962010622025,77.0833333333333
152.4066914,0.1,"AG4EN28","2022_May_27_1215","Present_First","S_blue","MainTask",30,"Flanker","present",0.33,"H","4",0,0.218008900001223,"fast","post_correct",0.415962010622025,77.0833333333333
152.4902387,0.2,"AG4EN28","2022_May_27_1215","Present_First","S_blue","MainTask",30,"Target","present",0.33,"H","4",0,0.218008900001223,"fast","post_correct",0.415962010622025,77.0833333333333
152.708247600001,0,"AG4EN28","2022_May_27_1215","Present_First","S_blue","MainTask",30,"Response","present",0.33,"H","4",0,0.218008900001223,"fast","post_correct",0.415962010622025,77.0833333333333
153.5415438,0.1,"AG4EN28","2022_May_27_1215","Present_First","S_blue","MainTask",31,"Flanker","present",1,"S","4",1,0.293512899999769,"fast","post_error",0.415962010622025,77.0833333333333
153.641014999999,0.2,"AG4EN28","2022_May_27_1215","Present_First","S_blue","MainTask",31,"Target","present",1,"S","4",1,0.293512899999769,"fast","post_error",0.415962010622025,77.0833333333333
153.934527899999,0,"AG4EN28","2022_May_27_1215","Present_First","S_blue","MainTask",31,"Response","present",1,"S","4",1,0.293512899999769,"fast","post_error",0.415962010622025,77.0833333333333
154.9575245,0.1,"AG4EN28","2022_May_27_1215","Present_First","S_blue","MainTask",32,"Flanker","present",1,"S","4",1,0.270806699998502,"fast","post_correct",0.415962010622025,77.0833333333333
155.0409707,0.2,"AG4EN28","2022_May_27_1215","Present_First","S_blue","MainTask",32,"Target","present",1,"S","4",1,0.270806699998502,"fast","post_correct",0.415962010622025,77.0833333333333
155.311777399998,0,"AG4EN28","2022_May_27_1215","Present_First","S_blue","MainTask",32,"Response","present",1,"S","4",1,0.270806699998502,"fast","post_correct",0.415962010622025,77.0833333333333
156.1751761,0.1,"AG4EN28","2022_May_27_1215","Present_First","S_blue","MainTask",33,"Flanker","present",0,"S","2",0,0.224001399999906,"fast","post_correct",0.415962010622025,77.0833333333333
156.273916,0.2,"AG4EN28","2022_May_27_1215","Present_First","S_blue","MainTask",33,"Target","present",0,"S","2",0,0.224001399999906,"fast","post_correct",0.415962010622025,77.0833333333333
156.4979174,0,"AG4EN28","2022_May_27_1215","Present_First","S_blue","MainTask",33,"Response","present",0,"S","2",0,0.224001399999906,"fast","post_correct",0.415962010622025,77.0833333333333
157.375417699999,0.1,"AG4EN28","2022_May_27_1215","Present_First","S_blue","MainTask",34,"Flanker","present",0,"H","4",0,0.361541700000089,"fast","post_error",0.415962010622025,77.0833333333333
157.4743681,0.2,"AG4EN28","2022_May_27_1215","Present_First","S_blue","MainTask",34,"Target","present",0,"H","4",0,0.361541700000089,"fast","post_error",0.415962010622025,77.0833333333333
157.8359098,0,"AG4EN28","2022_May_27_1215","Present_First","S_blue","MainTask",34,"Response","present",0,"H","4",0,0.361541700000089,"fast","post_error",0.415962010622025,77.0833333333333
157.8652172,11.3566067000011,"AG4EN28","2022_May_27_1215","Present_First","S_blue","MainTask",34,"ReminderInstructions",NA,NA,NA,NA,NA,11.3566067000011,"slow","post_error",0.415962010622025,77.0833333333333
170.225331399999,0.1,"AG4EN28","2022_May_27_1215","Present_First","S_blue","MainTask",35,"Flanker","present",0.33,"H","2",1,0.362702999998874,"fast","post_reminder",0.415962010622025,77.0833333333333
170.324222199999,0.2,"AG4EN28","2022_May_27_1215","Present_First","S_blue","MainTask",35,"Target","present",0.33,"H","2",1,0.362702999998874,"fast","post_reminder",0.415962010622025,77.0833333333333
170.686925199998,0,"AG4EN28","2022_May_27_1215","Present_First","S_blue","MainTask",35,"Response","present",0.33,"H","2",1,0.362702999998874,"fast","post_reminder",0.415962010622025,77.0833333333333
171.542774099998,0.1,"AG4EN28","2022_May_27_1215","Present_First","S_blue","MainTask",36,"Flanker","present",1,"H","2",1,0.288750299998355,"fast","post_correct",0.415962010622025,77.0833333333333
171.6410065,0.2,"AG4EN28","2022_May_27_1215","Present_First","S_blue","MainTask",36,"Target","present",1,"H","2",1,0.288750299998355,"fast","post_correct",0.415962010622025,77.0833333333333
171.929756799998,0,"AG4EN28","2022_May_27_1215","Present_First","S_blue","MainTask",36,"Response","present",1,"H","2",1,0.288750299998355,"fast","post_correct",0.415962010622025,77.0833333333333
172.826257799999,0.1,"AG4EN28","2022_May_27_1215","Present_First","S_blue","MainTask",37,"Flanker","present",0.66,"H","2",1,0.386427800000092,"fast","post_correct",0.415962010622025,77.0833333333333
172.924437399999,0.2,"AG4EN28","2022_May_27_1215","Present_First","S_blue","MainTask",37,"Target","present",0.66,"H","2",1,0.386427800000092,"fast","post_correct",0.415962010622025,77.0833333333333
173.310865199999,0,"AG4EN28","2022_May_27_1215","Present_First","S_blue","MainTask",37,"Response","present",0.66,"H","2",1,0.386427800000092,"fast","post_correct",0.415962010622025,77.0833333333333
174.225498299998,0.1,"AG4EN28","2022_May_27_1215","Present_First","S_blue","MainTask",38,"Flanker","present",0.33,"S","2",0,0.191666799999439,"fast","post_correct",0.415962010622025,77.0833333333333
174.324243399999,0.2,"AG4EN28","2022_May_27_1215","Present_First","S_blue","MainTask",38,"Target","present",0.33,"S","2",0,0.191666799999439,"fast","post_correct",0.415962010622025,77.0833333333333
174.515910199998,0,"AG4EN28","2022_May_27_1215","Present_First","S_blue","MainTask",38,"Response","present",0.33,"S","2",0,0.191666799999439,"fast","post_correct",0.415962010622025,77.0833333333333
175.540696399999,0.1,"AG4EN28","2022_May_27_1215","Present_First","S_blue","MainTask",39,"Flanker","present",0.33,"S","2",0,0.317574099999547,"fast","post_error",0.415962010622025,77.0833333333333
175.6243438,0.2,"AG4EN28","2022_May_27_1215","Present_First","S_blue","MainTask",39,"Target","present",0.33,"S","2",0,0.317574099999547,"fast","post_error",0.415962010622025,77.0833333333333
175.9419179,0,"AG4EN28","2022_May_27_1215","Present_First","S_blue","MainTask",39,"Response","present",0.33,"S","2",0,0.317574099999547,"fast","post_error",0.415962010622025,77.0833333333333
176.742086499999,0.1,"AG4EN28","2022_May_27_1215","Present_First","S_blue","MainTask",40,"Flanker","present",1,"H","2",1,0.343081099999836,"fast","post_error",0.415962010622025,77.0833333333333
176.8408843,0.2,"AG4EN28","2022_May_27_1215","Present_First","S_blue","MainTask",40,"Target","present",1,"H","2",1,0.343081099999836,"fast","post_error",0.415962010622025,77.0833333333333
177.1839654,0,"AG4EN28","2022_May_27_1215","Present_First","S_blue","MainTask",40,"Response","present",1,"H","2",1,0.343081099999836,"fast","post_error",0.415962010622025,77.0833333333333
178.1586357,0.1,"AG4EN28","2022_May_27_1215","Present_First","S_blue","MainTask",41,"Flanker","present",1,"S","4",1,0.250281299999187,"fast","post_correct",0.415962010622025,77.0833333333333
178.257613199999,0.2,"AG4EN28","2022_May_27_1215","Present_First","S_blue","MainTask",41,"Target","present",1,"S","4",1,0.250281299999187,"fast","post_correct",0.415962010622025,77.0833333333333
178.507894499999,0,"AG4EN28","2022_May_27_1215","Present_First","S_blue","MainTask",41,"Response","present",1,"S","4",1,0.250281299999187,"fast","post_correct",0.415962010622025,77.0833333333333
179.342826299999,0.1,"AG4EN28","2022_May_27_1215","Present_First","S_blue","MainTask",42,"Flanker","present",0.66,"H","2",1,0.305086300000767,"fast","post_correct",0.415962010622025,77.0833333333333
179.440929299999,0.2,"AG4EN28","2022_May_27_1215","Present_First","S_blue","MainTask",42,"Target","present",0.66,"H","2",1,0.305086300000767,"fast","post_correct",0.415962010622025,77.0833333333333
179.7460156,0,"AG4EN28","2022_May_27_1215","Present_First","S_blue","MainTask",42,"Response","present",0.66,"H","2",1,0.305086300000767,"fast","post_correct",0.415962010622025,77.0833333333333
180.7084469,0.1,"AG4EN28","2022_May_27_1215","Present_First","S_blue","MainTask",43,"Flanker","present",1,"S","4",1,0.353567100000873,"fast","post_correct",0.415962010622025,77.0833333333333
180.807266599999,0.2,"AG4EN28","2022_May_27_1215","Present_First","S_blue","MainTask",43,"Target","present",1,"S","4",1,0.353567100000873,"fast","post_correct",0.415962010622025,77.0833333333333
181.1608337,0,"AG4EN28","2022_May_27_1215","Present_First","S_blue","MainTask",43,"Response","present",1,"S","4",1,0.353567100000873,"fast","post_correct",0.415962010622025,77.0833333333333
182.1420081,0.1,"AG4EN28","2022_May_27_1215","Present_First","S_blue","MainTask",44,"Flanker","present",0,"H","2",1,0.421457300000839,"slow","post_correct",0.415962010622025,77.0833333333333
182.2242897,0.2,"AG4EN28","2022_May_27_1215","Present_First","S_blue","MainTask",44,"Target","present",0,"H","2",1,0.421457300000839,"slow","post_correct",0.415962010622025,77.0833333333333
182.645747,0,"AG4EN28","2022_May_27_1215","Present_First","S_blue","MainTask",44,"Response","present",0,"H","2",1,0.421457300000839,"slow","post_correct",0.415962010622025,77.0833333333333
182.680106899999,0.1,"AG4EN28","2022_May_27_1215","Present_First","S_blue","MainTask",44,"TooSlowFeedback","present",0,"H","2",1,0.421457300000839,"slow","post_correct",0.415962010622025,77.0833333333333
184.591151999999,0.1,"AG4EN28","2022_May_27_1215","Present_First","S_blue","MainTask",45,"Flanker","present",1,"H","2",1,0.281788300000699,"fast","post_correct",0.415962010622025,77.0833333333333
184.6909521,0.2,"AG4EN28","2022_May_27_1215","Present_First","S_blue","MainTask",45,"Target","present",1,"H","2",1,0.281788300000699,"fast","post_correct",0.415962010622025,77.0833333333333
184.9727404,0,"AG4EN28","2022_May_27_1215","Present_First","S_blue","MainTask",45,"Response","present",1,"H","2",1,0.281788300000699,"fast","post_correct",0.415962010622025,77.0833333333333
185.9087138,0.1,"AG4EN28","2022_May_27_1215","Present_First","S_blue","MainTask",46,"Flanker","present",1,"S","4",1,0.244375600001149,"fast","post_correct",0.415962010622025,77.0833333333333
186.007459699998,0.2,"AG4EN28","2022_May_27_1215","Present_First","S_blue","MainTask",46,"Target","present",1,"S","4",1,0.244375600001149,"fast","post_correct",0.415962010622025,77.0833333333333
186.2518353,0,"AG4EN28","2022_May_27_1215","Present_First","S_blue","MainTask",46,"Response","present",1,"S","4",1,0.244375600001149,"fast","post_correct",0.415962010622025,77.0833333333333
187.073576699999,0.1,"AG4EN28","2022_May_27_1215","Present_First","S_blue","MainTask",47,"Flanker","present",1,"S","4",1,0.293237500000032,"fast","post_correct",0.415962010622025,77.0833333333333
187.1576553,0.2,"AG4EN28","2022_May_27_1215","Present_First","S_blue","MainTask",47,"Target","present",1,"S","4",1,0.293237500000032,"fast","post_correct",0.415962010622025,77.0833333333333
187.4508928,0,"AG4EN28","2022_May_27_1215","Present_First","S_blue","MainTask",47,"Response","present",1,"S","4",1,0.293237500000032,"fast","post_correct",0.415962010622025,77.0833333333333
188.258497699999,0.1,"AG4EN28","2022_May_27_1215","Present_First","S_blue","MainTask",48,"Flanker","present",0,"S","2",0,0.267119799998909,"fast","post_correct",0.415962010622025,77.0833333333333
188.3576588,0.2,"AG4EN28","2022_May_27_1215","Present_First","S_blue","MainTask",48,"Target","present",0,"S","2",0,0.267119799998909,"fast","post_correct",0.415962010622025,77.0833333333333
188.624778599999,0,"AG4EN28","2022_May_27_1215","Present_First","S_blue","MainTask",48,"Response","present",0,"S","2",0,0.267119799998909,"fast","post_correct",0.415962010622025,77.0833333333333
189.640819999999,0.1,"AG4EN28","2022_May_27_1215","Present_First","S_blue","MainTask",49,"Flanker","present",0,"S","2",0,0.257551200000307,"fast","post_error",0.415962010622025,77.0833333333333
189.7241808,0.2,"AG4EN28","2022_May_27_1215","Present_First","S_blue","MainTask",49,"Target","present",0,"S","2",0,0.257551200000307,"fast","post_error",0.415962010622025,77.0833333333333
189.981732,0,"AG4EN28","2022_May_27_1215","Present_First","S_blue","MainTask",49,"Response","present",0,"S","2",0,0.257551200000307,"fast","post_error",0.415962010622025,77.0833333333333
190.9262217,0.1,"AG4EN28","2022_May_27_1215","Present_First","S_blue","MainTask",50,"Flanker","present",0.66,"H","2",1,0.28250560000015,"fast","post_error",0.415962010622025,77.0833333333333
191.0242306,0.2,"AG4EN28","2022_May_27_1215","Present_First","S_blue","MainTask",50,"Target","present",0.66,"H","2",1,0.28250560000015,"fast","post_error",0.415962010622025,77.0833333333333
191.3067362,0,"AG4EN28","2022_May_27_1215","Present_First","S_blue","MainTask",50,"Response","present",0.66,"H","2",1,0.28250560000015,"fast","post_error",0.415962010622025,77.0833333333333
192.2763003,0.1,"AG4EN28","2022_May_27_1215","Present_First","S_blue","MainTask",51,"Flanker","present",0.66,"S","4",1,0.376646999999139,"fast","post_correct",0.415962010622025,77.0833333333333
192.3741412,0.2,"AG4EN28","2022_May_27_1215","Present_First","S_blue","MainTask",51,"Target","present",0.66,"S","4",1,0.376646999999139,"fast","post_correct",0.415962010622025,77.0833333333333
192.750788199999,0,"AG4EN28","2022_May_27_1215","Present_First","S_blue","MainTask",51,"Response","present",0.66,"S","4",1,0.376646999999139,"fast","post_correct",0.415962010622025,77.0833333333333
193.592744199999,0.1,"AG4EN28","2022_May_27_1215","Present_First","S_blue","MainTask",52,"Flanker","present",1,"S","4",1,0.219924099999844,"fast","post_correct",0.415962010622025,77.0833333333333
193.690920699999,0.2,"AG4EN28","2022_May_27_1215","Present_First","S_blue","MainTask",52,"Target","present",1,"S","4",1,0.219924099999844,"fast","post_correct",0.415962010622025,77.0833333333333
193.910844799999,0,"AG4EN28","2022_May_27_1215","Present_First","S_blue","MainTask",52,"Response","present",1,"S","4",1,0.219924099999844,"fast","post_correct",0.415962010622025,77.0833333333333
194.859460799998,0.1,"AG4EN28","2022_May_27_1215","Present_First","S_blue","MainTask",53,"Flanker","present",0.33,"H","2",1,0.392209699999512,"fast","post_correct",0.415962010622025,77.0833333333333
194.957599699999,0.2,"AG4EN28","2022_May_27_1215","Present_First","S_blue","MainTask",53,"Target","present",0.33,"H","2",1,0.392209699999512,"fast","post_correct",0.415962010622025,77.0833333333333
195.349809399999,0,"AG4EN28","2022_May_27_1215","Present_First","S_blue","MainTask",53,"Response","present",0.33,"H","2",1,0.392209699999512,"fast","post_correct",0.415962010622025,77.0833333333333
196.373876,0.1,"AG4EN28","2022_May_27_1215","Present_First","S_blue","MainTask",54,"Flanker","present",0.33,"H","4",0,0.221494800000073,"fast","post_correct",0.415962010622025,77.0833333333333
196.457565699999,0.2,"AG4EN28","2022_May_27_1215","Present_First","S_blue","MainTask",54,"Target","present",0.33,"H","4",0,0.221494800000073,"fast","post_correct",0.415962010622025,77.0833333333333
196.679060499999,0,"AG4EN28","2022_May_27_1215","Present_First","S_blue","MainTask",54,"Response","present",0.33,"H","4",0,0.221494800000073,"fast","post_correct",0.415962010622025,77.0833333333333
197.5083051,0.1,"AG4EN28","2022_May_27_1215","Present_First","S_blue","MainTask",55,"Flanker","present",0,"S","4",1,0.322118599999158,"fast","post_error",0.415962010622025,77.0833333333333
197.590906699999,0.2,"AG4EN28","2022_May_27_1215","Present_First","S_blue","MainTask",55,"Target","present",0,"S","4",1,0.322118599999158,"fast","post_error",0.415962010622025,77.0833333333333
197.913025299998,0,"AG4EN28","2022_May_27_1215","Present_First","S_blue","MainTask",55,"Response","present",0,"S","4",1,0.322118599999158,"fast","post_error",0.415962010622025,77.0833333333333
198.9080574,0.1,"AG4EN28","2022_May_27_1215","Present_First","S_blue","MainTask",56,"Flanker","present",1,"H","2",1,0.306865300000936,"fast","post_correct",0.415962010622025,77.0833333333333
198.99087,0.2,"AG4EN28","2022_May_27_1215","Present_First","S_blue","MainTask",56,"Target","present",1,"H","2",1,0.306865300000936,"fast","post_correct",0.415962010622025,77.0833333333333
199.297735300001,0,"AG4EN28","2022_May_27_1215","Present_First","S_blue","MainTask",56,"Response","present",1,"H","2",1,0.306865300000936,"fast","post_correct",0.415962010622025,77.0833333333333
200.175425199999,0.1,"AG4EN28","2022_May_27_1215","Present_First","S_blue","MainTask",57,"Flanker","present",1,"S","4",1,0.272505500000989,"fast","post_correct",0.415962010622025,77.0833333333333
200.274236699999,0.2,"AG4EN28","2022_May_27_1215","Present_First","S_blue","MainTask",57,"Target","present",1,"S","4",1,0.272505500000989,"fast","post_correct",0.415962010622025,77.0833333333333
200.5467422,0,"AG4EN28","2022_May_27_1215","Present_First","S_blue","MainTask",57,"Response","present",1,"S","4",1,0.272505500000989,"fast","post_correct",0.415962010622025,77.0833333333333
201.392795199999,0.1,"AG4EN28","2022_May_27_1215","Present_First","S_blue","MainTask",58,"Flanker","present",1,"H","2",1,0.293157099999007,"fast","post_correct",0.415962010622025,77.0833333333333
201.490835099999,0.2,"AG4EN28","2022_May_27_1215","Present_First","S_blue","MainTask",58,"Target","present",1,"H","2",1,0.293157099999007,"fast","post_correct",0.415962010622025,77.0833333333333
201.783992199998,0,"AG4EN28","2022_May_27_1215","Present_First","S_blue","MainTask",58,"Response","present",1,"H","2",1,0.293157099999007,"fast","post_correct",0.415962010622025,77.0833333333333
202.807405099999,0.1,"AG4EN28","2022_May_27_1215","Present_First","S_blue","MainTask",59,"Flanker","present",1,"H","2",1,0.22396850000041,"fast","post_correct",0.415962010622025,77.0833333333333
202.8909131,0.2,"AG4EN28","2022_May_27_1215","Present_First","S_blue","MainTask",59,"Target","present",1,"H","2",1,0.22396850000041,"fast","post_correct",0.415962010622025,77.0833333333333
203.1148816,0,"AG4EN28","2022_May_27_1215","Present_First","S_blue","MainTask",59,"Response","present",1,"H","2",1,0.22396850000041,"fast","post_correct",0.415962010622025,77.0833333333333
203.908711599999,0.1,"AG4EN28","2022_May_27_1215","Present_First","S_blue","MainTask",60,"Flanker","present",0,"H","2",1,0.378234800000428,"fast","post_correct",0.415962010622025,77.0833333333333
204.0075965,0.2,"AG4EN28","2022_May_27_1215","Present_First","S_blue","MainTask",60,"Target","present",0,"H","2",1,0.378234800000428,"fast","post_correct",0.415962010622025,77.0833333333333
204.3858313,0,"AG4EN28","2022_May_27_1215","Present_First","S_blue","MainTask",60,"Response","present",0,"H","2",1,0.378234800000428,"fast","post_correct",0.415962010622025,77.0833333333333
205.291946599998,0.1,"AG4EN28","2022_May_27_1215","Present_First","S_blue","MainTask",61,"Flanker","present",1,"S","2",0,0.218976500000281,"fast","post_correct",0.415962010622025,77.0833333333333
205.3907755,0.2,"AG4EN28","2022_May_27_1215","Present_First","S_blue","MainTask",61,"Target","present",1,"S","2",0,0.218976500000281,"fast","post_correct",0.415962010622025,77.0833333333333
205.609752,0,"AG4EN28","2022_May_27_1215","Present_First","S_blue","MainTask",61,"Response","present",1,"S","2",0,0.218976500000281,"fast","post_correct",0.415962010622025,77.0833333333333
206.407355699999,0.1,"AG4EN28","2022_May_27_1215","Present_First","S_blue","MainTask",62,"Flanker","present",1,"S","4",1,0.369802699999127,"fast","post_error",0.415962010622025,77.0833333333333
206.490941399999,0.2,"AG4EN28","2022_May_27_1215","Present_First","S_blue","MainTask",62,"Target","present",1,"S","4",1,0.369802699999127,"fast","post_error",0.415962010622025,77.0833333333333
206.860744099999,0,"AG4EN28","2022_May_27_1215","Present_First","S_blue","MainTask",62,"Response","present",1,"S","4",1,0.369802699999127,"fast","post_error",0.415962010622025,77.0833333333333
207.8096059,0.1,"AG4EN28","2022_May_27_1215","Present_First","S_blue","MainTask",63,"Flanker","present",1,"H","2",1,0.2661420000004,"fast","post_correct",0.415962010622025,77.0833333333333
207.907586399999,0.2,"AG4EN28","2022_May_27_1215","Present_First","S_blue","MainTask",63,"Target","present",1,"H","2",1,0.2661420000004,"fast","post_correct",0.415962010622025,77.0833333333333
208.173728399999,0,"AG4EN28","2022_May_27_1215","Present_First","S_blue","MainTask",63,"Response","present",1,"H","2",1,0.2661420000004,"fast","post_correct",0.415962010622025,77.0833333333333
209.058710199999,0.1,"AG4EN28","2022_May_27_1215","Present_First","S_blue","MainTask",64,"Flanker","present",1,"S","4",1,0.29916989999947,"fast","post_correct",0.415962010622025,77.0833333333333
209.1575863,0.2,"AG4EN28","2022_May_27_1215","Present_First","S_blue","MainTask",64,"Target","present",1,"S","4",1,0.29916989999947,"fast","post_correct",0.415962010622025,77.0833333333333
209.456756199999,0,"AG4EN28","2022_May_27_1215","Present_First","S_blue","MainTask",64,"Response","present",1,"S","4",1,0.29916989999947,"fast","post_correct",0.415962010622025,77.0833333333333
210.3085732,0.1,"AG4EN28","2022_May_27_1215","Present_First","S_blue","MainTask",65,"Flanker","present",1,"H","2",1,0.246124600000257,"fast","post_correct",0.415962010622025,77.0833333333333
210.407547899998,0.2,"AG4EN28","2022_May_27_1215","Present_First","S_blue","MainTask",65,"Target","present",1,"H","2",1,0.246124600000257,"fast","post_correct",0.415962010622025,77.0833333333333
210.653672499999,0,"AG4EN28","2022_May_27_1215","Present_First","S_blue","MainTask",65,"Response","present",1,"H","2",1,0.246124600000257,"fast","post_correct",0.415962010622025,77.0833333333333
211.541883399999,0.1,"AG4EN28","2022_May_27_1215","Present_First","S_blue","MainTask",66,"Flanker","present",0.66,"H","2",1,0.328859199998988,"fast","post_correct",0.415962010622025,77.0833333333333
211.640975599999,0.2,"AG4EN28","2022_May_27_1215","Present_First","S_blue","MainTask",66,"Target","present",0.66,"H","2",1,0.328859199998988,"fast","post_correct",0.415962010622025,77.0833333333333
211.969834799998,0,"AG4EN28","2022_May_27_1215","Present_First","S_blue","MainTask",66,"Response","present",0.66,"H","2",1,0.328859199998988,"fast","post_correct",0.415962010622025,77.0833333333333
212.842005799999,0.1,"AG4EN28","2022_May_27_1215","Present_First","S_blue","MainTask",67,"Flanker","present",1,"S","4",1,0.262724599999274,"fast","post_correct",0.415962010622025,77.0833333333333
212.940977299999,0.2,"AG4EN28","2022_May_27_1215","Present_First","S_blue","MainTask",67,"Target","present",1,"S","4",1,0.262724599999274,"fast","post_correct",0.415962010622025,77.0833333333333
213.203701899998,0,"AG4EN28","2022_May_27_1215","Present_First","S_blue","MainTask",67,"Response","present",1,"S","4",1,0.262724599999274,"fast","post_correct",0.415962010622025,77.0833333333333
214.1252764,0.1,"AG4EN28","2022_May_27_1215","Present_First","S_blue","MainTask",68,"Flanker","present",0.66,"S","4",1,0.30562800000007,"fast","post_correct",0.415962010622025,77.0833333333333
214.2240817,0.2,"AG4EN28","2022_May_27_1215","Present_First","S_blue","MainTask",68,"Target","present",0.66,"S","4",1,0.30562800000007,"fast","post_correct",0.415962010622025,77.0833333333333
214.5297097,0,"AG4EN28","2022_May_27_1215","Present_First","S_blue","MainTask",68,"Response","present",0.66,"S","4",1,0.30562800000007,"fast","post_correct",0.415962010622025,77.0833333333333
215.557725499999,0.1,"AG4EN28","2022_May_27_1215","Present_First","S_blue","MainTask",69,"Flanker","present",0.33,"H","4",0,0.19855970000026,"fast","post_correct",0.415962010622025,77.0833333333333
215.657156899999,0.2,"AG4EN28","2022_May_27_1215","Present_First","S_blue","MainTask",69,"Target","present",0.33,"H","4",0,0.19855970000026,"fast","post_correct",0.415962010622025,77.0833333333333
215.855716599999,0,"AG4EN28","2022_May_27_1215","Present_First","S_blue","MainTask",69,"Response","present",0.33,"H","4",0,0.19855970000026,"fast","post_correct",0.415962010622025,77.0833333333333
216.775354199999,0.1,"AG4EN28","2022_May_27_1215","Present_First","S_blue","MainTask",70,"Flanker","present",0.33,"S","4",1,0.286437599999772,"fast","post_error",0.415962010622025,77.0833333333333
216.874241099998,0.2,"AG4EN28","2022_May_27_1215","Present_First","S_blue","MainTask",70,"Target","present",0.33,"S","4",1,0.286437599999772,"fast","post_error",0.415962010622025,77.0833333333333
217.160678699998,0,"AG4EN28","2022_May_27_1215","Present_First","S_blue","MainTask",70,"Response","present",0.33,"S","4",1,0.286437599999772,"fast","post_error",0.415962010622025,77.0833333333333
218.058836599999,0.1,"AG4EN28","2022_May_27_1215","Present_First","S_blue","MainTask",71,"Flanker","present",1,"S","4",1,0.253221599999961,"fast","post_correct",0.415962010622025,77.0833333333333
218.157475599999,0.2,"AG4EN28","2022_May_27_1215","Present_First","S_blue","MainTask",71,"Target","present",1,"S","4",1,0.253221599999961,"fast","post_correct",0.415962010622025,77.0833333333333
218.410697199999,0,"AG4EN28","2022_May_27_1215","Present_First","S_blue","MainTask",71,"Response","present",1,"S","4",1,0.253221599999961,"fast","post_correct",0.415962010622025,77.0833333333333
219.2588691,0.1,"AG4EN28","2022_May_27_1215","Present_First","S_blue","MainTask",72,"Flanker","present",0.66,"H","2",1,0.258475200000248,"fast","post_correct",0.415962010622025,77.0833333333333
219.357405199999,0.2,"AG4EN28","2022_May_27_1215","Present_First","S_blue","MainTask",72,"Target","present",0.66,"H","2",1,0.258475200000248,"fast","post_correct",0.415962010622025,77.0833333333333
219.615880399999,0,"AG4EN28","2022_May_27_1215","Present_First","S_blue","MainTask",72,"Response","present",0.66,"H","2",1,0.258475200000248,"fast","post_correct",0.415962010622025,77.0833333333333
220.4078484,0.1,"AG4EN28","2022_May_27_1215","Present_First","S_blue","MainTask",73,"Flanker","present",0.66,"S","4",1,0.314478099999178,"fast","post_correct",0.415962010622025,77.0833333333333
220.507234699999,0.2,"AG4EN28","2022_May_27_1215","Present_First","S_blue","MainTask",73,"Target","present",0.66,"S","4",1,0.314478099999178,"fast","post_correct",0.415962010622025,77.0833333333333
220.821712799998,0,"AG4EN28","2022_May_27_1215","Present_First","S_blue","MainTask",73,"Response","present",0.66,"S","4",1,0.314478099999178,"fast","post_correct",0.415962010622025,77.0833333333333
221.808078599999,0.1,"AG4EN28","2022_May_27_1215","Present_First","S_blue","MainTask",74,"Flanker","present",0.66,"H","2",1,0.160233399999925,"fast","post_correct",0.415962010622025,77.0833333333333
221.907550099999,0.2,"AG4EN28","2022_May_27_1215","Present_First","S_blue","MainTask",74,"Target","present",0.66,"H","2",1,0.160233399999925,"fast","post_correct",0.415962010622025,77.0833333333333
222.067783499999,0,"AG4EN28","2022_May_27_1215","Present_First","S_blue","MainTask",74,"Response","present",0.66,"H","2",1,0.160233399999925,"fast","post_correct",0.415962010622025,77.0833333333333
222.975429099999,0.1,"AG4EN28","2022_May_27_1215","Present_First","S_blue","MainTask",75,"Flanker","present",0.33,"S","4",1,0.234560900000361,"fast","post_correct",0.415962010622025,77.0833333333333
223.074218299998,0.2,"AG4EN28","2022_May_27_1215","Present_First","S_blue","MainTask",75,"Target","present",0.33,"S","4",1,0.234560900000361,"fast","post_correct",0.415962010622025,77.0833333333333
223.308779199999,0,"AG4EN28","2022_May_27_1215","Present_First","S_blue","MainTask",75,"Response","present",0.33,"S","4",1,0.234560900000361,"fast","post_correct",0.415962010622025,77.0833333333333
224.257353699999,0.1,"AG4EN28","2022_May_27_1215","Present_First","S_blue","MainTask",76,"Flanker","present",0.33,"S","4",1,0.301823699999659,"fast","post_correct",0.415962010622025,77.0833333333333
224.340867699999,0.2,"AG4EN28","2022_May_27_1215","Present_First","S_blue","MainTask",76,"Target","present",0.33,"S","4",1,0.301823699999659,"fast","post_correct",0.415962010622025,77.0833333333333
224.642691399999,0,"AG4EN28","2022_May_27_1215","Present_First","S_blue","MainTask",76,"Response","present",0.33,"S","4",1,0.301823699999659,"fast","post_correct",0.415962010622025,77.0833333333333
225.558528399999,0.1,"AG4EN28","2022_May_27_1215","Present_First","S_blue","MainTask",77,"Flanker","present",0.66,"S","4",1,0.251195000000735,"fast","post_correct",0.415962010622025,77.0833333333333
225.6575612,0.2,"AG4EN28","2022_May_27_1215","Present_First","S_blue","MainTask",77,"Target","present",0.66,"S","4",1,0.251195000000735,"fast","post_correct",0.415962010622025,77.0833333333333
225.9087562,0,"AG4EN28","2022_May_27_1215","Present_First","S_blue","MainTask",77,"Response","present",0.66,"S","4",1,0.251195000000735,"fast","post_correct",0.415962010622025,77.0833333333333
226.7917416,0.1,"AG4EN28","2022_May_27_1215","Present_First","S_blue","MainTask",78,"Flanker","present",1,"H","2",1,0.209307499999341,"fast","post_correct",0.415962010622025,77.0833333333333
226.890442099999,0.2,"AG4EN28","2022_May_27_1215","Present_First","S_blue","MainTask",78,"Target","present",1,"H","2",1,0.209307499999341,"fast","post_correct",0.415962010622025,77.0833333333333
227.099749599998,0,"AG4EN28","2022_May_27_1215","Present_First","S_blue","MainTask",78,"Response","present",1,"H","2",1,0.209307499999341,"fast","post_correct",0.415962010622025,77.0833333333333
228.108695699999,0.1,"AG4EN28","2022_May_27_1215","Present_First","S_blue","MainTask",79,"Flanker","present",0,"H","4",0,0.217193399999815,"fast","post_correct",0.415962010622025,77.0833333333333
228.207428,0.2,"AG4EN28","2022_May_27_1215","Present_First","S_blue","MainTask",79,"Target","present",0,"H","4",0,0.217193399999815,"fast","post_correct",0.415962010622025,77.0833333333333
228.4246214,0,"AG4EN28","2022_May_27_1215","Present_First","S_blue","MainTask",79,"Response","present",0,"H","4",0,0.217193399999815,"fast","post_correct",0.415962010622025,77.0833333333333
229.3052606,0.1,"AG4EN28","2022_May_27_1215","Present_First","S_blue","MainTask",80,"Flanker","present",1,"S","4",1,0.286815999999817,"fast","post_error",0.415962010622025,77.0833333333333
229.390895799999,0.2,"AG4EN28","2022_May_27_1215","Present_First","S_blue","MainTask",80,"Target","present",1,"S","4",1,0.286815999999817,"fast","post_error",0.415962010622025,77.0833333333333
229.677711799999,0,"AG4EN28","2022_May_27_1215","Present_First","S_blue","MainTask",80,"Response","present",1,"S","4",1,0.286815999999817,"fast","post_error",0.415962010622025,77.0833333333333
230.658436599999,0.1,"AG4EN28","2022_May_27_1215","Present_First","S_blue","MainTask",81,"Flanker","present",1,"H","2",1,0.263498399999662,"fast","post_correct",0.415962010622025,77.0833333333333
230.757514699999,0.2,"AG4EN28","2022_May_27_1215","Present_First","S_blue","MainTask",81,"Target","present",1,"H","2",1,0.263498399999662,"fast","post_correct",0.415962010622025,77.0833333333333
231.021013099999,0,"AG4EN28","2022_May_27_1215","Present_First","S_blue","MainTask",81,"Response","present",1,"H","2",1,0.263498399999662,"fast","post_correct",0.415962010622025,77.0833333333333
231.940820399999,0.1,"AG4EN28","2022_May_27_1215","Present_First","S_blue","MainTask",82,"Flanker","present",1,"H","2",1,0.297638599999118,"fast","post_correct",0.415962010622025,77.0833333333333
232.024084199998,0.2,"AG4EN28","2022_May_27_1215","Present_First","S_blue","MainTask",82,"Target","present",1,"H","2",1,0.297638599999118,"fast","post_correct",0.415962010622025,77.0833333333333
232.321722799998,0,"AG4EN28","2022_May_27_1215","Present_First","S_blue","MainTask",82,"Response","present",1,"H","2",1,0.297638599999118,"fast","post_correct",0.415962010622025,77.0833333333333
233.124980199998,0.1,"AG4EN28","2022_May_27_1215","Present_First","S_blue","MainTask",83,"Flanker","present",0.66,"H","2",1,0.313069800000449,"fast","post_correct",0.415962010622025,77.0833333333333
233.224290599999,0.2,"AG4EN28","2022_May_27_1215","Present_First","S_blue","MainTask",83,"Target","present",0.66,"H","2",1,0.313069800000449,"fast","post_correct",0.415962010622025,77.0833333333333
233.5373604,0,"AG4EN28","2022_May_27_1215","Present_First","S_blue","MainTask",83,"Response","present",0.66,"H","2",1,0.313069800000449,"fast","post_correct",0.415962010622025,77.0833333333333
234.3253186,0.1,"AG4EN28","2022_May_27_1215","Present_First","S_blue","MainTask",84,"Flanker","present",1,"S","4",1,0.250455200000943,"fast","post_correct",0.415962010622025,77.0833333333333
234.424343499999,0.2,"AG4EN28","2022_May_27_1215","Present_First","S_blue","MainTask",84,"Target","present",1,"S","4",1,0.250455200000943,"fast","post_correct",0.415962010622025,77.0833333333333
234.6747987,0,"AG4EN28","2022_May_27_1215","Present_First","S_blue","MainTask",84,"Response","present",1,"S","4",1,0.250455200000943,"fast","post_correct",0.415962010622025,77.0833333333333
235.657302199999,0.1,"AG4EN28","2022_May_27_1215","Present_First","S_blue","MainTask",85,"Flanker","present",1,"S","4",1,0.276105200000529,"fast","post_correct",0.415962010622025,77.0833333333333
235.740844599999,0.2,"AG4EN28","2022_May_27_1215","Present_First","S_blue","MainTask",85,"Target","present",1,"S","4",1,0.276105200000529,"fast","post_correct",0.415962010622025,77.0833333333333
236.0169498,0,"AG4EN28","2022_May_27_1215","Present_First","S_blue","MainTask",85,"Response","present",1,"S","4",1,0.276105200000529,"fast","post_correct",0.415962010622025,77.0833333333333
236.874994399999,0.1,"AG4EN28","2022_May_27_1215","Present_First","S_blue","MainTask",86,"Flanker","present",0.33,"H","2",1,0.213917900000524,"fast","post_correct",0.415962010622025,77.0833333333333
236.974282399999,0.2,"AG4EN28","2022_May_27_1215","Present_First","S_blue","MainTask",86,"Target","present",0.33,"H","2",1,0.213917900000524,"fast","post_correct",0.415962010622025,77.0833333333333
237.188200299999,0,"AG4EN28","2022_May_27_1215","Present_First","S_blue","MainTask",86,"Response","present",0.33,"H","2",1,0.213917900000524,"fast","post_correct",0.415962010622025,77.0833333333333
238.041260399999,0.1,"AG4EN28","2022_May_27_1215","Present_First","S_blue","MainTask",87,"Flanker","present",1,"S","4",1,0.355363300001045,"fast","post_correct",0.415962010622025,77.0833333333333
238.140862599999,0.2,"AG4EN28","2022_May_27_1215","Present_First","S_blue","MainTask",87,"Target","present",1,"S","4",1,0.355363300001045,"fast","post_correct",0.415962010622025,77.0833333333333
238.4962259,0,"AG4EN28","2022_May_27_1215","Present_First","S_blue","MainTask",87,"Response","present",1,"S","4",1,0.355363300001045,"fast","post_correct",0.415962010622025,77.0833333333333
239.392042899999,0.1,"AG4EN28","2022_May_27_1215","Present_First","S_blue","MainTask",88,"Flanker","present",1,"H","2",1,0.339838899999449,"fast","post_correct",0.415962010622025,77.0833333333333
239.490822299998,0.2,"AG4EN28","2022_May_27_1215","Present_First","S_blue","MainTask",88,"Target","present",1,"H","2",1,0.339838899999449,"fast","post_correct",0.415962010622025,77.0833333333333
239.830661199998,0,"AG4EN28","2022_May_27_1215","Present_First","S_blue","MainTask",88,"Response","present",1,"H","2",1,0.339838899999449,"fast","post_correct",0.415962010622025,77.0833333333333
240.841992899999,0.1,"AG4EN28","2022_May_27_1215","Present_First","S_blue","MainTask",89,"Flanker","present",1,"S","4",1,0.209000999999262,"fast","post_correct",0.415962010622025,77.0833333333333
240.9408709,0.2,"AG4EN28","2022_May_27_1215","Present_First","S_blue","MainTask",89,"Target","present",1,"S","4",1,0.209000999999262,"fast","post_correct",0.415962010622025,77.0833333333333
241.149871899999,0,"AG4EN28","2022_May_27_1215","Present_First","S_blue","MainTask",89,"Response","present",1,"S","4",1,0.209000999999262,"fast","post_correct",0.415962010622025,77.0833333333333
241.973993099999,0.1,"AG4EN28","2022_May_27_1215","Present_First","S_blue","MainTask",90,"Flanker","present",1,"S","4",1,0.304523099999642,"fast","post_correct",0.415962010622025,77.0833333333333
242.057522399999,0.2,"AG4EN28","2022_May_27_1215","Present_First","S_blue","MainTask",90,"Target","present",1,"S","4",1,0.304523099999642,"fast","post_correct",0.415962010622025,77.0833333333333
242.362045499998,0,"AG4EN28","2022_May_27_1215","Present_First","S_blue","MainTask",90,"Response","present",1,"S","4",1,0.304523099999642,"fast","post_correct",0.415962010622025,77.0833333333333
243.273950199999,0.1,"AG4EN28","2022_May_27_1215","Present_First","S_blue","MainTask",91,"Flanker","present",1,"S","4",1,0.236094800000501,"fast","post_correct",0.415962010622025,77.0833333333333
243.357539299999,0.2,"AG4EN28","2022_May_27_1215","Present_First","S_blue","MainTask",91,"Target","present",1,"S","4",1,0.236094800000501,"fast","post_correct",0.415962010622025,77.0833333333333
243.5936341,0,"AG4EN28","2022_May_27_1215","Present_First","S_blue","MainTask",91,"Response","present",1,"S","4",1,0.236094800000501,"fast","post_correct",0.415962010622025,77.0833333333333
244.490653299999,0.1,"AG4EN28","2022_May_27_1215","Present_First","S_blue","MainTask",92,"Flanker","present",1,"S","4",1,0.322515899999416,"fast","post_correct",0.415962010622025,77.0833333333333
244.574152499999,0.2,"AG4EN28","2022_May_27_1215","Present_First","S_blue","MainTask",92,"Target","present",1,"S","4",1,0.322515899999416,"fast","post_correct",0.415962010622025,77.0833333333333
244.896668399999,0,"AG4EN28","2022_May_27_1215","Present_First","S_blue","MainTask",92,"Response","present",1,"S","4",1,0.322515899999416,"fast","post_correct",0.415962010622025,77.0833333333333
245.7739786,0.1,"AG4EN28","2022_May_27_1215","Present_First","S_blue","MainTask",93,"Flanker","present",1,"S","4",1,0.223695799999405,"fast","post_correct",0.415962010622025,77.0833333333333
245.856989999998,0.2,"AG4EN28","2022_May_27_1215","Present_First","S_blue","MainTask",93,"Target","present",1,"S","4",1,0.223695799999405,"fast","post_correct",0.415962010622025,77.0833333333333
246.080685799998,0,"AG4EN28","2022_May_27_1215","Present_First","S_blue","MainTask",93,"Response","present",1,"S","4",1,0.223695799999405,"fast","post_correct",0.415962010622025,77.0833333333333
246.891849399999,0.1,"AG4EN28","2022_May_27_1215","Present_First","S_blue","MainTask",94,"Flanker","present",0,"H","2",1,0.373425699999643,"fast","post_correct",0.415962010622025,77.0833333333333
246.974235899999,0.2,"AG4EN28","2022_May_27_1215","Present_First","S_blue","MainTask",94,"Target","present",0,"H","2",1,0.373425699999643,"fast","post_correct",0.415962010622025,77.0833333333333
247.347661599999,0,"AG4EN28","2022_May_27_1215","Present_First","S_blue","MainTask",94,"Response","present",0,"H","2",1,0.373425699999643,"fast","post_correct",0.415962010622025,77.0833333333333
248.2420551,0.1,"AG4EN28","2022_May_27_1215","Present_First","S_blue","MainTask",95,"Flanker","present",1,"H","4",0,0.226947700000892,"fast","post_correct",0.415962010622025,77.0833333333333
248.340837799999,0.2,"AG4EN28","2022_May_27_1215","Present_First","S_blue","MainTask",95,"Target","present",1,"H","4",0,0.226947700000892,"fast","post_correct",0.415962010622025,77.0833333333333
248.567785499999,0,"AG4EN28","2022_May_27_1215","Present_First","S_blue","MainTask",95,"Response","present",1,"H","4",0,0.226947700000892,"fast","post_correct",0.415962010622025,77.0833333333333
248.5993105,26.4131615999995,"AG4EN28","2022_May_27_1215","Present_First","S_blue","MainTask",95,"Break","present",1,"H","4",0,26.4131615999995,"fast","post_correct",NA,77.0833333333333
277.908470099999,0.1,"AG4EN28","2022_May_27_1215","Present_First","S_blue","MainTask",96,"Flanker","present",0.66,"H","2",1,0.391397900000811,"fast","post_break",0.415962010622025,77.0833333333333
278.007467599999,0.2,"AG4EN28","2022_May_27_1215","Present_First","S_blue","MainTask",96,"Target","present",0.66,"H","2",1,0.391397900000811,"fast","post_break",0.415962010622025,77.0833333333333
278.398865499999,0,"AG4EN28","2022_May_27_1215","Present_First","S_blue","MainTask",96,"Response","present",0.66,"H","2",1,0.391397900000811,"fast","post_break",0.415962010622025,77.0833333333333
279.358291799999,0.1,"AG4EN28","2022_May_27_1215","Present_First","S_blue","MainTask",97,"Flanker","present",1,"H","2",1,0.251170800000182,"fast","post_correct",0.415962010622025,77.0833333333333
279.4575852,0.2,"AG4EN28","2022_May_27_1215","Present_First","S_blue","MainTask",97,"Target","present",1,"H","2",1,0.251170800000182,"fast","post_correct",0.415962010622025,77.0833333333333
279.708756,0,"AG4EN28","2022_May_27_1215","Present_First","S_blue","MainTask",97,"Response","present",1,"H","2",1,0.251170800000182,"fast","post_correct",0.415962010622025,77.0833333333333
280.624955599998,0.1,"AG4EN28","2022_May_27_1215","Present_First","S_blue","MainTask",98,"Flanker","present",0.66,"S","2",0,0.264154000000417,"fast","post_correct",0.415962010622025,77.0833333333333
280.7240468,0.2,"AG4EN28","2022_May_27_1215","Present_First","S_blue","MainTask",98,"Target","present",0.66,"S","2",0,0.264154000000417,"fast","post_correct",0.415962010622025,77.0833333333333
280.9882008,0,"AG4EN28","2022_May_27_1215","Present_First","S_blue","MainTask",98,"Response","present",0.66,"S","2",0,0.264154000000417,"fast","post_correct",0.415962010622025,77.0833333333333
281.7919102,0.1,"AG4EN28","2022_May_27_1215","Present_First","S_blue","MainTask",99,"Flanker","present",1,"S","2",0,0.326825199999803,"fast","post_error",0.415962010622025,77.0833333333333
281.890880299999,0.2,"AG4EN28","2022_May_27_1215","Present_First","S_blue","MainTask",99,"Target","present",1,"S","2",0,0.326825199999803,"fast","post_error",0.415962010622025,77.0833333333333
282.217705499999,0,"AG4EN28","2022_May_27_1215","Present_First","S_blue","MainTask",99,"Response","present",1,"S","2",0,0.326825199999803,"fast","post_error",0.415962010622025,77.0833333333333
283.0585567,0.1,"AG4EN28","2022_May_27_1215","Present_First","S_blue","MainTask",100,"Flanker","present",0.33,"H","2",1,0.256143399999928,"fast","post_error",0.415962010622025,77.0833333333333
283.157478699999,0.2,"AG4EN28","2022_May_27_1215","Present_First","S_blue","MainTask",100,"Target","present",0.33,"H","2",1,0.256143399999928,"fast","post_error",0.415962010622025,77.0833333333333
283.413622099999,0,"AG4EN28","2022_May_27_1215","Present_First","S_blue","MainTask",100,"Response","present",0.33,"H","2",1,0.256143399999928,"fast","post_error",0.415962010622025,77.0833333333333
284.357864599999,0.1,"AG4EN28","2022_May_27_1215","Present_First","S_blue","MainTask",101,"Flanker","present",0,"H","4",0,0.25725760000023,"fast","post_correct",0.415962010622025,77.0833333333333
284.457482399999,0.2,"AG4EN28","2022_May_27_1215","Present_First","S_blue","MainTask",101,"Target","present",0,"H","4",0,0.25725760000023,"fast","post_correct",0.415962010622025,77.0833333333333
284.714739999999,0,"AG4EN28","2022_May_27_1215","Present_First","S_blue","MainTask",101,"Response","present",0,"H","4",0,0.25725760000023,"fast","post_correct",0.415962010622025,77.0833333333333
285.6254856,0.1,"AG4EN28","2022_May_27_1215","Present_First","S_blue","MainTask",102,"Flanker","present",0.66,"S","4",1,0.231568499999412,"fast","post_error",0.415962010622025,77.0833333333333
285.7240881,0.2,"AG4EN28","2022_May_27_1215","Present_First","S_blue","MainTask",102,"Target","present",0.66,"S","4",1,0.231568499999412,"fast","post_error",0.415962010622025,77.0833333333333
285.955656599999,0,"AG4EN28","2022_May_27_1215","Present_First","S_blue","MainTask",102,"Response","present",0.66,"S","4",1,0.231568499999412,"fast","post_error",0.415962010622025,77.0833333333333
286.891784699999,0.1,"AG4EN28","2022_May_27_1215","Present_First","S_blue","MainTask",103,"Flanker","present",1,"S","4",1,0.325718300000517,"fast","post_correct",0.415962010622025,77.0833333333333
286.990884899998,0.2,"AG4EN28","2022_May_27_1215","Present_First","S_blue","MainTask",103,"Target","present",1,"S","4",1,0.325718300000517,"fast","post_correct",0.415962010622025,77.0833333333333
287.316603199999,0,"AG4EN28","2022_May_27_1215","Present_First","S_blue","MainTask",103,"Response","present",1,"S","4",1,0.325718300000517,"fast","post_correct",0.415962010622025,77.0833333333333
288.158327899999,0.1,"AG4EN28","2022_May_27_1215","Present_First","S_blue","MainTask",104,"Flanker","present",1,"H","2",1,0.369184199998926,"fast","post_correct",0.415962010622025,77.0833333333333
288.257399399999,0.2,"AG4EN28","2022_May_27_1215","Present_First","S_blue","MainTask",104,"Target","present",1,"H","2",1,0.369184199998926,"fast","post_correct",0.415962010622025,77.0833333333333
288.626583599998,0,"AG4EN28","2022_May_27_1215","Present_First","S_blue","MainTask",104,"Response","present",1,"H","2",1,0.369184199998926,"fast","post_correct",0.415962010622025,77.0833333333333
289.491808899998,0.1,"AG4EN28","2022_May_27_1215","Present_First","S_blue","MainTask",105,"Flanker","present",1,"S","4",1,0.220812700001261,"fast","post_correct",0.415962010622025,77.0833333333333
289.590820199999,0.2,"AG4EN28","2022_May_27_1215","Present_First","S_blue","MainTask",105,"Target","present",1,"S","4",1,0.220812700001261,"fast","post_correct",0.415962010622025,77.0833333333333
289.8116329,0,"AG4EN28","2022_May_27_1215","Present_First","S_blue","MainTask",105,"Response","present",1,"S","4",1,0.220812700001261,"fast","post_correct",0.415962010622025,77.0833333333333
290.808432399999,0.1,"AG4EN28","2022_May_27_1215","Present_First","S_blue","MainTask",106,"Flanker","present",0.66,"H","4",0,0.235242000000653,"fast","post_correct",0.415962010622025,77.0833333333333
290.9074888,0.2,"AG4EN28","2022_May_27_1215","Present_First","S_blue","MainTask",106,"Target","present",0.66,"H","4",0,0.235242000000653,"fast","post_correct",0.415962010622025,77.0833333333333
291.1427308,0,"AG4EN28","2022_May_27_1215","Present_First","S_blue","MainTask",106,"Response","present",0.66,"H","4",0,0.235242000000653,"fast","post_correct",0.415962010622025,77.0833333333333
292.008368299999,0.1,"AG4EN28","2022_May_27_1215","Present_First","S_blue","MainTask",107,"Flanker","present",0,"H","2",1,0.215200600001481,"fast","post_error",0.415962010622025,77.0833333333333
292.107425499998,0.2,"AG4EN28","2022_May_27_1215","Present_First","S_blue","MainTask",107,"Target","present",0,"H","2",1,0.215200600001481,"fast","post_error",0.415962010622025,77.0833333333333
292.3226261,0,"AG4EN28","2022_May_27_1215","Present_First","S_blue","MainTask",107,"Response","present",0,"H","2",1,0.215200600001481,"fast","post_error",0.415962010622025,77.0833333333333
293.1905496,0.1,"AG4EN28","2022_May_27_1215","Present_First","S_blue","MainTask",108,"Flanker","present",0,"H","4",0,0.258452000000034,"fast","post_correct",0.415962010622025,77.0833333333333
293.274141299999,0.2,"AG4EN28","2022_May_27_1215","Present_First","S_blue","MainTask",108,"Target","present",0,"H","4",0,0.258452000000034,"fast","post_correct",0.415962010622025,77.0833333333333
293.532593299999,0,"AG4EN28","2022_May_27_1215","Present_First","S_blue","MainTask",108,"Response","present",0,"H","4",0,0.258452000000034,"fast","post_correct",0.415962010622025,77.0833333333333
294.405398999999,0.1,"AG4EN28","2022_May_27_1215","Present_First","S_blue","MainTask",109,"Flanker","present",1,"S","2",0,0.230785099998684,"fast","post_error",0.415962010622025,77.0833333333333
294.490881099999,0.2,"AG4EN28","2022_May_27_1215","Present_First","S_blue","MainTask",109,"Target","present",1,"S","2",0,0.230785099998684,"fast","post_error",0.415962010622025,77.0833333333333
294.721666199997,0,"AG4EN28","2022_May_27_1215","Present_First","S_blue","MainTask",109,"Response","present",1,"S","2",0,0.230785099998684,"fast","post_error",0.415962010622025,77.0833333333333
295.7420449,0.1,"AG4EN28","2022_May_27_1215","Present_First","S_blue","MainTask",110,"Flanker","present",0.33,"H","2",1,0.24718380000013,"fast","post_error",0.415962010622025,77.0833333333333
295.840825199999,0.2,"AG4EN28","2022_May_27_1215","Present_First","S_blue","MainTask",110,"Target","present",0.33,"H","2",1,0.24718380000013,"fast","post_error",0.415962010622025,77.0833333333333
296.088008999999,0,"AG4EN28","2022_May_27_1215","Present_First","S_blue","MainTask",110,"Response","present",0.33,"H","2",1,0.24718380000013,"fast","post_error",0.415962010622025,77.0833333333333
296.924944699998,0.1,"AG4EN28","2022_May_27_1215","Present_First","S_blue","MainTask",111,"Flanker","present",1,"H","2",1,0.350416199999017,"fast","post_correct",0.415962010622025,77.0833333333333
297.0241685,0.2,"AG4EN28","2022_May_27_1215","Present_First","S_blue","MainTask",111,"Target","present",1,"H","2",1,0.350416199999017,"fast","post_correct",0.415962010622025,77.0833333333333
297.374584699999,0,"AG4EN28","2022_May_27_1215","Present_First","S_blue","MainTask",111,"Response","present",1,"H","2",1,0.350416199999017,"fast","post_correct",0.415962010622025,77.0833333333333
298.358143599999,0.1,"AG4EN28","2022_May_27_1215","Present_First","S_blue","MainTask",112,"Flanker","present",0,"S","4",1,0.384842299999946,"fast","post_correct",0.415962010622025,77.0833333333333
298.440751,0.2,"AG4EN28","2022_May_27_1215","Present_First","S_blue","MainTask",112,"Target","present",0,"S","4",1,0.384842299999946,"fast","post_correct",0.415962010622025,77.0833333333333
298.8255933,0,"AG4EN28","2022_May_27_1215","Present_First","S_blue","MainTask",112,"Response","present",0,"S","4",1,0.384842299999946,"fast","post_correct",0.415962010622025,77.0833333333333
299.691163,0.1,"AG4EN28","2022_May_27_1215","Present_First","S_blue","MainTask",113,"Flanker","present",1,"H","2",1,0.177551799999492,"fast","post_correct",0.415962010622025,77.0833333333333
299.774131999999,0.2,"AG4EN28","2022_May_27_1215","Present_First","S_blue","MainTask",113,"Target","present",1,"H","2",1,0.177551799999492,"fast","post_correct",0.415962010622025,77.0833333333333
299.951683799998,0,"AG4EN28","2022_May_27_1215","Present_First","S_blue","MainTask",113,"Response","present",1,"H","2",1,0.177551799999492,"fast","post_correct",0.415962010622025,77.0833333333333
300.959426899999,0.1,"AG4EN28","2022_May_27_1215","Present_First","S_blue","MainTask",114,"Flanker","present",0.33,"S","4",1,0.216962999998941,"fast","post_correct",0.415962010622025,77.0833333333333
301.057559999999,0.2,"AG4EN28","2022_May_27_1215","Present_First","S_blue","MainTask",114,"Target","present",0.33,"S","4",1,0.216962999998941,"fast","post_correct",0.415962010622025,77.0833333333333
301.274522999998,0,"AG4EN28","2022_May_27_1215","Present_First","S_blue","MainTask",114,"Response","present",0.33,"S","4",1,0.216962999998941,"fast","post_correct",0.415962010622025,77.0833333333333
302.073991699999,0.1,"AG4EN28","2022_May_27_1215","Present_First","S_blue","MainTask",115,"Flanker","present",0.33,"S","2",0,0.232793299999685,"fast","post_correct",0.415962010622025,77.0833333333333
302.1569611,0.2,"AG4EN28","2022_May_27_1215","Present_First","S_blue","MainTask",115,"Target","present",0.33,"S","2",0,0.232793299999685,"fast","post_correct",0.415962010622025,77.0833333333333
302.389754399999,0,"AG4EN28","2022_May_27_1215","Present_First","S_blue","MainTask",115,"Response","present",0.33,"S","2",0,0.232793299999685,"fast","post_correct",0.415962010622025,77.0833333333333
303.1920068,0.1,"AG4EN28","2022_May_27_1215","Present_First","S_blue","MainTask",116,"Flanker","present",1,"H","2",1,0.269838799998979,"fast","post_error",0.415962010622025,77.0833333333333
303.290800499999,0.2,"AG4EN28","2022_May_27_1215","Present_First","S_blue","MainTask",116,"Target","present",1,"H","2",1,0.269838799998979,"fast","post_error",0.415962010622025,77.0833333333333
303.560639299998,0,"AG4EN28","2022_May_27_1215","Present_First","S_blue","MainTask",116,"Response","present",1,"H","2",1,0.269838799998979,"fast","post_error",0.415962010622025,77.0833333333333
304.4406327,0.1,"AG4EN28","2022_May_27_1215","Present_First","S_blue","MainTask",117,"Flanker","present",1,"H","2",1,0.263993700000356,"fast","post_correct",0.415962010622025,77.0833333333333
304.524027899999,0.2,"AG4EN28","2022_May_27_1215","Present_First","S_blue","MainTask",117,"Target","present",1,"H","2",1,0.263993700000356,"fast","post_correct",0.415962010622025,77.0833333333333
304.788021599999,0,"AG4EN28","2022_May_27_1215","Present_First","S_blue","MainTask",117,"Response","present",1,"H","2",1,0.263993700000356,"fast","post_correct",0.415962010622025,77.0833333333333
305.6093998,0.1,"AG4EN28","2022_May_27_1215","Present_First","S_blue","MainTask",118,"Flanker","present",0.66,"H","2",1,0.367228199998863,"fast","post_correct",0.415962010622025,77.0833333333333
305.707509899999,0.2,"AG4EN28","2022_May_27_1215","Present_First","S_blue","MainTask",118,"Target","present",0.66,"H","2",1,0.367228199998863,"fast","post_correct",0.415962010622025,77.0833333333333
306.074738099998,0,"AG4EN28","2022_May_27_1215","Present_First","S_blue","MainTask",118,"Response","present",0.66,"H","2",1,0.367228199998863,"fast","post_correct",0.415962010622025,77.0833333333333
306.9908684,0.1,"AG4EN28","2022_May_27_1215","Present_First","S_blue","MainTask",119,"Flanker","present",1,"S","4",1,0.297691900001155,"fast","post_correct",0.415962010622025,77.0833333333333
307.0740589,0.2,"AG4EN28","2022_May_27_1215","Present_First","S_blue","MainTask",119,"Target","present",1,"S","4",1,0.297691900001155,"fast","post_correct",0.415962010622025,77.0833333333333
307.371750800001,0,"AG4EN28","2022_May_27_1215","Present_First","S_blue","MainTask",119,"Response","present",1,"S","4",1,0.297691900001155,"fast","post_correct",0.415962010622025,77.0833333333333
308.258569099999,0.1,"AG4EN28","2022_May_27_1215","Present_First","S_blue","MainTask",120,"Flanker","present",0.66,"H","2",1,0.383113899999444,"fast","post_correct",0.415962010622025,77.0833333333333
308.357505399999,0.2,"AG4EN28","2022_May_27_1215","Present_First","S_blue","MainTask",120,"Target","present",0.66,"H","2",1,0.383113899999444,"fast","post_correct",0.415962010622025,77.0833333333333
308.740619299999,0,"AG4EN28","2022_May_27_1215","Present_First","S_blue","MainTask",120,"Response","present",0.66,"H","2",1,0.383113899999444,"fast","post_correct",0.415962010622025,77.0833333333333
309.5252227,0.1,"AG4EN28","2022_May_27_1215","Present_First","S_blue","MainTask",121,"Flanker","present",1,"S","4",1,0.235619099999894,"fast","post_correct",0.415962010622025,77.0833333333333
309.624003899999,0.2,"AG4EN28","2022_May_27_1215","Present_First","S_blue","MainTask",121,"Target","present",1,"S","4",1,0.235619099999894,"fast","post_correct",0.415962010622025,77.0833333333333
309.859622999998,0,"AG4EN28","2022_May_27_1215","Present_First","S_blue","MainTask",121,"Response","present",1,"S","4",1,0.235619099999894,"fast","post_correct",0.415962010622025,77.0833333333333
310.892226399999,0.1,"AG4EN28","2022_May_27_1215","Present_First","S_blue","MainTask",122,"Flanker","present",1,"H","2",1,0.223185400000148,"fast","post_correct",0.415962010622025,77.0833333333333
310.990379899999,0.2,"AG4EN28","2022_May_27_1215","Present_First","S_blue","MainTask",122,"Target","present",1,"H","2",1,0.223185400000148,"fast","post_correct",0.415962010622025,77.0833333333333
311.213565299999,0,"AG4EN28","2022_May_27_1215","Present_First","S_blue","MainTask",122,"Response","present",1,"H","2",1,0.223185400000148,"fast","post_correct",0.415962010622025,77.0833333333333
312.076209499999,0.1,"AG4EN28","2022_May_27_1215","Present_First","S_blue","MainTask",123,"Flanker","present",0.66,"H","2",1,0.361633000000438,"fast","post_correct",0.415962010622025,77.0833333333333
312.1740761,0.2,"AG4EN28","2022_May_27_1215","Present_First","S_blue","MainTask",123,"Target","present",0.66,"H","2",1,0.361633000000438,"fast","post_correct",0.415962010622025,77.0833333333333
312.535709100001,0,"AG4EN28","2022_May_27_1215","Present_First","S_blue","MainTask",123,"Response","present",0.66,"H","2",1,0.361633000000438,"fast","post_correct",0.415962010622025,77.0833333333333
313.508952599999,0.1,"AG4EN28","2022_May_27_1215","Present_First","S_blue","MainTask",124,"Flanker","present",1,"S","2",0,0.226650200000222,"fast","post_correct",0.415962010622025,77.0833333333333
313.6073569,0.2,"AG4EN28","2022_May_27_1215","Present_First","S_blue","MainTask",124,"Target","present",1,"S","2",0,0.226650200000222,"fast","post_correct",0.415962010622025,77.0833333333333
313.8340071,0,"AG4EN28","2022_May_27_1215","Present_First","S_blue","MainTask",124,"Response","present",1,"S","2",0,0.226650200000222,"fast","post_correct",0.415962010622025,77.0833333333333
314.641846799999,0.1,"AG4EN28","2022_May_27_1215","Present_First","S_blue","MainTask",125,"Flanker","present",1,"H","2",1,0.248194000001604,"fast","post_error",0.415962010622025,77.0833333333333
314.740331199999,0.2,"AG4EN28","2022_May_27_1215","Present_First","S_blue","MainTask",125,"Target","present",1,"H","2",1,0.248194000001604,"fast","post_error",0.415962010622025,77.0833333333333
314.9885252,0,"AG4EN28","2022_May_27_1215","Present_First","S_blue","MainTask",125,"Response","present",1,"H","2",1,0.248194000001604,"fast","post_error",0.415962010622025,77.0833333333333
315.790419699999,0.1,"AG4EN28","2022_May_27_1215","Present_First","S_blue","MainTask",126,"Flanker","present",0,"S","2",0,0.271984999999404,"fast","post_correct",0.415962010622025,77.0833333333333
315.874135399999,0.2,"AG4EN28","2022_May_27_1215","Present_First","S_blue","MainTask",126,"Target","present",0,"S","2",0,0.271984999999404,"fast","post_correct",0.415962010622025,77.0833333333333
316.146120399999,0,"AG4EN28","2022_May_27_1215","Present_First","S_blue","MainTask",126,"Response","present",0,"S","2",0,0.271984999999404,"fast","post_correct",0.415962010622025,77.0833333333333
317.041704399999,0.1,"AG4EN28","2022_May_27_1215","Present_First","S_blue","MainTask",127,"Flanker","present",0.33,"H","2",1,0.334058700000242,"fast","post_error",0.415962010622025,77.0833333333333
317.140739799999,0.2,"AG4EN28","2022_May_27_1215","Present_First","S_blue","MainTask",127,"Target","present",0.33,"H","2",1,0.334058700000242,"fast","post_error",0.415962010622025,77.0833333333333
317.474798499999,0,"AG4EN28","2022_May_27_1215","Present_First","S_blue","MainTask",127,"Response","present",0.33,"H","2",1,0.334058700000242,"fast","post_error",0.415962010622025,77.0833333333333
318.324963999999,0.1,"AG4EN28","2022_May_27_1215","Present_First","S_blue","MainTask",128,"Flanker","present",1,"S","4",1,0.248627199998737,"fast","post_correct",0.415962010622025,77.0833333333333
318.424012899999,0.2,"AG4EN28","2022_May_27_1215","Present_First","S_blue","MainTask",128,"Target","present",1,"S","4",1,0.248627199998737,"fast","post_correct",0.415962010622025,77.0833333333333
318.672640099998,0,"AG4EN28","2022_May_27_1215","Present_First","S_blue","MainTask",128,"Response","present",1,"S","4",1,0.248627199998737,"fast","post_correct",0.415962010622025,77.0833333333333
319.491019499999,0.1,"AG4EN28","2022_May_27_1215","Present_First","S_blue","MainTask",129,"Flanker","present",0.66,"S","4",1,0.297284199999922,"fast","post_correct",0.415962010622025,77.0833333333333
319.5908776,0.2,"AG4EN28","2022_May_27_1215","Present_First","S_blue","MainTask",129,"Target","present",0.66,"S","4",1,0.297284199999922,"fast","post_correct",0.415962010622025,77.0833333333333
319.8881618,0,"AG4EN28","2022_May_27_1215","Present_First","S_blue","MainTask",129,"Response","present",0.66,"S","4",1,0.297284199999922,"fast","post_correct",0.415962010622025,77.0833333333333
320.808610799999,0.1,"AG4EN28","2022_May_27_1215","Present_First","S_blue","MainTask",130,"Flanker","present",0.33,"S","4",1,0.287164200000916,"fast","post_correct",0.415962010622025,77.0833333333333
320.907443799999,0.2,"AG4EN28","2022_May_27_1215","Present_First","S_blue","MainTask",130,"Target","present",0.33,"S","4",1,0.287164200000916,"fast","post_correct",0.415962010622025,77.0833333333333
321.194608,0,"AG4EN28","2022_May_27_1215","Present_First","S_blue","MainTask",130,"Response","present",0.33,"S","4",1,0.287164200000916,"fast","post_correct",0.415962010622025,77.0833333333333
322.175103199999,0.1,"AG4EN28","2022_May_27_1215","Present_First","S_blue","MainTask",131,"Flanker","present",1,"H","2",1,0.154478999998901,"fast","post_correct",0.415962010622025,77.0833333333333
322.2741283,0.2,"AG4EN28","2022_May_27_1215","Present_First","S_blue","MainTask",131,"Target","present",1,"H","2",1,0.154478999998901,"fast","post_correct",0.415962010622025,77.0833333333333
322.428607299998,0,"AG4EN28","2022_May_27_1215","Present_First","S_blue","MainTask",131,"Response","present",1,"H","2",1,0.154478999998901,"fast","post_correct",0.415962010622025,77.0833333333333
323.341988999999,0.1,"AG4EN28","2022_May_27_1215","Present_First","S_blue","MainTask",132,"Flanker","present",1,"S","4",1,0.219012799998382,"fast","post_correct",0.415962010622025,77.0833333333333
323.440585099999,0.2,"AG4EN28","2022_May_27_1215","Present_First","S_blue","MainTask",132,"Target","present",1,"S","4",1,0.219012799998382,"fast","post_correct",0.415962010622025,77.0833333333333
323.659597899998,0,"AG4EN28","2022_May_27_1215","Present_First","S_blue","MainTask",132,"Response","present",1,"S","4",1,0.219012799998382,"fast","post_correct",0.415962010622025,77.0833333333333
324.475188299999,0.1,"AG4EN28","2022_May_27_1215","Present_First","S_blue","MainTask",133,"Flanker","present",0.33,"S","4",1,0.355505400000766,"fast","post_correct",0.415962010622025,77.0833333333333
324.574025899999,0.2,"AG4EN28","2022_May_27_1215","Present_First","S_blue","MainTask",133,"Target","present",0.33,"S","4",1,0.355505400000766,"fast","post_correct",0.415962010622025,77.0833333333333
324.9295313,0,"AG4EN28","2022_May_27_1215","Present_First","S_blue","MainTask",133,"Response","present",0.33,"S","4",1,0.355505400000766,"fast","post_correct",0.415962010622025,77.0833333333333
325.9416568,0.1,"AG4EN28","2022_May_27_1215","Present_First","S_blue","MainTask",134,"Flanker","present",1,"H","2",1,0.14731220000067,"fast","post_correct",0.415962010622025,77.0833333333333
326.040661499999,0.2,"AG4EN28","2022_May_27_1215","Present_First","S_blue","MainTask",134,"Target","present",1,"H","2",1,0.14731220000067,"fast","post_correct",0.415962010622025,77.0833333333333
326.1879737,0,"AG4EN28","2022_May_27_1215","Present_First","S_blue","MainTask",134,"Response","present",1,"H","2",1,0.14731220000067,"fast","post_correct",0.415962010622025,77.0833333333333
326.973973799999,0.1,"AG4EN28","2022_May_27_1215","Present_First","S_blue","MainTask",135,"Flanker","present",1,"H","4",0,0.247124100000292,"fast","post_correct",0.415962010622025,77.0833333333333
327.057482,0.2,"AG4EN28","2022_May_27_1215","Present_First","S_blue","MainTask",135,"Target","present",1,"H","4",0,0.247124100000292,"fast","post_correct",0.415962010622025,77.0833333333333
327.3046061,0,"AG4EN28","2022_May_27_1215","Present_First","S_blue","MainTask",135,"Response","present",1,"H","4",0,0.247124100000292,"fast","post_correct",0.415962010622025,77.0833333333333
328.1917724,0.1,"AG4EN28","2022_May_27_1215","Present_First","S_blue","MainTask",136,"Flanker","present",0.66,"S","4",1,0.226881300000969,"fast","post_error",0.415962010622025,77.0833333333333
328.290723999999,0.2,"AG4EN28","2022_May_27_1215","Present_First","S_blue","MainTask",136,"Target","present",0.66,"S","4",1,0.226881300000969,"fast","post_error",0.415962010622025,77.0833333333333
328.5176053,0,"AG4EN28","2022_May_27_1215","Present_First","S_blue","MainTask",136,"Response","present",0.66,"S","4",1,0.226881300000969,"fast","post_error",0.415962010622025,77.0833333333333
329.308713799999,0.1,"AG4EN28","2022_May_27_1215","Present_First","S_blue","MainTask",137,"Flanker","present",1,"H","2",1,0.245295400000032,"fast","post_correct",0.415962010622025,77.0833333333333
329.4073926,0.2,"AG4EN28","2022_May_27_1215","Present_First","S_blue","MainTask",137,"Target","present",1,"H","2",1,0.245295400000032,"fast","post_correct",0.415962010622025,77.0833333333333
329.652688,0,"AG4EN28","2022_May_27_1215","Present_First","S_blue","MainTask",137,"Response","present",1,"H","2",1,0.245295400000032,"fast","post_correct",0.415962010622025,77.0833333333333
330.525035499999,0.1,"AG4EN28","2022_May_27_1215","Present_First","S_blue","MainTask",138,"Flanker","present",0.33,"S","4",1,0.281590100001267,"fast","post_correct",0.415962010622025,77.0833333333333
330.624131299999,0.2,"AG4EN28","2022_May_27_1215","Present_First","S_blue","MainTask",138,"Target","present",0.33,"S","4",1,0.281590100001267,"fast","post_correct",0.415962010622025,77.0833333333333
330.9057214,0,"AG4EN28","2022_May_27_1215","Present_First","S_blue","MainTask",138,"Response","present",0.33,"S","4",1,0.281590100001267,"fast","post_correct",0.415962010622025,77.0833333333333
331.859273099999,0.1,"AG4EN28","2022_May_27_1215","Present_First","S_blue","MainTask",139,"Flanker","present",0.66,"H","2",1,0.181413000000248,"fast","post_correct",0.415962010622025,77.0833333333333
331.957259499999,0.2,"AG4EN28","2022_May_27_1215","Present_First","S_blue","MainTask",139,"Target","present",0.66,"H","2",1,0.181413000000248,"fast","post_correct",0.415962010622025,77.0833333333333
332.138672499999,0,"AG4EN28","2022_May_27_1215","Present_First","S_blue","MainTask",139,"Response","present",0.66,"H","2",1,0.181413000000248,"fast","post_correct",0.415962010622025,77.0833333333333
332.9753449,0.1,"AG4EN28","2022_May_27_1215","Present_First","S_blue","MainTask",140,"Flanker","present",0.66,"S","4",1,0.231321299999763,"fast","post_correct",0.415962010622025,77.0833333333333
333.0742529,0.2,"AG4EN28","2022_May_27_1215","Present_First","S_blue","MainTask",140,"Target","present",0.66,"S","4",1,0.231321299999763,"fast","post_correct",0.415962010622025,77.0833333333333
333.3055742,0,"AG4EN28","2022_May_27_1215","Present_First","S_blue","MainTask",140,"Response","present",0.66,"S","4",1,0.231321299999763,"fast","post_correct",0.415962010622025,77.0833333333333
334.340498699999,0.1,"AG4EN28","2022_May_27_1215","Present_First","S_blue","MainTask",141,"Flanker","present",0.66,"S","None",0,NA,NA,"post_correct",0.415962010622025,77.0833333333333
334.423998599999,0.2,"AG4EN28","2022_May_27_1215","Present_First","S_blue","MainTask",141,"Target","present",0.66,"S","None",0,NA,NA,"post_correct",0.415962010622025,77.0833333333333
335.428039099999,0.1,"AG4EN28","2022_May_27_1215","Present_First","S_blue","MainTask",141,"TooSlowFeedback","present",0.66,"S","None",0,NA,NA,"post_correct",0.415962010622025,77.0833333333333
337.359191199999,0.1,"AG4EN28","2022_May_27_1215","Present_First","S_blue","MainTask",142,"Flanker","present",0.66,"H","2",1,0.277410300001065,"fast","post_error",0.415962010622025,77.0833333333333
337.4573578,0.2,"AG4EN28","2022_May_27_1215","Present_First","S_blue","MainTask",142,"Target","present",0.66,"H","2",1,0.277410300001065,"fast","post_error",0.415962010622025,77.0833333333333
337.734768100001,0,"AG4EN28","2022_May_27_1215","Present_First","S_blue","MainTask",142,"Response","present",0.66,"H","2",1,0.277410300001065,"fast","post_error",0.415962010622025,77.0833333333333
338.691772299999,0.1,"AG4EN28","2022_May_27_1215","Present_First","S_blue","MainTask",143,"Flanker","present",1,"H","2",1,0.2260124000004,"fast","post_correct",0.415962010622025,77.0833333333333
338.790628899998,0.2,"AG4EN28","2022_May_27_1215","Present_First","S_blue","MainTask",143,"Target","present",1,"H","2",1,0.2260124000004,"fast","post_correct",0.415962010622025,77.0833333333333
339.016641299999,0,"AG4EN28","2022_May_27_1215","Present_First","S_blue","MainTask",143,"Response","present",1,"H","2",1,0.2260124000004,"fast","post_correct",0.415962010622025,77.0833333333333
339.958571499999,0.1,"AG4EN28","2022_May_27_1215","Present_First","S_blue","MainTask",144,"Flanker","present",1,"S","4",1,0.271430700000565,"fast","post_correct",0.415962010622025,77.0833333333333
340.057358,0.2,"AG4EN28","2022_May_27_1215","Present_First","S_blue","MainTask",144,"Target","present",1,"S","4",1,0.271430700000565,"fast","post_correct",0.415962010622025,77.0833333333333
340.328788700001,0,"AG4EN28","2022_May_27_1215","Present_First","S_blue","MainTask",144,"Response","present",1,"S","4",1,0.271430700000565,"fast","post_correct",0.415962010622025,77.0833333333333
341.324814599999,0.1,"AG4EN28","2022_May_27_1215","Present_First","S_blue","MainTask",145,"Flanker","present",0.66,"S","2",0,0.203483699999197,"fast","post_correct",0.415962010622025,77.0833333333333
341.424071199999,0.2,"AG4EN28","2022_May_27_1215","Present_First","S_blue","MainTask",145,"Target","present",0.66,"S","2",0,0.203483699999197,"fast","post_correct",0.415962010622025,77.0833333333333
341.627554899998,0,"AG4EN28","2022_May_27_1215","Present_First","S_blue","MainTask",145,"Response","present",0.66,"S","2",0,0.203483699999197,"fast","post_correct",0.415962010622025,77.0833333333333
342.4408188,0.1,"AG4EN28","2022_May_27_1215","Present_First","S_blue","MainTask",146,"Flanker","present",0.33,"S","2",0,0.245507600000565,"fast","post_error",0.415962010622025,77.0833333333333
342.5240239,0.2,"AG4EN28","2022_May_27_1215","Present_First","S_blue","MainTask",146,"Target","present",0.33,"S","2",0,0.245507600000565,"fast","post_error",0.415962010622025,77.0833333333333
342.7695315,0,"AG4EN28","2022_May_27_1215","Present_First","S_blue","MainTask",146,"Response","present",0.33,"S","2",0,0.245507600000565,"fast","post_error",0.415962010622025,77.0833333333333
343.608395599998,0.1,"AG4EN28","2022_May_27_1215","Present_First","S_blue","MainTask",147,"Flanker","present",1,"S","4",1,0.281207099998937,"fast","post_error",0.415962010622025,77.0833333333333
343.707336599999,0.2,"AG4EN28","2022_May_27_1215","Present_First","S_blue","MainTask",147,"Target","present",1,"S","4",1,0.281207099998937,"fast","post_error",0.415962010622025,77.0833333333333
343.988543699998,0,"AG4EN28","2022_May_27_1215","Present_First","S_blue","MainTask",147,"Response","present",1,"S","4",1,0.281207099998937,"fast","post_error",0.415962010622025,77.0833333333333
344.908259399999,0.1,"AG4EN28","2022_May_27_1215","Present_First","S_blue","MainTask",148,"Flanker","present",0.66,"H","2",1,0.248121900000115,"fast","post_correct",0.415962010622025,77.0833333333333
345.007416499999,0.2,"AG4EN28","2022_May_27_1215","Present_First","S_blue","MainTask",148,"Target","present",0.66,"H","2",1,0.248121900000115,"fast","post_correct",0.415962010622025,77.0833333333333
345.255538399999,0,"AG4EN28","2022_May_27_1215","Present_First","S_blue","MainTask",148,"Response","present",0.66,"H","2",1,0.248121900000115,"fast","post_correct",0.415962010622025,77.0833333333333
346.173878,0.1,"AG4EN28","2022_May_27_1215","Present_First","S_blue","MainTask",149,"Flanker","present",0.66,"H","2",1,0.345256200000222,"fast","post_correct",0.415962010622025,77.0833333333333
346.2572788,0.2,"AG4EN28","2022_May_27_1215","Present_First","S_blue","MainTask",149,"Target","present",0.66,"H","2",1,0.345256200000222,"fast","post_correct",0.415962010622025,77.0833333333333
346.602535,0,"AG4EN28","2022_May_27_1215","Present_First","S_blue","MainTask",149,"Response","present",0.66,"H","2",1,0.345256200000222,"fast","post_correct",0.415962010622025,77.0833333333333
347.575098399999,0.1,"AG4EN28","2022_May_27_1215","Present_First","S_blue","MainTask",150,"Flanker","present",0,"H","4",0,0.253556100000424,"fast","post_correct",0.415962010622025,77.0833333333333
347.673995699999,0.2,"AG4EN28","2022_May_27_1215","Present_First","S_blue","MainTask",150,"Target","present",0,"H","4",0,0.253556100000424,"fast","post_correct",0.415962010622025,77.0833333333333
347.927551799999,0,"AG4EN28","2022_May_27_1215","Present_First","S_blue","MainTask",150,"Response","present",0,"H","4",0,0.253556100000424,"fast","post_correct",0.415962010622025,77.0833333333333
348.941727199999,0.1,"AG4EN28","2022_May_27_1215","Present_First","S_blue","MainTask",151,"Flanker","present",0.33,"H","2",1,0.366943600000013,"fast","post_error",0.415962010622025,77.0833333333333
349.040731999999,0.2,"AG4EN28","2022_May_27_1215","Present_First","S_blue","MainTask",151,"Target","present",0.33,"H","2",1,0.366943600000013,"fast","post_error",0.415962010622025,77.0833333333333
349.407675599999,0,"AG4EN28","2022_May_27_1215","Present_First","S_blue","MainTask",151,"Response","present",0.33,"H","2",1,0.366943600000013,"fast","post_error",0.415962010622025,77.0833333333333
350.241569899999,0.1,"AG4EN28","2022_May_27_1215","Present_First","S_blue","MainTask",152,"Flanker","present",0.33,"S","2",0,0.268272900000738,"fast","post_correct",0.415962010622025,77.0833333333333
350.3404524,0.2,"AG4EN28","2022_May_27_1215","Present_First","S_blue","MainTask",152,"Target","present",0.33,"S","2",0,0.268272900000738,"fast","post_correct",0.415962010622025,77.0833333333333
350.608725300001,0,"AG4EN28","2022_May_27_1215","Present_First","S_blue","MainTask",152,"Response","present",0.33,"S","2",0,0.268272900000738,"fast","post_correct",0.415962010622025,77.0833333333333
351.626072499999,0.1,"AG4EN28","2022_May_27_1215","Present_First","S_blue","MainTask",153,"Flanker","present",1,"S","2",0,0.234573000001546,"fast","post_error",0.415962010622025,77.0833333333333
351.724050199999,0.2,"AG4EN28","2022_May_27_1215","Present_First","S_blue","MainTask",153,"Target","present",1,"S","2",0,0.234573000001546,"fast","post_error",0.415962010622025,77.0833333333333
351.9586232,0,"AG4EN28","2022_May_27_1215","Present_First","S_blue","MainTask",153,"Response","present",1,"S","2",0,0.234573000001546,"fast","post_error",0.415962010622025,77.0833333333333
352.741787399998,0.1,"AG4EN28","2022_May_27_1215","Present_First","S_blue","MainTask",154,"Flanker","present",1,"H","2",1,0.247366599998713,"fast","post_error",0.415962010622025,77.0833333333333
352.840748199998,0.2,"AG4EN28","2022_May_27_1215","Present_First","S_blue","MainTask",154,"Target","present",1,"H","2",1,0.247366599998713,"fast","post_error",0.415962010622025,77.0833333333333
353.088114799997,0,"AG4EN28","2022_May_27_1215","Present_First","S_blue","MainTask",154,"Response","present",1,"H","2",1,0.247366599998713,"fast","post_error",0.415962010622025,77.0833333333333
354.108518399999,0.1,"AG4EN28","2022_May_27_1215","Present_First","S_blue","MainTask",155,"Flanker","present",0,"H","4",0,0.316141799999968,"fast","post_correct",0.415962010622025,77.0833333333333
354.207386299999,0.2,"AG4EN28","2022_May_27_1215","Present_First","S_blue","MainTask",155,"Target","present",0,"H","4",0,0.316141799999968,"fast","post_correct",0.415962010622025,77.0833333333333
354.523528099999,0,"AG4EN28","2022_May_27_1215","Present_First","S_blue","MainTask",155,"Response","present",0,"H","4",0,0.316141799999968,"fast","post_correct",0.415962010622025,77.0833333333333
355.475918299999,0.1,"AG4EN28","2022_May_27_1215","Present_First","S_blue","MainTask",156,"Flanker","present",0.33,"H","2",1,0.269460299999992,"fast","post_error",0.415962010622025,77.0833333333333
355.5740372,0.2,"AG4EN28","2022_May_27_1215","Present_First","S_blue","MainTask",156,"Target","present",0.33,"H","2",1,0.269460299999992,"fast","post_error",0.415962010622025,77.0833333333333
355.8434975,0,"AG4EN28","2022_May_27_1215","Present_First","S_blue","MainTask",156,"Response","present",0.33,"H","2",1,0.269460299999992,"fast","post_error",0.415962010622025,77.0833333333333
