"Onset","Duration","Participant","date_time","Target_Mapping","Order_Instruction","Running","Trial","Event","Type","InstructionCondition","Accuracy","RT","Post_Trial","TaskPerf"
400.538598955394,0.5,"AH17AR05b","2021_Oct_12_1635","circle","relaxed_first","Practice",0,"Fixation","Go","relaxed",0,NA,NA,73.015873015873
401.039047456525,0.1,"AH17AR05b","2021_Oct_12_1635","circle","relaxed_first","Practice",0,"Target","Go","relaxed",0,NA,NA,73.015873015873
401.139102151785,1.5,"AH17AR05b","2021_Oct_12_1635","circle","relaxed_first","Practice",0,"ITI","Go","relaxed",0,NA,NA,73.015873015873
402.640382604284,0.5,"AH17AR05b","2021_Oct_12_1635","circle","relaxed_first","Practice",1,"Fixation","Go","relaxed",1,0.180918209436641,"post_error_inh",73.015873015873
403.124149196999,0.1,"AH17AR05b","2021_Oct_12_1635","circle","relaxed_first","Practice",1,"Target","Go","relaxed",1,0.180918209436641,"post_error_inh",73.015873015873
403.22421147667,1.08091820943664,"AH17AR05b","2021_Oct_12_1635","circle","relaxed_first","Practice",1,"ITI","Go","relaxed",1,0.180918209436641,"post_error_inh",73.015873015873
403.305067406436,0,"AH17AR05b","2021_Oct_12_1635","circle","relaxed_first","Practice",1,"Response","Go","relaxed",1,0.180918209436641,"post_error_inh",73.015873015873
404.32518767767,0.5,"AH17AR05b","2021_Oct_12_1635","circle","relaxed_first","Practice",2,"Fixation","Go","relaxed",0,NA,"post_correct_resp",73.015873015873
404.808894178528,0.1,"AH17AR05b","2021_Oct_12_1635","circle","relaxed_first","Practice",2,"Target","Go","relaxed",0,NA,"post_correct_resp",73.015873015873
404.908982128505,1.5,"AH17AR05b","2021_Oct_12_1635","circle","relaxed_first","Practice",2,"ITI","Go","relaxed",0,NA,"post_correct_resp",73.015873015873
406.410267248331,0.5,"AH17AR05b","2021_Oct_12_1635","circle","relaxed_first","Practice",3,"Fixation","NoGo","relaxed",1,NA,"post_error_inh",73.015873015873
406.894002044875,0.1,"AH17AR05b","2021_Oct_12_1635","circle","relaxed_first","Practice",3,"Target","NoGo","relaxed",1,NA,"post_error_inh",73.015873015873
406.994086786064,1.5,"AH17AR05b","2021_Oct_12_1635","circle","relaxed_first","Practice",3,"ITI","NoGo","relaxed",1,NA,"post_error_inh",73.015873015873
408.495370447348,0.5,"AH17AR05b","2021_Oct_12_1635","circle","relaxed_first","Practice",4,"Fixation","Go","relaxed",1,0.144455869678495,"post_correct_inh",73.015873015873
408.979491465354,0.1,"AH17AR05b","2021_Oct_12_1635","circle","relaxed_first","Practice",4,"Target","Go","relaxed",1,0.144455869678495,"post_correct_inh",73.015873015873
409.079574456293,1.0444558696785,"AH17AR05b","2021_Oct_12_1635","circle","relaxed_first","Practice",4,"ITI","Go","relaxed",1,0.144455869678495,"post_correct_inh",73.015873015873
409.123947335032,0,"AH17AR05b","2021_Oct_12_1635","circle","relaxed_first","Practice",4,"Response","Go","relaxed",1,0.144455869678495,"post_correct_inh",73.015873015873
410.147153294041,0.5,"AH17AR05b","2021_Oct_12_1635","circle","relaxed_first","Practice",5,"Fixation","Go","relaxed",0,NA,"post_correct_resp",73.015873015873
410.630895674993,0.1,"AH17AR05b","2021_Oct_12_1635","circle","relaxed_first","Practice",5,"Target","Go","relaxed",0,NA,"post_correct_resp",73.015873015873
410.730980999597,1.5,"AH17AR05b","2021_Oct_12_1635","circle","relaxed_first","Practice",5,"ITI","Go","relaxed",0,NA,"post_correct_resp",73.015873015873
412.232261160385,0.5,"AH17AR05b","2021_Oct_12_1635","circle","relaxed_first","Practice",6,"Fixation","NoGo","relaxed",0,0.180857825871499,"post_error_inh",73.015873015873
412.716002957921,0.1,"AH17AR05b","2021_Oct_12_1635","circle","relaxed_first","Practice",6,"Target","NoGo","relaxed",0,0.180857825871499,"post_error_inh",73.015873015873
412.816090032775,1.0808578258715,"AH17AR05b","2021_Oct_12_1635","circle","relaxed_first","Practice",6,"ITI","NoGo","relaxed",0,0.180857825871499,"post_error_inh",73.015873015873
412.896860783792,0,"AH17AR05b","2021_Oct_12_1635","circle","relaxed_first","Practice",6,"Response","NoGo","relaxed",0,0.180857825871499,"post_error_inh",73.015873015873
413.917027436601,0.5,"AH17AR05b","2021_Oct_12_1635","circle","relaxed_first","Practice",7,"Fixation","NoGo","relaxed",0,0.176065645980998,"post_error_resp",73.015873015873
414.400771567802,0.1,"AH17AR05b","2021_Oct_12_1635","circle","relaxed_first","Practice",7,"Target","NoGo","relaxed",0,0.176065645980998,"post_error_resp",73.015873015873
414.500857475821,1.076065645981,"AH17AR05b","2021_Oct_12_1635","circle","relaxed_first","Practice",7,"ITI","NoGo","relaxed",0,0.176065645980998,"post_error_resp",73.015873015873
414.576837213783,0,"AH17AR05b","2021_Oct_12_1635","circle","relaxed_first","Practice",7,"Response","NoGo","relaxed",0,0.176065645980998,"post_error_resp",73.015873015873
415.601794587939,0.5,"AH17AR05b","2021_Oct_12_1635","circle","relaxed_first","Practice",8,"Fixation","Go","relaxed",1,0.171251587984443,"post_error_resp",73.015873015873
416.085539302556,0.1,"AH17AR05b","2021_Oct_12_1635","circle","relaxed_first","Practice",8,"Target","Go","relaxed",1,0.171251587984443,"post_error_resp",73.015873015873
416.185624918868,1.07125158798444,"AH17AR05b","2021_Oct_12_1635","circle","relaxed_first","Practice",8,"ITI","Go","relaxed",1,0.171251587984443,"post_error_resp",73.015873015873
416.25679089054,0,"AH17AR05b","2021_Oct_12_1635","circle","relaxed_first","Practice",8,"Response","Go","relaxed",1,0.171251587984443,"post_error_resp",73.015873015873
417.286562906113,0.5,"AH17AR05b","2021_Oct_12_1635","circle","relaxed_first","Practice",9,"Fixation","Go","relaxed",0,NA,"post_correct_resp",73.015873015873
417.770306745602,0.1,"AH17AR05b","2021_Oct_12_1635","circle","relaxed_first","Practice",9,"Target","Go","relaxed",0,NA,"post_correct_resp",73.015873015873
417.870391195083,1.5,"AH17AR05b","2021_Oct_12_1635","circle","relaxed_first","Practice",9,"ITI","Go","relaxed",0,NA,"post_correct_resp",73.015873015873
419.371681857363,0.5,"AH17AR05b","2021_Oct_12_1635","circle","relaxed_first","Practice",10,"Fixation","NoGo","relaxed",0,0.158302667525277,"post_error_inh",73.015873015873
419.855416653903,0.1,"AH17AR05b","2021_Oct_12_1635","circle","relaxed_first","Practice",10,"Target","NoGo","relaxed",0,0.158302667525277,"post_error_inh",73.015873015873
419.955499936554,1.05830266752528,"AH17AR05b","2021_Oct_12_1635","circle","relaxed_first","Practice",10,"ITI","NoGo","relaxed",0,0.158302667525277,"post_error_inh",73.015873015873
420.013719321428,0,"AH17AR05b","2021_Oct_12_1635","circle","relaxed_first","Practice",10,"Response","NoGo","relaxed",0,0.158302667525277,"post_error_inh",73.015873015873
421.039770600786,0.5,"AH17AR05b","2021_Oct_12_1635","circle","relaxed_first","Practice",11,"Fixation","Go","relaxed",1,0.180168519742438,"post_error_resp",73.015873015873
421.523501605123,0.1,"AH17AR05b","2021_Oct_12_1635","circle","relaxed_first","Practice",11,"Target","Go","relaxed",1,0.180168519742438,"post_error_resp",73.015873015873
421.623585179481,1.08016851974244,"AH17AR05b","2021_Oct_12_1635","circle","relaxed_first","Practice",11,"ITI","Go","relaxed",1,0.180168519742438,"post_error_resp",73.015873015873
421.703670124865,0,"AH17AR05b","2021_Oct_12_1635","circle","relaxed_first","Practice",11,"Response","Go","relaxed",1,0.180168519742438,"post_error_resp",73.015873015873
422.724529000887,0.5,"AH17AR05b","2021_Oct_12_1635","circle","relaxed_first","Practice",12,"Fixation","NoGo","relaxed",1,NA,"post_correct_resp",73.015873015873
423.20827663258,0.1,"AH17AR05b","2021_Oct_12_1635","circle","relaxed_first","Practice",12,"Target","NoGo","relaxed",1,NA,"post_correct_resp",73.015873015873
423.308353497654,1.5,"AH17AR05b","2021_Oct_12_1635","circle","relaxed_first","Practice",12,"ITI","NoGo","relaxed",1,NA,"post_correct_resp",73.015873015873
424.809638034065,0.5,"AH17AR05b","2021_Oct_12_1635","circle","relaxed_first","Practice",13,"Fixation","Go","relaxed",1,0.266223270427872,"post_correct_inh",73.015873015873
425.29337778964,0.1,"AH17AR05b","2021_Oct_12_1635","circle","relaxed_first","Practice",13,"Target","Go","relaxed",1,0.266223270427872,"post_correct_inh",73.015873015873
425.393484117227,1.16622327042787,"AH17AR05b","2021_Oct_12_1635","circle","relaxed_first","Practice",13,"ITI","Go","relaxed",1,0.266223270427872,"post_correct_inh",73.015873015873
425.559601060068,0,"AH17AR05b","2021_Oct_12_1635","circle","relaxed_first","Practice",13,"Response","Go","relaxed",1,0.266223270427872,"post_correct_inh",73.015873015873
426.577805976223,0.5,"AH17AR05b","2021_Oct_12_1635","circle","relaxed_first","Practice",14,"Fixation","Go","relaxed",1,0.310999873105175,"post_correct_resp",73.015873015873
427.061550107421,0.1,"AH17AR05b","2021_Oct_12_1635","circle","relaxed_first","Practice",14,"Target","Go","relaxed",1,0.310999873105175,"post_correct_resp",73.015873015873
427.161634556902,1.21099987310517,"AH17AR05b","2021_Oct_12_1635","circle","relaxed_first","Practice",14,"ITI","Go","relaxed",1,0.310999873105175,"post_correct_resp",73.015873015873
427.372549980526,0,"AH17AR05b","2021_Oct_12_1635","circle","relaxed_first","Practice",14,"Response","Go","relaxed",1,0.310999873105175,"post_correct_resp",73.015873015873
437.020031008567,0.5,"AH17AR05b","2021_Oct_12_1635","circle","relaxed_first","MainTask",0,"Fixation","Go","relaxed",1,0.180552115831233,"post_correct_resp",73.015873015873
437.503772222684,0.1,"AH17AR05b","2021_Oct_12_1635","circle","relaxed_first","MainTask",0,"Target","Go","relaxed",1,0.180552115831233,"post_correct_resp",73.015873015873
437.684324338515,0,"AH17AR05b","2021_Oct_12_1635","circle","relaxed_first","MainTask",0,"Response","Go","relaxed",1,0.180552115831233,"post_correct_resp",73.015873015873
438.738158184526,0.5,"AH17AR05b","2021_Oct_12_1635","circle","relaxed_first","MainTask",1,"Fixation","Go","relaxed",1,0.300489048549935,"post_correct_resp",73.015873015873
439.221900857185,0.1,"AH17AR05b","2021_Oct_12_1635","circle","relaxed_first","MainTask",1,"Target","Go","relaxed",1,0.300489048549935,"post_correct_resp",73.015873015873
439.522389905735,0,"AH17AR05b","2021_Oct_12_1635","circle","relaxed_first","MainTask",1,"Response","Go","relaxed",1,0.300489048549935,"post_correct_resp",73.015873015873
440.55637564413,0.5,"AH17AR05b","2021_Oct_12_1635","circle","relaxed_first","MainTask",2,"Fixation","Go","relaxed",1,0.239078960996267,"post_correct_resp",73.015873015873
441.040178408646,0.1,"AH17AR05b","2021_Oct_12_1635","circle","relaxed_first","MainTask",2,"Target","Go","relaxed",1,0.239078960996267,"post_correct_resp",73.015873015873
441.279257369642,0,"AH17AR05b","2021_Oct_12_1635","circle","relaxed_first","MainTask",2,"Response","Go","relaxed",1,0.239078960996267,"post_correct_resp",73.015873015873
442.307865761788,0.5,"AH17AR05b","2021_Oct_12_1635","circle","relaxed_first","MainTask",3,"Fixation","Go","relaxed",1,0.392629996043979,"post_correct_resp",73.015873015873
442.791608142739,0.1,"AH17AR05b","2021_Oct_12_1635","circle","relaxed_first","MainTask",3,"Target","Go","relaxed",1,0.392629996043979,"post_correct_resp",73.015873015873
443.184238138783,0,"AH17AR05b","2021_Oct_12_1635","circle","relaxed_first","MainTask",3,"Response","Go","relaxed",1,0.392629996043979,"post_correct_resp",73.015873015873
444.226166795746,0.5,"AH17AR05b","2021_Oct_12_1635","circle","relaxed_first","MainTask",4,"Fixation","Go","relaxed",1,0.265269968513167,"post_correct_resp",73.015873015873
444.709908301575,0.1,"AH17AR05b","2021_Oct_12_1635","circle","relaxed_first","MainTask",4,"Target","Go","relaxed",1,0.265269968513167,"post_correct_resp",73.015873015873
444.975178270088,0,"AH17AR05b","2021_Oct_12_1635","circle","relaxed_first","MainTask",4,"Response","Go","relaxed",1,0.265269968513167,"post_correct_resp",73.015873015873
446.011015187782,0.5,"AH17AR05b","2021_Oct_12_1635","circle","relaxed_first","MainTask",5,"Fixation","Go","relaxed",1,0.284438104656147,"post_correct_resp",73.015873015873
446.49476048581,0.1,"AH17AR05b","2021_Oct_12_1635","circle","relaxed_first","MainTask",5,"Target","Go","relaxed",1,0.284438104656147,"post_correct_resp",73.015873015873
446.779198590466,0,"AH17AR05b","2021_Oct_12_1635","circle","relaxed_first","MainTask",5,"Response","Go","relaxed",1,0.284438104656147,"post_correct_resp",73.015873015873
447.829229730301,0.5,"AH17AR05b","2021_Oct_12_1635","circle","relaxed_first","MainTask",6,"Fixation","Go","relaxed",1,0.272118690172647,"post_correct_resp",73.015873015873
448.312975028333,0.1,"AH17AR05b","2021_Oct_12_1635","circle","relaxed_first","MainTask",6,"Target","Go","relaxed",1,0.272118690172647,"post_correct_resp",73.015873015873
448.585093718506,0,"AH17AR05b","2021_Oct_12_1635","circle","relaxed_first","MainTask",6,"Response","Go","relaxed",1,0.272118690172647,"post_correct_resp",73.015873015873
449.630763822952,0.5,"AH17AR05b","2021_Oct_12_1635","circle","relaxed_first","MainTask",7,"Fixation","Go","relaxed",1,0.329587801938032,"post_correct_resp",73.015873015873
450.114508829272,0.1,"AH17AR05b","2021_Oct_12_1635","circle","relaxed_first","MainTask",7,"Target","Go","relaxed",1,0.329587801938032,"post_correct_resp",73.015873015873
450.44409663121,0,"AH17AR05b","2021_Oct_12_1635","circle","relaxed_first","MainTask",7,"Response","Go","relaxed",1,0.329587801938032,"post_correct_resp",73.015873015873
451.482344224252,0.5,"AH17AR05b","2021_Oct_12_1635","circle","relaxed_first","MainTask",8,"Fixation","NoGo","relaxed",0,0.17594283688959,"post_correct_resp",73.015873015873
451.966085438373,0.1,"AH17AR05b","2021_Oct_12_1635","circle","relaxed_first","MainTask",8,"Target","NoGo","relaxed",0,0.17594283688959,"post_correct_resp",73.015873015873
452.142028275263,0,"AH17AR05b","2021_Oct_12_1635","circle","relaxed_first","MainTask",8,"Response","NoGo","relaxed",0,0.17594283688959,"post_correct_resp",73.015873015873
453.183792408883,0.5,"AH17AR05b","2021_Oct_12_1635","circle","relaxed_first","MainTask",9,"Fixation","Go","relaxed",1,0.185459228694526,"post_error_resp",73.015873015873
453.667533331292,0.1,"AH17AR05b","2021_Oct_12_1635","circle","relaxed_first","MainTask",9,"Target","Go","relaxed",1,0.185459228694526,"post_error_resp",73.015873015873
453.852992559987,0,"AH17AR05b","2021_Oct_12_1635","circle","relaxed_first","MainTask",9,"Response","Go","relaxed",1,0.185459228694526,"post_error_resp",73.015873015873
454.901923668753,0.5,"AH17AR05b","2021_Oct_12_1635","circle","relaxed_first","MainTask",10,"Fixation","Go","relaxed",1,0.233245675066428,"post_correct_resp",73.015873015873
455.385688511225,0.1,"AH17AR05b","2021_Oct_12_1635","circle","relaxed_first","MainTask",10,"Target","Go","relaxed",1,0.233245675066428,"post_correct_resp",73.015873015873
455.618934186291,0,"AH17AR05b","2021_Oct_12_1635","circle","relaxed_first","MainTask",10,"Response","Go","relaxed",1,0.233245675066428,"post_correct_resp",73.015873015873
456.653411744457,0.5,"AH17AR05b","2021_Oct_12_1635","circle","relaxed_first","MainTask",11,"Fixation","Go","relaxed",1,0.247763984847552,"post_correct_resp",73.015873015873
457.137154125408,0.1,"AH17AR05b","2021_Oct_12_1635","circle","relaxed_first","MainTask",11,"Target","Go","relaxed",1,0.247763984847552,"post_correct_resp",73.015873015873
457.384918110256,0,"AH17AR05b","2021_Oct_12_1635","circle","relaxed_first","MainTask",11,"Response","Go","relaxed",1,0.247763984847552,"post_correct_resp",73.015873015873
458.421583478823,0.5,"AH17AR05b","2021_Oct_12_1635","circle","relaxed_first","MainTask",12,"Fixation","Go","relaxed",1,0.275542467585183,"post_correct_resp",73.015873015873
458.905326734897,0.1,"AH17AR05b","2021_Oct_12_1635","circle","relaxed_first","MainTask",12,"Target","Go","relaxed",1,0.275542467585183,"post_correct_resp",73.015873015873
459.180869202482,0,"AH17AR05b","2021_Oct_12_1635","circle","relaxed_first","MainTask",12,"Response","Go","relaxed",1,0.275542467585183,"post_correct_resp",73.015873015873
460.223119030012,0.5,"AH17AR05b","2021_Oct_12_1635","circle","relaxed_first","MainTask",13,"Fixation","Go","relaxed",1,0.255972066035611,"post_correct_resp",73.015873015873
460.70685878559,0.1,"AH17AR05b","2021_Oct_12_1635","circle","relaxed_first","MainTask",13,"Target","Go","relaxed",1,0.255972066035611,"post_correct_resp",73.015873015873
460.962830851626,0,"AH17AR05b","2021_Oct_12_1635","circle","relaxed_first","MainTask",13,"Response","Go","relaxed",1,0.255972066035611,"post_correct_resp",73.015873015873
462.007985216238,0.5,"AH17AR05b","2021_Oct_12_1635","circle","relaxed_first","MainTask",14,"Fixation","Go","relaxed",1,0.297113986380282,"post_correct_resp",73.015873015873
462.49171213666,0.1,"AH17AR05b","2021_Oct_12_1635","circle","relaxed_first","MainTask",14,"Target","Go","relaxed",1,0.297113986380282,"post_correct_resp",73.015873015873
462.78882612304,0,"AH17AR05b","2021_Oct_12_1635","circle","relaxed_first","MainTask",14,"Response","Go","relaxed",1,0.297113986380282,"post_correct_resp",73.015873015873
463.826180797736,0.5,"AH17AR05b","2021_Oct_12_1635","circle","relaxed_first","MainTask",15,"Fixation","Go","relaxed",1,0.182825688396406,"post_correct_resp",73.015873015873
464.309926679183,0.1,"AH17AR05b","2021_Oct_12_1635","circle","relaxed_first","MainTask",15,"Target","Go","relaxed",1,0.182825688396406,"post_correct_resp",73.015873015873
464.492752367579,0,"AH17AR05b","2021_Oct_12_1635","circle","relaxed_first","MainTask",15,"Response","Go","relaxed",1,0.182825688396406,"post_correct_resp",73.015873015873
465.527632191151,0.5,"AH17AR05b","2021_Oct_12_1635","circle","relaxed_first","MainTask",16,"Fixation","Go","relaxed",1,0.234407548239687,"post_break",73.015873015873
466.011374572103,0.1,"AH17AR05b","2021_Oct_12_1635","circle","relaxed_first","MainTask",16,"Target","Go","relaxed",1,0.234407548239687,"post_break",73.015873015873
466.245782120343,0,"AH17AR05b","2021_Oct_12_1635","circle","relaxed_first","MainTask",16,"Response","Go","relaxed",1,0.234407548239687,"post_break",73.015873015873
467.295805384056,0.5,"AH17AR05b","2021_Oct_12_1635","circle","relaxed_first","MainTask",17,"Fixation","Go","relaxed",1,0.179146666432644,"post_correct_resp",73.015873015873
467.779546598173,0.1,"AH17AR05b","2021_Oct_12_1635","circle","relaxed_first","MainTask",17,"Target","Go","relaxed",1,0.179146666432644,"post_correct_resp",73.015873015873
467.958693264606,0,"AH17AR05b","2021_Oct_12_1635","circle","relaxed_first","MainTask",17,"Response","Go","relaxed",1,0.179146666432644,"post_correct_resp",73.015873015873
468.997280697531,0.5,"AH17AR05b","2021_Oct_12_1635","circle","relaxed_first","MainTask",18,"Fixation","Go","relaxed",1,0.182650955270219,"post_correct_resp",73.015873015873
469.480994199384,0.1,"AH17AR05b","2021_Oct_12_1635","circle","relaxed_first","MainTask",18,"Target","Go","relaxed",1,0.182650955270219,"post_correct_resp",73.015873015873
469.663645154654,0,"AH17AR05b","2021_Oct_12_1635","circle","relaxed_first","MainTask",18,"Response","Go","relaxed",1,0.182650955270219,"post_correct_resp",73.015873015873
470.698701169895,0.5,"AH17AR05b","2021_Oct_12_1635","circle","relaxed_first","MainTask",19,"Fixation","Go","relaxed",1,0.282168616005947,"post_correct_resp",73.015873015873
471.182441508889,0.1,"AH17AR05b","2021_Oct_12_1635","circle","relaxed_first","MainTask",19,"Target","Go","relaxed",1,0.282168616005947,"post_correct_resp",73.015873015873
471.464610124895,0,"AH17AR05b","2021_Oct_12_1635","circle","relaxed_first","MainTask",19,"Response","Go","relaxed",1,0.282168616005947,"post_correct_resp",73.015873015873
472.500231470342,0.5,"AH17AR05b","2021_Oct_12_1635","circle","relaxed_first","MainTask",20,"Fixation","NoGo","relaxed",1,NA,"post_correct_resp",73.015873015873
472.983984061073,0.1,"AH17AR05b","2021_Oct_12_1635","circle","relaxed_first","MainTask",20,"Target","NoGo","relaxed",1,NA,"post_correct_resp",73.015873015873
474.585339336685,0.5,"AH17AR05b","2021_Oct_12_1635","circle","relaxed_first","MainTask",21,"Fixation","Go","relaxed",1,0.190459688135888,"post_correct_inh",73.015873015873
475.069084343009,0.1,"AH17AR05b","2021_Oct_12_1635","circle","relaxed_first","MainTask",21,"Target","Go","relaxed",1,0.190459688135888,"post_correct_inh",73.015873015873
475.259544031145,0,"AH17AR05b","2021_Oct_12_1635","circle","relaxed_first","MainTask",21,"Response","Go","relaxed",1,0.190459688135888,"post_correct_inh",73.015873015873
476.303471763389,0.5,"AH17AR05b","2021_Oct_12_1635","circle","relaxed_first","MainTask",22,"Fixation","NoGo","relaxed",1,NA,"post_correct_resp",73.015873015873
476.787222020459,0.1,"AH17AR05b","2021_Oct_12_1635","circle","relaxed_first","MainTask",22,"Target","NoGo","relaxed",1,NA,"post_correct_resp",73.015873015873
478.388579629736,0.5,"AH17AR05b","2021_Oct_12_1635","circle","relaxed_first","MainTask",23,"Fixation","Go","relaxed",1,0.156139944021561,"post_correct_inh",73.015873015873
478.872323177518,0.1,"AH17AR05b","2021_Oct_12_1635","circle","relaxed_first","MainTask",23,"Target","Go","relaxed",1,0.156139944021561,"post_correct_inh",73.015873015873
479.02846312154,0,"AH17AR05b","2021_Oct_12_1635","circle","relaxed_first","MainTask",23,"Response","Go","relaxed",1,0.156139944021561,"post_correct_inh",73.015873015873
480.073345614244,0.5,"AH17AR05b","2021_Oct_12_1635","circle","relaxed_first","MainTask",24,"Fixation","NoGo","relaxed",0,0.224335744300333,"post_correct_resp",73.015873015873
480.557090328857,0.1,"AH17AR05b","2021_Oct_12_1635","circle","relaxed_first","MainTask",24,"Target","NoGo","relaxed",0,0.224335744300333,"post_correct_resp",73.015873015873
480.781426073157,0,"AH17AR05b","2021_Oct_12_1635","circle","relaxed_first","MainTask",24,"Response","NoGo","relaxed",0,0.224335744300333,"post_correct_resp",73.015873015873
481.824865777831,0.5,"AH17AR05b","2021_Oct_12_1635","circle","relaxed_first","MainTask",25,"Fixation","NoGo","relaxed",0,0.166826085118373,"post_error_resp",73.015873015873
482.30858161335,0.1,"AH17AR05b","2021_Oct_12_1635","circle","relaxed_first","MainTask",25,"Target","NoGo","relaxed",0,0.166826085118373,"post_error_resp",73.015873015873
482.475407698468,0,"AH17AR05b","2021_Oct_12_1635","circle","relaxed_first","MainTask",25,"Response","NoGo","relaxed",0,0.166826085118373,"post_error_resp",73.015873015873
483.509604341783,0.5,"AH17AR05b","2021_Oct_12_1635","circle","relaxed_first","MainTask",26,"Fixation","NoGo","relaxed",0,0.152990955590212,"post_error_resp",73.015873015873
483.993348764689,0.1,"AH17AR05b","2021_Oct_12_1635","circle","relaxed_first","MainTask",26,"Target","NoGo","relaxed",0,0.152990955590212,"post_error_resp",73.015873015873
484.146339720279,0,"AH17AR05b","2021_Oct_12_1635","circle","relaxed_first","MainTask",26,"Response","NoGo","relaxed",0,0.152990955590212,"post_error_resp",73.015873015873
485.177692793499,0.5,"AH17AR05b","2021_Oct_12_1635","circle","relaxed_first","MainTask",27,"Fixation","Go","relaxed",1,0.253862433397444,"post_error_resp",73.015873015873
485.661436341281,0.1,"AH17AR05b","2021_Oct_12_1635","circle","relaxed_first","MainTask",27,"Target","Go","relaxed",1,0.253862433397444,"post_error_resp",73.015873015873
485.915298774678,0,"AH17AR05b","2021_Oct_12_1635","circle","relaxed_first","MainTask",27,"Response","Go","relaxed",1,0.253862433397444,"post_error_resp",73.015873015873
486.962543810903,0.5,"AH17AR05b","2021_Oct_12_1635","circle","relaxed_first","MainTask",28,"Fixation","NoGo","relaxed",0,0.19897639644114,"post_correct_resp",73.015873015873
487.446287358685,0.1,"AH17AR05b","2021_Oct_12_1635","circle","relaxed_first","MainTask",28,"Target","NoGo","relaxed",0,0.19897639644114,"post_correct_resp",73.015873015873
487.645263755126,0,"AH17AR05b","2021_Oct_12_1635","circle","relaxed_first","MainTask",28,"Response","NoGo","relaxed",0,0.19897639644114,"post_correct_resp",73.015873015873
488.663992287238,0.5,"AH17AR05b","2021_Oct_12_1635","circle","relaxed_first","MainTask",29,"Fixation","NoGo","relaxed",1,NA,"post_error_resp",73.015873015873
489.147737001855,0.1,"AH17AR05b","2021_Oct_12_1635","circle","relaxed_first","MainTask",29,"Target","NoGo","relaxed",1,NA,"post_error_resp",73.015873015873
490.749100153585,0.5,"AH17AR05b","2021_Oct_12_1635","circle","relaxed_first","MainTask",30,"Fixation","Go","relaxed",1,0.347365949211962,"post_correct_inh",73.015873015873
491.232845159906,0.1,"AH17AR05b","2021_Oct_12_1635","circle","relaxed_first","MainTask",30,"Target","Go","relaxed",1,0.347365949211962,"post_correct_inh",73.015873015873
491.580211109118,0,"AH17AR05b","2021_Oct_12_1635","circle","relaxed_first","MainTask",30,"Response","Go","relaxed",1,0.347365949211962,"post_correct_inh",73.015873015873
492.617360129636,0.5,"AH17AR05b","2021_Oct_12_1635","circle","relaxed_first","MainTask",31,"Fixation","NoGo","relaxed",1,NA,"post_correct_resp",73.015873015873
493.101102510587,0.1,"AH17AR05b","2021_Oct_12_1635","circle","relaxed_first","MainTask",31,"Target","NoGo","relaxed",1,NA,"post_correct_resp",73.015873015873
494.702465078899,0.5,"AH17AR05b","2021_Oct_12_1635","circle","relaxed_first","MainTask",32,"Fixation","Go","relaxed",1,0.362901153264829,"post_correct_inh",73.015873015873
495.186210085223,0.1,"AH17AR05b","2021_Oct_12_1635","circle","relaxed_first","MainTask",32,"Target","Go","relaxed",1,0.362901153264829,"post_correct_inh",73.015873015873
495.549111238488,0,"AH17AR05b","2021_Oct_12_1635","circle","relaxed_first","MainTask",32,"Response","Go","relaxed",1,0.362901153264829,"post_correct_inh",73.015873015873
496.587403462869,0.5,"AH17AR05b","2021_Oct_12_1635","circle","relaxed_first","MainTask",33,"Fixation","NoGo","relaxed",1,NA,"post_correct_resp",73.015873015873
497.071148177482,0.1,"AH17AR05b","2021_Oct_12_1635","circle","relaxed_first","MainTask",33,"Target","NoGo","relaxed",1,NA,"post_correct_resp",73.015873015873
498.672523289242,0.5,"AH17AR05b","2021_Oct_12_1635","circle","relaxed_first","MainTask",34,"Fixation","NoGo","relaxed",1,NA,"post_correct_inh",73.015873015873
499.156256335536,0.1,"AH17AR05b","2021_Oct_12_1635","circle","relaxed_first","MainTask",34,"Target","NoGo","relaxed",1,NA,"post_correct_inh",73.015873015873
500.757626196551,0.5,"AH17AR05b","2021_Oct_12_1635","circle","relaxed_first","MainTask",35,"Fixation","Go","relaxed",1,0.261617200274486,"post_correct_inh",73.015873015873
501.241364493588,0.1,"AH17AR05b","2021_Oct_12_1635","circle","relaxed_first","MainTask",35,"Target","Go","relaxed",1,0.261617200274486,"post_correct_inh",73.015873015873
501.502981693862,0,"AH17AR05b","2021_Oct_12_1635","circle","relaxed_first","MainTask",35,"Response","Go","relaxed",1,0.261617200274486,"post_correct_inh",73.015873015873
502.542472838333,0.5,"AH17AR05b","2021_Oct_12_1635","circle","relaxed_first","MainTask",36,"Fixation","NoGo","relaxed",1,NA,"post_correct_resp",73.015873015873
503.026216386115,0.1,"AH17AR05b","2021_Oct_12_1635","circle","relaxed_first","MainTask",36,"Target","NoGo","relaxed",1,NA,"post_correct_resp",73.015873015873
504.627580121265,0.5,"AH17AR05b","2021_Oct_12_1635","circle","relaxed_first","MainTask",37,"Fixation","Go","relaxed",1,0.279560454306193,"post_correct_inh",73.015873015873
505.111325419293,0.1,"AH17AR05b","2021_Oct_12_1635","circle","relaxed_first","MainTask",37,"Target","Go","relaxed",1,0.279560454306193,"post_correct_inh",73.015873015873
505.390885873599,0,"AH17AR05b","2021_Oct_12_1635","circle","relaxed_first","MainTask",37,"Response","Go","relaxed",1,0.279560454306193,"post_correct_inh",73.015873015873
506.429118006119,0.5,"AH17AR05b","2021_Oct_12_1635","circle","relaxed_first","MainTask",38,"Fixation","Go","relaxed",1,0.306975760518981,"post_correct_resp",73.015873015873
506.912870305143,0.1,"AH17AR05b","2021_Oct_12_1635","circle","relaxed_first","MainTask",38,"Target","Go","relaxed",1,0.306975760518981,"post_correct_resp",73.015873015873
507.219846065662,0,"AH17AR05b","2021_Oct_12_1635","circle","relaxed_first","MainTask",38,"Response","Go","relaxed",1,0.306975760518981,"post_correct_resp",73.015873015873
508.264034293199,0.5,"AH17AR05b","2021_Oct_12_1635","circle","relaxed_first","MainTask",39,"Fixation","Go","relaxed",1,0.295043442623864,"post_correct_resp",73.015873015873
508.747753337506,0.1,"AH17AR05b","2021_Oct_12_1635","circle","relaxed_first","MainTask",39,"Target","Go","relaxed",1,0.295043442623864,"post_correct_resp",73.015873015873
509.04279678013,0,"AH17AR05b","2021_Oct_12_1635","circle","relaxed_first","MainTask",39,"Response","Go","relaxed",1,0.295043442623864,"post_correct_resp",73.015873015873
510.082226665909,0.5,"AH17AR05b","2021_Oct_12_1635","circle","relaxed_first","MainTask",40,"Fixation","Go","relaxed",1,0.365799272771255,"post_correct_resp",73.015873015873
510.56596729661,0.1,"AH17AR05b","2021_Oct_12_1635","circle","relaxed_first","MainTask",40,"Target","Go","relaxed",1,0.365799272771255,"post_correct_resp",73.015873015873
510.931766569381,0,"AH17AR05b","2021_Oct_12_1635","circle","relaxed_first","MainTask",40,"Response","Go","relaxed",1,0.365799272771255,"post_correct_resp",73.015873015873
511.950484891709,0.5,"AH17AR05b","2021_Oct_12_1635","circle","relaxed_first","MainTask",41,"Fixation","Go","relaxed",1,0.404527017271903,"post_correct_resp",73.015873015873
512.434224938996,0.1,"AH17AR05b","2021_Oct_12_1635","circle","relaxed_first","MainTask",41,"Target","Go","relaxed",1,0.404527017271903,"post_correct_resp",73.015873015873
512.838751956268,0,"AH17AR05b","2021_Oct_12_1635","circle","relaxed_first","MainTask",41,"Response","Go","relaxed",1,0.404527017271903,"post_correct_resp",73.015873015873
513.868779216384,0.5,"AH17AR05b","2021_Oct_12_1635","circle","relaxed_first","MainTask",42,"Fixation","Go","relaxed",1,0.306151976979891,"post_correct_resp",73.015873015873
514.352532098826,0.1,"AH17AR05b","2021_Oct_12_1635","circle","relaxed_first","MainTask",42,"Target","Go","relaxed",1,0.306151976979891,"post_correct_resp",73.015873015873
514.658684075806,0,"AH17AR05b","2021_Oct_12_1635","circle","relaxed_first","MainTask",42,"Response","Go","relaxed",1,0.306151976979891,"post_correct_resp",73.015873015873
515.703678292692,0.5,"AH17AR05b","2021_Oct_12_1635","circle","relaxed_first","MainTask",43,"Fixation","Go","relaxed",1,0.232229655914125,"post_correct_resp",73.015873015873
516.187419798516,0.1,"AH17AR05b","2021_Oct_12_1635","circle","relaxed_first","MainTask",43,"Target","Go","relaxed",1,0.232229655914125,"post_correct_resp",73.015873015873
516.41964945443,0,"AH17AR05b","2021_Oct_12_1635","circle","relaxed_first","MainTask",43,"Response","Go","relaxed",1,0.232229655914125,"post_correct_resp",73.015873015873
517.455166660104,0.5,"AH17AR05b","2021_Oct_12_1635","circle","relaxed_first","MainTask",44,"Fixation","NoGo","relaxed",1,NA,"post_correct_resp",73.015873015873
517.938911666428,0.1,"AH17AR05b","2021_Oct_12_1635","circle","relaxed_first","MainTask",44,"Target","NoGo","relaxed",1,NA,"post_correct_resp",73.015873015873
519.54027715182,0.5,"AH17AR05b","2021_Oct_12_1635","circle","relaxed_first","MainTask",45,"Fixation","NoGo","relaxed",1,NA,"post_correct_inh",73.015873015873
520.024017199106,0.1,"AH17AR05b","2021_Oct_12_1635","circle","relaxed_first","MainTask",45,"Target","NoGo","relaxed",1,NA,"post_correct_inh",73.015873015873
521.625386476706,0.5,"AH17AR05b","2021_Oct_12_1635","circle","relaxed_first","MainTask",46,"Fixation","NoGo","relaxed",1,NA,"post_correct_inh",73.015873015873
522.109127399119,0.1,"AH17AR05b","2021_Oct_12_1635","circle","relaxed_first","MainTask",46,"Target","NoGo","relaxed",1,NA,"post_correct_inh",73.015873015873
523.710493467926,0.5,"AH17AR05b","2021_Oct_12_1635","circle","relaxed_first","MainTask",47,"Fixation","Go","relaxed",1,0.297247588667233,"post_correct_inh",73.015873015873
524.194235265462,0.1,"AH17AR05b","2021_Oct_12_1635","circle","relaxed_first","MainTask",47,"Target","Go","relaxed",1,0.297247588667233,"post_correct_inh",73.015873015873
524.491482854129,0,"AH17AR05b","2021_Oct_12_1635","circle","relaxed_first","MainTask",47,"Response","Go","relaxed",1,0.297247588667233,"post_correct_inh",73.015873015873
525.528707718742,0.5,"AH17AR05b","2021_Oct_12_1635","circle","relaxed_first","MainTask",48,"Fixation","Go","relaxed",1,0.293996794127452,"post_correct_resp",73.015873015873
526.012448641151,0.1,"AH17AR05b","2021_Oct_12_1635","circle","relaxed_first","MainTask",48,"Target","Go","relaxed",1,0.293996794127452,"post_correct_resp",73.015873015873
526.306445435278,0,"AH17AR05b","2021_Oct_12_1635","circle","relaxed_first","MainTask",48,"Response","Go","relaxed",1,0.293996794127452,"post_correct_resp",73.015873015873
527.346921969554,0.5,"AH17AR05b","2021_Oct_12_1635","circle","relaxed_first","MainTask",49,"Fixation","Go","relaxed",1,0.278753006416082,"post_correct_resp",73.015873015873
527.830662891964,0.1,"AH17AR05b","2021_Oct_12_1635","circle","relaxed_first","MainTask",49,"Target","Go","relaxed",1,0.278753006416082,"post_correct_resp",73.015873015873
528.10941589838,0,"AH17AR05b","2021_Oct_12_1635","circle","relaxed_first","MainTask",49,"Response","Go","relaxed",1,0.278753006416082,"post_correct_resp",73.015873015873
529.14845664562,0.5,"AH17AR05b","2021_Oct_12_1635","circle","relaxed_first","MainTask",50,"Fixation","NoGo","relaxed",1,NA,"post_correct_resp",73.015873015873
529.632196401199,0.1,"AH17AR05b","2021_Oct_12_1635","circle","relaxed_first","MainTask",50,"Target","NoGo","relaxed",1,NA,"post_correct_resp",73.015873015873
531.233566262214,0.5,"AH17AR05b","2021_Oct_12_1635","circle","relaxed_first","MainTask",51,"Fixation","NoGo","relaxed",1,NA,"post_correct_inh",73.015873015873
531.717305142669,0.1,"AH17AR05b","2021_Oct_12_1635","circle","relaxed_first","MainTask",51,"Target","NoGo","relaxed",1,NA,"post_correct_inh",73.015873015873
533.318672378311,0.5,"AH17AR05b","2021_Oct_12_1635","circle","relaxed_first","MainTask",52,"Fixation","Go","relaxed",1,0.242869415429595,"post_correct_inh",73.015873015873
533.802415342678,0.1,"AH17AR05b","2021_Oct_12_1635","circle","relaxed_first","MainTask",52,"Target","Go","relaxed",1,0.242869415429595,"post_correct_inh",73.015873015873
534.045284758108,0,"AH17AR05b","2021_Oct_12_1635","circle","relaxed_first","MainTask",52,"Response","Go","relaxed",1,0.242869415429595,"post_correct_inh",73.015873015873
535.086843529261,0.5,"AH17AR05b","2021_Oct_12_1635","circle","relaxed_first","MainTask",53,"Fixation","NoGo","relaxed",1,NA,"post_correct_resp",73.015873015873
535.570585326794,0.1,"AH17AR05b","2021_Oct_12_1635","circle","relaxed_first","MainTask",53,"Target","NoGo","relaxed",1,NA,"post_correct_resp",73.015873015873
537.171949645355,0.5,"AH17AR05b","2021_Oct_12_1635","circle","relaxed_first","MainTask",54,"Fixation","Go","relaxed",1,0.230510912071622,"post_correct_inh",73.015873015873
537.655693193137,0.1,"AH17AR05b","2021_Oct_12_1635","circle","relaxed_first","MainTask",54,"Target","Go","relaxed",1,0.230510912071622,"post_correct_inh",73.015873015873
537.886204105209,0,"AH17AR05b","2021_Oct_12_1635","circle","relaxed_first","MainTask",54,"Response","Go","relaxed",1,0.230510912071622,"post_correct_inh",73.015873015873
538.923439179602,0.5,"AH17AR05b","2021_Oct_12_1635","circle","relaxed_first","MainTask",55,"Fixation","Go","relaxed",1,0.308973960680305,"post_correct_resp",73.015873015873
539.40718447763,0.1,"AH17AR05b","2021_Oct_12_1635","circle","relaxed_first","MainTask",55,"Target","Go","relaxed",1,0.308973960680305,"post_correct_resp",73.015873015873
539.71615843831,0,"AH17AR05b","2021_Oct_12_1635","circle","relaxed_first","MainTask",55,"Response","Go","relaxed",1,0.308973960680305,"post_correct_resp",73.015873015873
540.758393388729,0.5,"AH17AR05b","2021_Oct_12_1635","circle","relaxed_first","MainTask",56,"Fixation","Go","relaxed",1,0.260044602160633,"post_correct_resp",73.015873015873
541.2420785949,0.1,"AH17AR05b","2021_Oct_12_1635","circle","relaxed_first","MainTask",56,"Target","Go","relaxed",1,0.260044602160633,"post_correct_resp",73.015873015873
541.502123197061,0,"AH17AR05b","2021_Oct_12_1635","circle","relaxed_first","MainTask",56,"Response","Go","relaxed",1,0.260044602160633,"post_correct_resp",73.015873015873
542.543190440145,0.5,"AH17AR05b","2021_Oct_12_1635","circle","relaxed_first","MainTask",57,"Fixation","Go","relaxed",1,0.214166801582905,"post_correct_resp",73.015873015873
543.026930487431,0.1,"AH17AR05b","2021_Oct_12_1635","circle","relaxed_first","MainTask",57,"Target","Go","relaxed",1,0.214166801582905,"post_correct_resp",73.015873015873
543.241097289014,0,"AH17AR05b","2021_Oct_12_1635","circle","relaxed_first","MainTask",57,"Response","Go","relaxed",1,0.214166801582905,"post_correct_resp",73.015873015873
544.278000691349,0.5,"AH17AR05b","2021_Oct_12_1635","circle","relaxed_first","MainTask",58,"Fixation","Go","relaxed",1,0.225298964291142,"post_correct_resp",73.015873015873
544.761742780593,0.1,"AH17AR05b","2021_Oct_12_1635","circle","relaxed_first","MainTask",58,"Target","Go","relaxed",1,0.225298964291142,"post_correct_resp",73.015873015873
544.987041744884,0,"AH17AR05b","2021_Oct_12_1635","circle","relaxed_first","MainTask",58,"Response","Go","relaxed",1,0.225298964291142,"post_correct_resp",73.015873015873
546.029487016804,0.5,"AH17AR05b","2021_Oct_12_1635","circle","relaxed_first","MainTask",59,"Fixation","Go","relaxed",1,0.252775237488095,"post_correct_resp",73.015873015873
546.513233481666,0.1,"AH17AR05b","2021_Oct_12_1635","circle","relaxed_first","MainTask",59,"Target","Go","relaxed",1,0.252775237488095,"post_correct_resp",73.015873015873
546.766008719154,0,"AH17AR05b","2021_Oct_12_1635","circle","relaxed_first","MainTask",59,"Response","Go","relaxed",1,0.252775237488095,"post_correct_resp",73.015873015873
547.814343868369,0.5,"AH17AR05b","2021_Oct_12_1635","circle","relaxed_first","MainTask",60,"Fixation","NoGo","relaxed",1,NA,"post_correct_resp",73.015873015873
548.298084207363,0.1,"AH17AR05b","2021_Oct_12_1635","circle","relaxed_first","MainTask",60,"Target","NoGo","relaxed",1,NA,"post_correct_resp",73.015873015873
549.899452026424,0.5,"AH17AR05b","2021_Oct_12_1635","circle","relaxed_first","MainTask",61,"Fixation","Go","relaxed",1,0.220740442549868,"post_correct_inh",73.015873015873
550.383193532249,0.1,"AH17AR05b","2021_Oct_12_1635","circle","relaxed_first","MainTask",61,"Target","Go","relaxed",1,0.220740442549868,"post_correct_inh",73.015873015873
550.603933974799,0,"AH17AR05b","2021_Oct_12_1635","circle","relaxed_first","MainTask",61,"Response","Go","relaxed",1,0.220740442549868,"post_correct_inh",73.015873015873
551.650942435794,0.5,"AH17AR05b","2021_Oct_12_1635","circle","relaxed_first","MainTask",62,"Fixation","Go","relaxed",1,0.266192641080124,"post_correct_resp",73.015873015873
552.134683941618,0.1,"AH17AR05b","2021_Oct_12_1635","circle","relaxed_first","MainTask",62,"Target","Go","relaxed",1,0.266192641080124,"post_correct_resp",73.015873015873
552.400876582698,0,"AH17AR05b","2021_Oct_12_1635","circle","relaxed_first","MainTask",62,"Response","Go","relaxed",1,0.266192641080124,"post_correct_resp",73.015873015873
553.435791702948,0.5,"AH17AR05b","2021_Oct_12_1635","circle","relaxed_first","MainTask",63,"Fixation","Go","relaxed",1,0.224306865202379,"post_correct_resp",73.015873015873
553.919538167811,0.1,"AH17AR05b","2021_Oct_12_1635","circle","relaxed_first","MainTask",63,"Target","Go","relaxed",1,0.224306865202379,"post_correct_resp",73.015873015873
554.143845033013,0,"AH17AR05b","2021_Oct_12_1635","circle","relaxed_first","MainTask",63,"Response","Go","relaxed",1,0.224306865202379,"post_correct_resp",73.015873015873
555.170600787322,0.5,"AH17AR05b","2021_Oct_12_1635","circle","relaxed_first","MainTask",64,"Fixation","NoGo","relaxed",1,NA,"post_correct_resp",73.015873015873
555.654345793642,0.1,"AH17AR05b","2021_Oct_12_1635","circle","relaxed_first","MainTask",64,"Target","NoGo","relaxed",1,NA,"post_correct_resp",73.015873015873
557.255713320996,0.5,"AH17AR05b","2021_Oct_12_1635","circle","relaxed_first","MainTask",65,"Fixation","NoGo","relaxed",0,0.214320531726116,"post_correct_inh",73.015873015873
557.73945482682,0.1,"AH17AR05b","2021_Oct_12_1635","circle","relaxed_first","MainTask",65,"Target","NoGo","relaxed",0,0.214320531726116,"post_correct_inh",73.015873015873
557.953775358546,0,"AH17AR05b","2021_Oct_12_1635","circle","relaxed_first","MainTask",65,"Response","NoGo","relaxed",0,0.214320531726116,"post_correct_inh",73.015873015873
558.990519196577,0.5,"AH17AR05b","2021_Oct_12_1635","circle","relaxed_first","MainTask",66,"Fixation","NoGo","relaxed",1,NA,"post_error_resp",73.015873015873
559.474264786317,0.1,"AH17AR05b","2021_Oct_12_1635","circle","relaxed_first","MainTask",66,"Target","NoGo","relaxed",1,NA,"post_error_resp",73.015873015873
561.075631438543,0.5,"AH17AR05b","2021_Oct_12_1635","circle","relaxed_first","MainTask",67,"Fixation","Go","relaxed",1,0.315314818624756,"post_correct_inh",73.015873015873
561.559373236079,0.1,"AH17AR05b","2021_Oct_12_1635","circle","relaxed_first","MainTask",67,"Target","Go","relaxed",1,0.315314818624756,"post_correct_inh",73.015873015873
561.874688054704,0,"AH17AR05b","2021_Oct_12_1635","circle","relaxed_first","MainTask",67,"Response","Go","relaxed",1,0.315314818624756,"post_correct_inh",73.015873015873
562.910529056309,0.5,"AH17AR05b","2021_Oct_12_1635","circle","relaxed_first","MainTask",68,"Fixation","Go","relaxed",1,0.296369839135878,"post_correct_resp",73.015873015873
563.39426852018,0.1,"AH17AR05b","2021_Oct_12_1635","circle","relaxed_first","MainTask",68,"Target","Go","relaxed",1,0.296369839135878,"post_correct_resp",73.015873015873
563.690638359316,0,"AH17AR05b","2021_Oct_12_1635","circle","relaxed_first","MainTask",68,"Response","Go","relaxed",1,0.296369839135878,"post_correct_resp",73.015873015873
564.728740098337,0.5,"AH17AR05b","2021_Oct_12_1635","circle","relaxed_first","MainTask",69,"Fixation","Go","relaxed",1,0.267107437535742,"post_correct_resp",73.015873015873
565.212480437331,0.1,"AH17AR05b","2021_Oct_12_1635","circle","relaxed_first","MainTask",69,"Target","Go","relaxed",1,0.267107437535742,"post_correct_resp",73.015873015873
565.479587874867,0,"AH17AR05b","2021_Oct_12_1635","circle","relaxed_first","MainTask",69,"Response","Go","relaxed",1,0.267107437535742,"post_correct_resp",73.015873015873
566.513590824034,0.5,"AH17AR05b","2021_Oct_12_1635","circle","relaxed_first","MainTask",70,"Fixation","NoGo","relaxed",1,NA,"post_correct_resp",73.015873015873
566.997334955231,0.1,"AH17AR05b","2021_Oct_12_1635","circle","relaxed_first","MainTask",70,"Target","NoGo","relaxed",1,NA,"post_correct_resp",73.015873015873
568.598697523546,0.5,"AH17AR05b","2021_Oct_12_1635","circle","relaxed_first","MainTask",71,"Fixation","NoGo","relaxed",1,NA,"post_correct_inh",73.015873015873
569.082442238159,0.1,"AH17AR05b","2021_Oct_12_1635","circle","relaxed_first","MainTask",71,"Target","NoGo","relaxed",1,NA,"post_correct_inh",73.015873015873
570.683808598678,0.5,"AH17AR05b","2021_Oct_12_1635","circle","relaxed_first","MainTask",72,"Fixation","NoGo","relaxed",1,NA,"post_correct_inh",73.015873015873
571.167550396214,0.1,"AH17AR05b","2021_Oct_12_1635","circle","relaxed_first","MainTask",72,"Target","NoGo","relaxed",1,NA,"post_correct_inh",73.015873015873
572.768918215272,0.5,"AH17AR05b","2021_Oct_12_1635","circle","relaxed_first","MainTask",73,"Fixation","Go","relaxed",1,0.317817090301105,"post_correct_inh",73.015873015873
573.252659137681,0.1,"AH17AR05b","2021_Oct_12_1635","circle","relaxed_first","MainTask",73,"Target","Go","relaxed",1,0.317817090301105,"post_correct_inh",73.015873015873
573.570476227982,0,"AH17AR05b","2021_Oct_12_1635","circle","relaxed_first","MainTask",73,"Response","Go","relaxed",1,0.317817090301105,"post_correct_inh",73.015873015873
574.620493074122,0.5,"AH17AR05b","2021_Oct_12_1635","circle","relaxed_first","MainTask",74,"Fixation","Go","relaxed",1,0.310144585095259,"post_correct_resp",73.015873015873
575.104234579947,0.1,"AH17AR05b","2021_Oct_12_1635","circle","relaxed_first","MainTask",74,"Target","Go","relaxed",1,0.310144585095259,"post_correct_resp",73.015873015873
575.414379165042,0,"AH17AR05b","2021_Oct_12_1635","circle","relaxed_first","MainTask",74,"Response","Go","relaxed",1,0.310144585095259,"post_correct_resp",73.015873015873
576.455389525057,0.5,"AH17AR05b","2021_Oct_12_1635","circle","relaxed_first","MainTask",75,"Fixation","Go","relaxed",1,0.364231341987761,"post_correct_resp",73.015873015873
576.939119945975,0.1,"AH17AR05b","2021_Oct_12_1635","circle","relaxed_first","MainTask",75,"Target","Go","relaxed",1,0.364231341987761,"post_correct_resp",73.015873015873
577.303351287963,0,"AH17AR05b","2021_Oct_12_1635","circle","relaxed_first","MainTask",75,"Response","Go","relaxed",1,0.364231341987761,"post_correct_resp",73.015873015873
578.340324700235,0.5,"AH17AR05b","2021_Oct_12_1635","circle","relaxed_first","MainTask",76,"Fixation","Go","relaxed",1,0.303242772566591,"post_correct_resp",73.015873015873
578.824067081183,0.1,"AH17AR05b","2021_Oct_12_1635","circle","relaxed_first","MainTask",76,"Target","Go","relaxed",1,0.303242772566591,"post_correct_resp",73.015873015873
579.12730985375,0,"AH17AR05b","2021_Oct_12_1635","circle","relaxed_first","MainTask",76,"Response","Go","relaxed",1,0.303242772566591,"post_correct_resp",73.015873015873
580.175220567751,0.5,"AH17AR05b","2021_Oct_12_1635","circle","relaxed_first","MainTask",77,"Fixation","Go","relaxed",1,0.328313912868907,"post_correct_resp",73.015873015873
580.658963823826,0.1,"AH17AR05b","2021_Oct_12_1635","circle","relaxed_first","MainTask",77,"Target","Go","relaxed",1,0.328313912868907,"post_correct_resp",73.015873015873
580.987277736695,0,"AH17AR05b","2021_Oct_12_1635","circle","relaxed_first","MainTask",77,"Response","Go","relaxed",1,0.328313912868907,"post_correct_resp",73.015873015873
582.026792509521,0.5,"AH17AR05b","2021_Oct_12_1635","circle","relaxed_first","MainTask",78,"Fixation","Go","relaxed",1,0.297690984909423,"post_correct_resp",73.015873015873
582.510538390969,0.1,"AH17AR05b","2021_Oct_12_1635","circle","relaxed_first","MainTask",78,"Target","Go","relaxed",1,0.297690984909423,"post_correct_resp",73.015873015873
582.808229375878,0,"AH17AR05b","2021_Oct_12_1635","circle","relaxed_first","MainTask",78,"Response","Go","relaxed",1,0.297690984909423,"post_correct_resp",73.015873015873
583.845011427664,0.5,"AH17AR05b","2021_Oct_12_1635","circle","relaxed_first","MainTask",79,"Fixation","Go","relaxed",1,0.293418337059848,"post_correct_resp",73.015873015873
584.328760809607,0.1,"AH17AR05b","2021_Oct_12_1635","circle","relaxed_first","MainTask",79,"Target","Go","relaxed",1,0.293418337059848,"post_correct_resp",73.015873015873
584.622179146667,0,"AH17AR05b","2021_Oct_12_1635","circle","relaxed_first","MainTask",79,"Response","Go","relaxed",1,0.293418337059848,"post_correct_resp",73.015873015873
585.663225095061,0.5,"AH17AR05b","2021_Oct_12_1635","circle","relaxed_first","MainTask",80,"Fixation","Go","relaxed",1,0.287178410104389,"post_correct_resp",73.015873015873
586.146966309178,0.1,"AH17AR05b","2021_Oct_12_1635","circle","relaxed_first","MainTask",80,"Target","Go","relaxed",1,0.287178410104389,"post_correct_resp",73.015873015873
586.434144719282,0,"AH17AR05b","2021_Oct_12_1635","circle","relaxed_first","MainTask",80,"Response","Go","relaxed",1,0.287178410104389,"post_correct_resp",73.015873015873
587.481436137085,0.5,"AH17AR05b","2021_Oct_12_1635","circle","relaxed_first","MainTask",81,"Fixation","Go","relaxed",1,0.270928521316819,"post_correct_resp",73.015873015873
587.965179976578,0.1,"AH17AR05b","2021_Oct_12_1635","circle","relaxed_first","MainTask",81,"Target","Go","relaxed",1,0.270928521316819,"post_correct_resp",73.015873015873
588.236108497895,0,"AH17AR05b","2021_Oct_12_1635","circle","relaxed_first","MainTask",81,"Response","Go","relaxed",1,0.270928521316819,"post_correct_resp",73.015873015873
589.28297081315,0.5,"AH17AR05b","2021_Oct_12_1635","circle","relaxed_first","MainTask",82,"Fixation","NoGo","relaxed",1,NA,"post_correct_resp",73.015873015873
589.766714652644,0.1,"AH17AR05b","2021_Oct_12_1635","circle","relaxed_first","MainTask",82,"Target","NoGo","relaxed",1,NA,"post_correct_resp",73.015873015873
591.368081013163,0.5,"AH17AR05b","2021_Oct_12_1635","circle","relaxed_first","MainTask",83,"Fixation","Go","relaxed",1,0.243210713852022,"post_correct_inh",73.015873015873
591.851822810695,0.1,"AH17AR05b","2021_Oct_12_1635","circle","relaxed_first","MainTask",83,"Target","Go","relaxed",1,0.243210713852022,"post_correct_inh",73.015873015873
592.095033524547,0,"AH17AR05b","2021_Oct_12_1635","circle","relaxed_first","MainTask",83,"Response","Go","relaxed",1,0.243210713852022,"post_correct_inh",73.015873015873
593.136250122152,0.5,"AH17AR05b","2021_Oct_12_1635","circle","relaxed_first","MainTask",84,"Fixation","Go","relaxed",1,0.239990548656351,"post_correct_resp",73.015873015873
593.619995420184,0.1,"AH17AR05b","2021_Oct_12_1635","circle","relaxed_first","MainTask",84,"Target","Go","relaxed",1,0.239990548656351,"post_correct_resp",73.015873015873
593.85998596884,0,"AH17AR05b","2021_Oct_12_1635","circle","relaxed_first","MainTask",84,"Response","Go","relaxed",1,0.239990548656351,"post_correct_resp",73.015873015873
594.887741406645,0.5,"AH17AR05b","2021_Oct_12_1635","circle","relaxed_first","MainTask",85,"Fixation","Go","relaxed",1,0.310461963457783,"post_correct_resp",73.015873015873
595.371484662719,0.1,"AH17AR05b","2021_Oct_12_1635","circle","relaxed_first","MainTask",85,"Target","Go","relaxed",1,0.310461963457783,"post_correct_resp",73.015873015873
595.681946626177,0,"AH17AR05b","2021_Oct_12_1635","circle","relaxed_first","MainTask",85,"Response","Go","relaxed",1,0.310461963457783,"post_correct_resp",73.015873015873
596.722634940499,0.5,"AH17AR05b","2021_Oct_12_1635","circle","relaxed_first","MainTask",86,"Fixation","Go","relaxed",1,0.267576212376298,"post_correct_resp",73.015873015873
597.206379363408,0.1,"AH17AR05b","2021_Oct_12_1635","circle","relaxed_first","MainTask",86,"Target","Go","relaxed",1,0.267576212376298,"post_correct_resp",73.015873015873
597.473955575784,0,"AH17AR05b","2021_Oct_12_1635","circle","relaxed_first","MainTask",86,"Response","Go","relaxed",1,0.267576212376298,"post_correct_resp",73.015873015873
598.507490625234,0.5,"AH17AR05b","2021_Oct_12_1635","circle","relaxed_first","MainTask",87,"Fixation","Go","relaxed",1,0.238674653632188,"post_correct_resp",73.015873015873
598.991232131058,0.1,"AH17AR05b","2021_Oct_12_1635","circle","relaxed_first","MainTask",87,"Target","Go","relaxed",1,0.238674653632188,"post_correct_resp",73.015873015873
599.22990678469,0,"AH17AR05b","2021_Oct_12_1635","circle","relaxed_first","MainTask",87,"Response","Go","relaxed",1,0.238674653632188,"post_correct_resp",73.015873015873
600.275662651307,0.5,"AH17AR05b","2021_Oct_12_1635","circle","relaxed_first","MainTask",88,"Fixation","NoGo","relaxed",1,NA,"post_correct_resp",73.015873015873
600.759404157132,0.1,"AH17AR05b","2021_Oct_12_1635","circle","relaxed_first","MainTask",88,"Target","NoGo","relaxed",1,NA,"post_correct_resp",73.015873015873
602.36076760057,0.5,"AH17AR05b","2021_Oct_12_1635","circle","relaxed_first","MainTask",89,"Fixation","Go","relaxed",1,0.241294775361894,"post_correct_inh",73.015873015873
602.84451144006,0.1,"AH17AR05b","2021_Oct_12_1635","circle","relaxed_first","MainTask",89,"Target","Go","relaxed",1,0.241294775361894,"post_correct_inh",73.015873015873
603.085806215422,0,"AH17AR05b","2021_Oct_12_1635","circle","relaxed_first","MainTask",89,"Response","Go","relaxed",1,0.241294775361894,"post_correct_inh",73.015873015873
604.128925916364,0.5,"AH17AR05b","2021_Oct_12_1635","circle","relaxed_first","MainTask",90,"Fixation","NoGo","relaxed",1,NA,"post_correct_resp",73.015873015873
604.612684049549,0.1,"AH17AR05b","2021_Oct_12_1635","circle","relaxed_first","MainTask",90,"Target","NoGo","relaxed",1,NA,"post_correct_resp",73.015873015873
606.214043992491,0.5,"AH17AR05b","2021_Oct_12_1635","circle","relaxed_first","MainTask",91,"Fixation","NoGo","relaxed",0,0.232916044962622,"post_correct_inh",73.015873015873
606.697791332481,0.1,"AH17AR05b","2021_Oct_12_1635","circle","relaxed_first","MainTask",91,"Target","NoGo","relaxed",0,0.232916044962622,"post_correct_inh",73.015873015873
606.930707377444,0,"AH17AR05b","2021_Oct_12_1635","circle","relaxed_first","MainTask",91,"Response","NoGo","relaxed",0,0.232916044962622,"post_correct_inh",73.015873015873
607.965541694561,0.5,"AH17AR05b","2021_Oct_12_1635","circle","relaxed_first","MainTask",92,"Fixation","Go","relaxed",1,0.219368539575953,"post_error_resp",73.015873015873
608.449331915632,0.1,"AH17AR05b","2021_Oct_12_1635","circle","relaxed_first","MainTask",92,"Target","Go","relaxed",1,0.219368539575953,"post_error_resp",73.015873015873
608.668700455208,0,"AH17AR05b","2021_Oct_12_1635","circle","relaxed_first","MainTask",92,"Response","Go","relaxed",1,0.219368539575953,"post_error_resp",73.015873015873
609.717027728311,0.5,"AH17AR05b","2021_Oct_12_1635","circle","relaxed_first","MainTask",93,"Fixation","NoGo","relaxed",1,NA,"post_correct_resp",73.015873015873
610.200773609755,0.1,"AH17AR05b","2021_Oct_12_1635","circle","relaxed_first","MainTask",93,"Target","NoGo","relaxed",1,NA,"post_correct_resp",73.015873015873
611.802135594655,0.5,"AH17AR05b","2021_Oct_12_1635","circle","relaxed_first","MainTask",94,"Fixation","NoGo","relaxed",1,NA,"post_correct_inh",73.015873015873
612.285879725852,0.1,"AH17AR05b","2021_Oct_12_1635","circle","relaxed_first","MainTask",94,"Target","NoGo","relaxed",1,NA,"post_correct_inh",73.015873015873
613.887248128329,0.5,"AH17AR05b","2021_Oct_12_1635","circle","relaxed_first","MainTask",95,"Fixation","Go","relaxed",1,0.251595570123754,"post_correct_inh",73.015873015873
614.370990217572,0.1,"AH17AR05b","2021_Oct_12_1635","circle","relaxed_first","MainTask",95,"Target","Go","relaxed",1,0.251595570123754,"post_correct_inh",73.015873015873
614.622585787696,0,"AH17AR05b","2021_Oct_12_1635","circle","relaxed_first","MainTask",95,"Response","Go","relaxed",1,0.251595570123754,"post_correct_inh",73.015873015873
615.672099729149,0.5,"AH17AR05b","2021_Oct_12_1635","circle","relaxed_first","MainTask",96,"Fixation","Go","relaxed",1,0.411670072360721,"post_correct_resp",73.015873015873
616.155841234977,0.1,"AH17AR05b","2021_Oct_12_1635","circle","relaxed_first","MainTask",96,"Target","Go","relaxed",1,0.411670072360721,"post_correct_resp",73.015873015873
616.567511307338,0,"AH17AR05b","2021_Oct_12_1635","circle","relaxed_first","MainTask",96,"Response","Go","relaxed",1,0.411670072360721,"post_correct_resp",73.015873015873
617.607077129069,0.5,"AH17AR05b","2021_Oct_12_1635","circle","relaxed_first","MainTask",97,"Fixation","Go","relaxed",1,0.331651344698912,"post_correct_resp",73.015873015873
618.090821551974,0.1,"AH17AR05b","2021_Oct_12_1635","circle","relaxed_first","MainTask",97,"Target","Go","relaxed",1,0.331651344698912,"post_correct_resp",73.015873015873
618.422472896673,0,"AH17AR05b","2021_Oct_12_1635","circle","relaxed_first","MainTask",97,"Response","Go","relaxed",1,0.331651344698912,"post_correct_resp",73.015873015873
619.458656071831,0.5,"AH17AR05b","2021_Oct_12_1635","circle","relaxed_first","MainTask",98,"Fixation","Go","relaxed",1,0.318084878290392,"post_correct_resp",73.015873015873
619.942397285948,0.1,"AH17AR05b","2021_Oct_12_1635","circle","relaxed_first","MainTask",98,"Target","Go","relaxed",1,0.318084878290392,"post_correct_resp",73.015873015873
620.260482164238,0,"AH17AR05b","2021_Oct_12_1635","circle","relaxed_first","MainTask",98,"Response","Go","relaxed",1,0.318084878290392,"post_correct_resp",73.015873015873
621.310230930681,0.5,"AH17AR05b","2021_Oct_12_1635","circle","relaxed_first","MainTask",99,"Fixation","Go","relaxed",1,0.293416003394668,"post_correct_resp",73.015873015873
621.79397360334,0.1,"AH17AR05b","2021_Oct_12_1635","circle","relaxed_first","MainTask",99,"Target","Go","relaxed",1,0.293416003394668,"post_correct_resp",73.015873015873
622.087389606735,0,"AH17AR05b","2021_Oct_12_1635","circle","relaxed_first","MainTask",99,"Response","Go","relaxed",1,0.293416003394668,"post_correct_resp",73.015873015873
623.111764439913,0.5,"AH17AR05b","2021_Oct_12_1635","circle","relaxed_first","MainTask",100,"Fixation","Go","relaxed",1,0.293844814230397,"post_correct_resp",73.015873015873
623.595506820864,0.1,"AH17AR05b","2021_Oct_12_1635","circle","relaxed_first","MainTask",100,"Target","Go","relaxed",1,0.293844814230397,"post_correct_resp",73.015873015873
623.889351635094,0,"AH17AR05b","2021_Oct_12_1635","circle","relaxed_first","MainTask",100,"Response","Go","relaxed",1,0.293844814230397,"post_correct_resp",73.015873015873
624.92998277464,0.5,"AH17AR05b","2021_Oct_12_1635","circle","relaxed_first","MainTask",101,"Fixation","Go","relaxed",1,0.254584119120409,"post_correct_resp",73.015873015873
625.413720779969,0.1,"AH17AR05b","2021_Oct_12_1635","circle","relaxed_first","MainTask",101,"Target","Go","relaxed",1,0.254584119120409,"post_correct_resp",73.015873015873
625.668304899089,0,"AH17AR05b","2021_Oct_12_1635","circle","relaxed_first","MainTask",101,"Response","Go","relaxed",1,0.254584119120409,"post_correct_resp",73.015873015873
626.714832333506,0.5,"AH17AR05b","2021_Oct_12_1635","circle","relaxed_first","MainTask",102,"Fixation","NoGo","relaxed",1,NA,"post_correct_resp",73.015873015873
627.198591633522,0.1,"AH17AR05b","2021_Oct_12_1635","circle","relaxed_first","MainTask",102,"Target","NoGo","relaxed",1,NA,"post_correct_resp",73.015873015873
628.799937574477,0.5,"AH17AR05b","2021_Oct_12_1635","circle","relaxed_first","MainTask",103,"Fixation","Go","relaxed",1,0.195558161478402,"post_correct_inh",73.015873015873
629.283680538843,0.1,"AH17AR05b","2021_Oct_12_1635","circle","relaxed_first","MainTask",103,"Target","Go","relaxed",1,0.195558161478402,"post_correct_inh",73.015873015873
629.479238700321,0,"AH17AR05b","2021_Oct_12_1635","circle","relaxed_first","MainTask",103,"Response","Go","relaxed",1,0.195558161478402,"post_correct_inh",73.015873015873
630.518065333854,0.5,"AH17AR05b","2021_Oct_12_1635","circle","relaxed_first","MainTask",104,"Fixation","NoGo","relaxed",1,NA,"post_correct_resp",73.015873015873
631.001812090424,0.1,"AH17AR05b","2021_Oct_12_1635","circle","relaxed_first","MainTask",104,"Target","NoGo","relaxed",1,NA,"post_correct_resp",73.015873015873
632.603172325074,0.5,"AH17AR05b","2021_Oct_12_1635","circle","relaxed_first","MainTask",105,"Fixation","Go","relaxed",1,0.186242464817042,"post_correct_inh",73.015873015873
633.086917914814,0.1,"AH17AR05b","2021_Oct_12_1635","circle","relaxed_first","MainTask",105,"Target","Go","relaxed",1,0.186242464817042,"post_correct_inh",73.015873015873
633.273160379631,0,"AH17AR05b","2021_Oct_12_1635","circle","relaxed_first","MainTask",105,"Response","Go","relaxed",1,0.186242464817042,"post_correct_inh",73.015873015873
634.321301834698,0.5,"AH17AR05b","2021_Oct_12_1635","circle","relaxed_first","MainTask",106,"Fixation","NoGo","relaxed",1,NA,"post_correct_resp",73.015873015873
634.80504713273,0.1,"AH17AR05b","2021_Oct_12_1635","circle","relaxed_first","MainTask",106,"Target","NoGo","relaxed",1,NA,"post_correct_resp",73.015873015873
636.406372070705,0.5,"AH17AR05b","2021_Oct_12_1635","circle","relaxed_first","MainTask",107,"Fixation","Go","relaxed",1,0.20293049909742,"post_correct_inh",73.015873015873
636.890154999073,0.1,"AH17AR05b","2021_Oct_12_1635","circle","relaxed_first","MainTask",107,"Target","Go","relaxed",1,0.20293049909742,"post_correct_inh",73.015873015873
637.09308549817,0,"AH17AR05b","2021_Oct_12_1635","circle","relaxed_first","MainTask",107,"Response","Go","relaxed",1,0.20293049909742,"post_correct_inh",73.015873015873
638.141222577622,0.5,"AH17AR05b","2021_Oct_12_1635","circle","relaxed_first","MainTask",108,"Fixation","NoGo","relaxed",1,NA,"post_correct_resp",73.015873015873
638.624964666862,0.1,"AH17AR05b","2021_Oct_12_1635","circle","relaxed_first","MainTask",108,"Target","NoGo","relaxed",1,NA,"post_correct_resp",73.015873015873
640.226330443966,0.5,"AH17AR05b","2021_Oct_12_1635","circle","relaxed_first","MainTask",109,"Fixation","NoGo","relaxed",0,0.0559245176227705,"post_correct_inh",73.015873015873
640.71007194979,0.1,"AH17AR05b","2021_Oct_12_1635","circle","relaxed_first","MainTask",109,"Target","NoGo","relaxed",0,0.0559245176227705,"post_correct_inh",73.015873015873
640.765996467413,0,"AH17AR05b","2021_Oct_12_1635","circle","relaxed_first","MainTask",109,"Response","NoGo","relaxed",0,0.0559245176227705,"post_correct_inh",73.015873015873
641.811014312658,0.5,"AH17AR05b","2021_Oct_12_1635","circle","relaxed_first","MainTask",110,"Fixation","Go","relaxed",1,0.250176702153112,"post_error_resp",73.015873015873
642.294773904381,0.1,"AH17AR05b","2021_Oct_12_1635","circle","relaxed_first","MainTask",110,"Target","Go","relaxed",1,0.250176702153112,"post_error_resp",73.015873015873
642.544950606534,0,"AH17AR05b","2021_Oct_12_1635","circle","relaxed_first","MainTask",110,"Response","Go","relaxed",1,0.250176702153112,"post_error_resp",73.015873015873
643.579182546524,0.5,"AH17AR05b","2021_Oct_12_1635","circle","relaxed_first","MainTask",111,"Fixation","NoGo","relaxed",1,NA,"post_correct_resp",73.015873015873
644.062926386014,0.1,"AH17AR05b","2021_Oct_12_1635","circle","relaxed_first","MainTask",111,"Target","NoGo","relaxed",1,NA,"post_correct_resp",73.015873015873
645.664292454825,0.5,"AH17AR05b","2021_Oct_12_1635","circle","relaxed_first","MainTask",112,"Fixation","Go","relaxed",1,0.309849376546481,"post_correct_inh",73.015873015873
646.148032793819,0.1,"AH17AR05b","2021_Oct_12_1635","circle","relaxed_first","MainTask",112,"Target","Go","relaxed",1,0.309849376546481,"post_correct_inh",73.015873015873
646.457882170365,0,"AH17AR05b","2021_Oct_12_1635","circle","relaxed_first","MainTask",112,"Response","Go","relaxed",1,0.309849376546481,"post_correct_inh",73.015873015873
647.499183655014,0.5,"AH17AR05b","2021_Oct_12_1635","circle","relaxed_first","MainTask",113,"Fixation","NoGo","relaxed",1,NA,"post_correct_resp",73.015873015873
647.982952581398,0.1,"AH17AR05b","2021_Oct_12_1635","circle","relaxed_first","MainTask",113,"Target","NoGo","relaxed",1,NA,"post_correct_resp",73.015873015873
649.58429473015,0.5,"AH17AR05b","2021_Oct_12_1635","circle","relaxed_first","MainTask",114,"Fixation","NoGo","relaxed",0,0.216750459807372,"post_correct_inh",73.015873015873
650.068044112093,0.1,"AH17AR05b","2021_Oct_12_1635","circle","relaxed_first","MainTask",114,"Target","NoGo","relaxed",0,0.216750459807372,"post_correct_inh",73.015873015873
650.2847945719,0,"AH17AR05b","2021_Oct_12_1635","circle","relaxed_first","MainTask",114,"Response","NoGo","relaxed",0,0.216750459807372,"post_correct_inh",73.015873015873
651.319128317999,0.5,"AH17AR05b","2021_Oct_12_1635","circle","relaxed_first","MainTask",115,"Fixation","NoGo","relaxed",1,NA,"post_error_resp",73.015873015873
651.802848237428,0.1,"AH17AR05b","2021_Oct_12_1635","circle","relaxed_first","MainTask",115,"Target","NoGo","relaxed",1,NA,"post_error_resp",73.015873015873
653.404249894622,0.5,"AH17AR05b","2021_Oct_12_1635","circle","relaxed_first","MainTask",116,"Fixation","Go","relaxed",1,0.28075529049238,"post_correct_inh",73.015873015873
653.887953770107,0.1,"AH17AR05b","2021_Oct_12_1635","circle","relaxed_first","MainTask",116,"Target","Go","relaxed",1,0.28075529049238,"post_correct_inh",73.015873015873
654.168709060599,0,"AH17AR05b","2021_Oct_12_1635","circle","relaxed_first","MainTask",116,"Response","Go","relaxed",1,0.28075529049238,"post_correct_inh",73.015873015873
655.18906590706,0.5,"AH17AR05b","2021_Oct_12_1635","circle","relaxed_first","MainTask",117,"Fixation","Go","relaxed",1,0.272854086171719,"post_correct_resp",73.015873015873
655.672806829469,0.1,"AH17AR05b","2021_Oct_12_1635","circle","relaxed_first","MainTask",117,"Target","Go","relaxed",1,0.272854086171719,"post_correct_resp",73.015873015873
655.945660915641,0,"AH17AR05b","2021_Oct_12_1635","circle","relaxed_first","MainTask",117,"Response","Go","relaxed",1,0.272854086171719,"post_correct_resp",73.015873015873
656.973913715676,0.5,"AH17AR05b","2021_Oct_12_1635","circle","relaxed_first","MainTask",118,"Fixation","Go","relaxed",1,0.283992666460108,"post_correct_resp",73.015873015873
657.457657555165,0.1,"AH17AR05b","2021_Oct_12_1635","circle","relaxed_first","MainTask",118,"Target","Go","relaxed",1,0.283992666460108,"post_correct_resp",73.015873015873
657.741650221625,0,"AH17AR05b","2021_Oct_12_1635","circle","relaxed_first","MainTask",118,"Response","Go","relaxed",1,0.283992666460108,"post_correct_resp",73.015873015873
658.758766775038,0.5,"AH17AR05b","2021_Oct_12_1635","circle","relaxed_first","MainTask",119,"Fixation","NoGo","relaxed",1,NA,"post_correct_resp",73.015873015873
659.242511781358,0.1,"AH17AR05b","2021_Oct_12_1635","circle","relaxed_first","MainTask",119,"Target","NoGo","relaxed",1,NA,"post_correct_resp",73.015873015873
660.843877558462,0.5,"AH17AR05b","2021_Oct_12_1635","circle","relaxed_first","MainTask",120,"Fixation","NoGo","relaxed",1,NA,"post_correct_inh",73.015873015873
661.327618772582,0.1,"AH17AR05b","2021_Oct_12_1635","circle","relaxed_first","MainTask",120,"Target","NoGo","relaxed",1,NA,"post_correct_inh",73.015873015873
662.928985716517,0.5,"AH17AR05b","2021_Oct_12_1635","circle","relaxed_first","MainTask",121,"Fixation","Go","relaxed",1,0.390779108452989,"post_correct_inh",73.015873015873
663.412727805757,0.1,"AH17AR05b","2021_Oct_12_1635","circle","relaxed_first","MainTask",121,"Target","Go","relaxed",1,0.390779108452989,"post_correct_inh",73.015873015873
663.80350691421,0,"AH17AR05b","2021_Oct_12_1635","circle","relaxed_first","MainTask",121,"Response","Go","relaxed",1,0.390779108452989,"post_correct_inh",73.015873015873
664.830600174733,0.5,"AH17AR05b","2021_Oct_12_1635","circle","relaxed_first","MainTask",122,"Fixation","NoGo","relaxed",1,NA,"post_correct_resp",73.015873015873
665.31434488935,0.1,"AH17AR05b","2021_Oct_12_1635","circle","relaxed_first","MainTask",122,"Target","NoGo","relaxed",1,NA,"post_correct_resp",73.015873015873
666.915710083034,0.5,"AH17AR05b","2021_Oct_12_1635","circle","relaxed_first","MainTask",123,"Fixation","Go","relaxed",1,0.258991244383651,"post_correct_inh",73.015873015873
667.399453922524,0.1,"AH17AR05b","2021_Oct_12_1635","circle","relaxed_first","MainTask",123,"Target","Go","relaxed",1,0.258991244383651,"post_correct_inh",73.015873015873
667.658445166908,0,"AH17AR05b","2021_Oct_12_1635","circle","relaxed_first","MainTask",123,"Response","Go","relaxed",1,0.258991244383651,"post_correct_inh",73.015873015873
668.7005596419,0.5,"AH17AR05b","2021_Oct_12_1635","circle","relaxed_first","MainTask",124,"Fixation","Go","relaxed",1,0.366073478340695,"post_correct_resp",73.015873015873
669.18430523164,0.1,"AH17AR05b","2021_Oct_12_1635","circle","relaxed_first","MainTask",124,"Target","Go","relaxed",1,0.366073478340695,"post_correct_resp",73.015873015873
669.550378709981,0,"AH17AR05b","2021_Oct_12_1635","circle","relaxed_first","MainTask",124,"Response","Go","relaxed",1,0.366073478340695,"post_correct_resp",73.015873015873
670.585502984904,0.5,"AH17AR05b","2021_Oct_12_1635","circle","relaxed_first","MainTask",125,"Fixation","NoGo","relaxed",1,NA,"post_correct_resp",73.015873015873
671.069244199021,0.1,"AH17AR05b","2021_Oct_12_1635","circle","relaxed_first","MainTask",125,"Target","NoGo","relaxed",1,NA,"post_correct_resp",73.015873015873
672.703979627109,13.1411169793064,"AH17AR05b","2021_Oct_12_1635","circle","relaxed_first","MainTask",125,"Break",NA,NA,NA,NA,NA,73.015873015873
687.816834763431,0.5,"AH17AR05b","2021_Oct_12_1635","circle","relaxed_first","MainTask",126,"Fixation","NoGo","relaxed",1,NA,"post_break",73.015873015873
688.317254968882,0.1,"AH17AR05b","2021_Oct_12_1635","circle","relaxed_first","MainTask",126,"Target","NoGo","relaxed",1,NA,"post_break",73.015873015873
689.918623079651,0.5,"AH17AR05b","2021_Oct_12_1635","circle","relaxed_first","MainTask",127,"Fixation","Go","relaxed",1,0.245568006626854,"post_correct_inh",73.015873015873
690.402362543518,0.1,"AH17AR05b","2021_Oct_12_1635","circle","relaxed_first","MainTask",127,"Target","Go","relaxed",1,0.245568006626854,"post_correct_inh",73.015873015873
690.647930550145,0,"AH17AR05b","2021_Oct_12_1635","circle","relaxed_first","MainTask",127,"Response","Go","relaxed",1,0.245568006626854,"post_correct_inh",73.015873015873
691.686810857958,0.5,"AH17AR05b","2021_Oct_12_1635","circle","relaxed_first","MainTask",128,"Fixation","Go","relaxed",1,0.355352040569414,"post_correct_resp",73.015873015873
692.1705348613,0.1,"AH17AR05b","2021_Oct_12_1635","circle","relaxed_first","MainTask",128,"Target","Go","relaxed",1,0.355352040569414,"post_correct_resp",73.015873015873
692.525886901869,0,"AH17AR05b","2021_Oct_12_1635","circle","relaxed_first","MainTask",128,"Response","Go","relaxed",1,0.355352040569414,"post_correct_resp",73.015873015873
693.571727363822,0.5,"AH17AR05b","2021_Oct_12_1635","circle","relaxed_first","MainTask",129,"Fixation","Go","relaxed",1,0.288373246290575,"post_correct_resp",73.015873015873
694.055471786727,0.1,"AH17AR05b","2021_Oct_12_1635","circle","relaxed_first","MainTask",129,"Target","Go","relaxed",1,0.288373246290575,"post_correct_resp",73.015873015873
694.343845033018,0,"AH17AR05b","2021_Oct_12_1635","circle","relaxed_first","MainTask",129,"Response","Go","relaxed",1,0.288373246290575,"post_correct_resp",73.015873015873
695.373263206719,0.5,"AH17AR05b","2021_Oct_12_1635","circle","relaxed_first","MainTask",130,"Fixation","Go","relaxed",1,0.259795483481867,"post_correct_resp",73.015873015873
695.857012588662,0.1,"AH17AR05b","2021_Oct_12_1635","circle","relaxed_first","MainTask",130,"Target","Go","relaxed",1,0.259795483481867,"post_correct_resp",73.015873015873
696.116808072144,0,"AH17AR05b","2021_Oct_12_1635","circle","relaxed_first","MainTask",130,"Response","Go","relaxed",1,0.259795483481867,"post_correct_resp",73.015873015873
697.158115974373,0.5,"AH17AR05b","2021_Oct_12_1635","circle","relaxed_first","MainTask",131,"Fixation","NoGo","relaxed",1,NA,"post_correct_resp",73.015873015873
697.641856313367,0.1,"AH17AR05b","2021_Oct_12_1635","circle","relaxed_first","MainTask",131,"Target","NoGo","relaxed",1,NA,"post_correct_resp",73.015873015873
699.243222382174,0.5,"AH17AR05b","2021_Oct_12_1635","circle","relaxed_first","MainTask",132,"Fixation","Go","relaxed",1,0.252800032671075,"post_correct_inh",73.015873015873
699.726965054833,0.1,"AH17AR05b","2021_Oct_12_1635","circle","relaxed_first","MainTask",132,"Target","Go","relaxed",1,0.252800032671075,"post_correct_inh",73.015873015873
699.979765087504,0,"AH17AR05b","2021_Oct_12_1635","circle","relaxed_first","MainTask",132,"Response","Go","relaxed",1,0.252800032671075,"post_correct_inh",73.015873015873
701.02807194104,0.5,"AH17AR05b","2021_Oct_12_1635","circle","relaxed_first","MainTask",133,"Fixation","Go","relaxed",1,0.189870729576796,"post_correct_resp",73.015873015873
701.51181753078,0.1,"AH17AR05b","2021_Oct_12_1635","circle","relaxed_first","MainTask",133,"Target","Go","relaxed",1,0.189870729576796,"post_correct_resp",73.015873015873
701.701688260357,0,"AH17AR05b","2021_Oct_12_1635","circle","relaxed_first","MainTask",133,"Response","Go","relaxed",1,0.189870729576796,"post_correct_resp",73.015873015873
702.729524209582,0.5,"AH17AR05b","2021_Oct_12_1635","circle","relaxed_first","MainTask",134,"Fixation","Go","relaxed",1,0.232375801650051,"post_correct_resp",73.015873015873
703.213262506619,0.1,"AH17AR05b","2021_Oct_12_1635","circle","relaxed_first","MainTask",134,"Target","Go","relaxed",1,0.232375801650051,"post_correct_resp",73.015873015873
703.445638308269,0,"AH17AR05b","2021_Oct_12_1635","circle","relaxed_first","MainTask",134,"Response","Go","relaxed",1,0.232375801650051,"post_correct_resp",73.015873015873
704.464339711529,0.5,"AH17AR05b","2021_Oct_12_1635","circle","relaxed_first","MainTask",135,"Fixation","Go","relaxed",1,0.217575410177233,"post_correct_resp",73.015873015873
704.948075383196,0.1,"AH17AR05b","2021_Oct_12_1635","circle","relaxed_first","MainTask",135,"Target","Go","relaxed",1,0.217575410177233,"post_correct_resp",73.015873015873
705.165650793373,0,"AH17AR05b","2021_Oct_12_1635","circle","relaxed_first","MainTask",135,"Response","Go","relaxed",1,0.217575410177233,"post_correct_resp",73.015873015873
706.199143836864,0.5,"AH17AR05b","2021_Oct_12_1635","circle","relaxed_first","MainTask",136,"Fixation","Go","relaxed",1,0.266697296010534,"post_correct_resp",73.015873015873
706.6828856344,0.1,"AH17AR05b","2021_Oct_12_1635","circle","relaxed_first","MainTask",136,"Target","Go","relaxed",1,0.266697296010534,"post_correct_resp",73.015873015873
706.949582930411,0,"AH17AR05b","2021_Oct_12_1635","circle","relaxed_first","MainTask",136,"Response","Go","relaxed",1,0.266697296010534,"post_correct_resp",73.015873015873
707.967313529276,0.5,"AH17AR05b","2021_Oct_12_1635","circle","relaxed_first","MainTask",137,"Fixation","NoGo","relaxed",1,NA,"post_correct_resp",73.015873015873
708.451057077058,0.1,"AH17AR05b","2021_Oct_12_1635","circle","relaxed_first","MainTask",137,"Target","NoGo","relaxed",1,NA,"post_correct_resp",73.015873015873
710.052424020992,0.5,"AH17AR05b","2021_Oct_12_1635","circle","relaxed_first","MainTask",138,"Fixation","Go","relaxed",1,0.181326600712055,"post_correct_inh",73.015873015873
710.536171652686,0.1,"AH17AR05b","2021_Oct_12_1635","circle","relaxed_first","MainTask",138,"Target","Go","relaxed",1,0.181326600712055,"post_correct_inh",73.015873015873
710.717498253398,0,"AH17AR05b","2021_Oct_12_1635","circle","relaxed_first","MainTask",138,"Response","Go","relaxed",1,0.181326600712055,"post_correct_inh",73.015873015873
711.737191755747,0.5,"AH17AR05b","2021_Oct_12_1635","circle","relaxed_first","MainTask",139,"Fixation","NoGo","relaxed",1,NA,"post_correct_resp",73.015873015873
712.22093092791,0.1,"AH17AR05b","2021_Oct_12_1635","circle","relaxed_first","MainTask",139,"Target","NoGo","relaxed",1,NA,"post_correct_resp",73.015873015873
713.822312457247,0.5,"AH17AR05b","2021_Oct_12_1635","circle","relaxed_first","MainTask",140,"Fixation","Go","relaxed",1,0.263400119893049,"post_correct_inh",73.015873015873
714.306039961088,0.1,"AH17AR05b","2021_Oct_12_1635","circle","relaxed_first","MainTask",140,"Target","Go","relaxed",1,0.263400119893049,"post_correct_inh",73.015873015873
714.569440080981,0,"AH17AR05b","2021_Oct_12_1635","circle","relaxed_first","MainTask",140,"Response","Go","relaxed",1,0.263400119893049,"post_correct_inh",73.015873015873
715.607151222914,0.5,"AH17AR05b","2021_Oct_12_1635","circle","relaxed_first","MainTask",141,"Fixation","NoGo","relaxed",0,0.191489417560661,"post_correct_resp",73.015873015873
716.090920732713,0.1,"AH17AR05b","2021_Oct_12_1635","circle","relaxed_first","MainTask",141,"Target","NoGo","relaxed",0,0.191489417560661,"post_correct_resp",73.015873015873
716.282410150274,0,"AH17AR05b","2021_Oct_12_1635","circle","relaxed_first","MainTask",141,"Response","NoGo","relaxed",0,0.191489417560661,"post_correct_resp",73.015873015873
717.325279273999,0.5,"AH17AR05b","2021_Oct_12_1635","circle","relaxed_first","MainTask",142,"Fixation","NoGo","relaxed",1,NA,"post_error_resp",73.015873015873
717.809021363239,0.1,"AH17AR05b","2021_Oct_12_1635","circle","relaxed_first","MainTask",142,"Target","NoGo","relaxed",1,NA,"post_error_resp",73.015873015873
719.410388890592,0.5,"AH17AR05b","2021_Oct_12_1635","circle","relaxed_first","MainTask",143,"Fixation","Go","relaxed",1,0.213165076129371,"post_correct_inh",73.015873015873
719.894128354459,0.1,"AH17AR05b","2021_Oct_12_1635","circle","relaxed_first","MainTask",143,"Target","Go","relaxed",1,0.213165076129371,"post_correct_inh",73.015873015873
720.107293430588,0,"AH17AR05b","2021_Oct_12_1635","circle","relaxed_first","MainTask",143,"Response","Go","relaxed",1,0.213165076129371,"post_correct_inh",73.015873015873
721.128517525092,0.5,"AH17AR05b","2021_Oct_12_1635","circle","relaxed_first","MainTask",144,"Fixation","NoGo","relaxed",1,NA,"post_correct_resp",73.015873015873
721.612259030917,0.1,"AH17AR05b","2021_Oct_12_1635","circle","relaxed_first","MainTask",144,"Target","NoGo","relaxed",1,NA,"post_correct_resp",73.015873015873
723.213625683144,0.5,"AH17AR05b","2021_Oct_12_1635","circle","relaxed_first","MainTask",145,"Fixation","NoGo","relaxed",1,NA,"post_correct_inh",73.015873015873
723.69736748068,0.1,"AH17AR05b","2021_Oct_12_1635","circle","relaxed_first","MainTask",145,"Target","NoGo","relaxed",1,NA,"post_correct_inh",73.015873015873
725.298732674364,0.5,"AH17AR05b","2021_Oct_12_1635","circle","relaxed_first","MainTask",146,"Fixation","Go","relaxed",1,0.220710688328836,"post_correct_inh",73.015873015873
725.782474180192,0.1,"AH17AR05b","2021_Oct_12_1635","circle","relaxed_first","MainTask",146,"Target","Go","relaxed",1,0.220710688328836,"post_correct_inh",73.015873015873
726.003184868521,0,"AH17AR05b","2021_Oct_12_1635","circle","relaxed_first","MainTask",146,"Response","Go","relaxed",1,0.220710688328836,"post_correct_inh",73.015873015873
727.05021929153,0.5,"AH17AR05b","2021_Oct_12_1635","circle","relaxed_first","MainTask",147,"Fixation","Go","relaxed",1,0.315200760775042,"post_correct_resp",73.015873015873
727.53396488127,0.1,"AH17AR05b","2021_Oct_12_1635","circle","relaxed_first","MainTask",147,"Target","Go","relaxed",1,0.315200760775042,"post_correct_resp",73.015873015873
727.849165642045,0,"AH17AR05b","2021_Oct_12_1635","circle","relaxed_first","MainTask",147,"Response","Go","relaxed",1,0.315200760775042,"post_correct_resp",73.015873015873
728.885118951253,0.5,"AH17AR05b","2021_Oct_12_1635","circle","relaxed_first","MainTask",148,"Fixation","NoGo","relaxed",1,NA,"post_correct_resp",73.015873015873
729.368852580959,0.1,"AH17AR05b","2021_Oct_12_1635","circle","relaxed_first","MainTask",148,"Target","NoGo","relaxed",1,NA,"post_correct_resp",73.015873015873
730.97022769272,0.5,"AH17AR05b","2021_Oct_12_1635","circle","relaxed_first","MainTask",149,"Fixation","Go","relaxed",1,0.265080649984156,"post_correct_inh",73.015873015873
731.453967448298,0.1,"AH17AR05b","2021_Oct_12_1635","circle","relaxed_first","MainTask",149,"Target","Go","relaxed",1,0.265080649984156,"post_correct_inh",73.015873015873
731.719048098282,0,"AH17AR05b","2021_Oct_12_1635","circle","relaxed_first","MainTask",149,"Response","Go","relaxed",1,0.265080649984156,"post_correct_inh",73.015873015873
732.755075209629,0.5,"AH17AR05b","2021_Oct_12_1635","circle","relaxed_first","MainTask",150,"Fixation","Go","relaxed",1,0.336176611723204,"post_correct_resp",73.015873015873
733.23882050766,0.1,"AH17AR05b","2021_Oct_12_1635","circle","relaxed_first","MainTask",150,"Target","Go","relaxed",1,0.336176611723204,"post_correct_resp",73.015873015873
733.574997119383,0,"AH17AR05b","2021_Oct_12_1635","circle","relaxed_first","MainTask",150,"Response","Go","relaxed",1,0.336176611723204,"post_correct_resp",73.015873015873
734.606654444098,0.5,"AH17AR05b","2021_Oct_12_1635","circle","relaxed_first","MainTask",151,"Fixation","Go","relaxed",1,0.319564421533869,"post_correct_resp",73.015873015873
735.090396533342,0.1,"AH17AR05b","2021_Oct_12_1635","circle","relaxed_first","MainTask",151,"Target","Go","relaxed",1,0.319564421533869,"post_correct_resp",73.015873015873
735.409960954876,0,"AH17AR05b","2021_Oct_12_1635","circle","relaxed_first","MainTask",151,"Response","Go","relaxed",1,0.319564421533869,"post_correct_resp",73.015873015873
736.45822784441,0.5,"AH17AR05b","2021_Oct_12_1635","circle","relaxed_first","MainTask",152,"Fixation","NoGo","relaxed",1,NA,"post_correct_resp",73.015873015873
736.941971975608,0.1,"AH17AR05b","2021_Oct_12_1635","circle","relaxed_first","MainTask",152,"Target","NoGo","relaxed",1,NA,"post_correct_resp",73.015873015873
738.543335127339,0.5,"AH17AR05b","2021_Oct_12_1635","circle","relaxed_first","MainTask",153,"Fixation","NoGo","relaxed",1,NA,"post_correct_inh",73.015873015873
739.027077216582,0.1,"AH17AR05b","2021_Oct_12_1635","circle","relaxed_first","MainTask",153,"Target","NoGo","relaxed",1,NA,"post_correct_inh",73.015873015873
740.628441826851,0.5,"AH17AR05b","2021_Oct_12_1635","circle","relaxed_first","MainTask",154,"Fixation","NoGo","relaxed",1,NA,"post_correct_inh",73.015873015873
741.112187124883,0.1,"AH17AR05b","2021_Oct_12_1635","circle","relaxed_first","MainTask",154,"Target","NoGo","relaxed",1,NA,"post_correct_inh",73.015873015873
742.713552901987,0.5,"AH17AR05b","2021_Oct_12_1635","circle","relaxed_first","MainTask",155,"Fixation","NoGo","relaxed",0,0.259513985212834,"post_correct_inh",73.015873015873
743.197295574642,0.1,"AH17AR05b","2021_Oct_12_1635","circle","relaxed_first","MainTask",155,"Target","NoGo","relaxed",0,0.259513985212834,"post_correct_inh",73.015873015873
743.456809559855,0,"AH17AR05b","2021_Oct_12_1635","circle","relaxed_first","MainTask",155,"Response","NoGo","relaxed",0,0.259513985212834,"post_correct_inh",73.015873015873
744.498403919391,0.5,"AH17AR05b","2021_Oct_12_1635","circle","relaxed_first","MainTask",156,"Fixation","Go","relaxed",1,0.23057187905215,"post_error_resp",73.015873015873
744.982178679933,0.1,"AH17AR05b","2021_Oct_12_1635","circle","relaxed_first","MainTask",156,"Target","Go","relaxed",1,0.23057187905215,"post_error_resp",73.015873015873
745.212750558985,0,"AH17AR05b","2021_Oct_12_1635","circle","relaxed_first","MainTask",156,"Response","Go","relaxed",1,0.23057187905215,"post_error_resp",73.015873015873
746.249893453634,0.5,"AH17AR05b","2021_Oct_12_1635","circle","relaxed_first","MainTask",157,"Fixation","NoGo","relaxed",1,NA,"post_correct_resp",73.015873015873
746.733637876539,0.1,"AH17AR05b","2021_Oct_12_1635","circle","relaxed_first","MainTask",157,"Target","NoGo","relaxed",1,NA,"post_correct_resp",73.015873015873
748.33500277852,0.5,"AH17AR05b","2021_Oct_12_1635","circle","relaxed_first","MainTask",158,"Fixation","NoGo","relaxed",1,NA,"post_correct_inh",73.015873015873
748.818744867764,0.1,"AH17AR05b","2021_Oct_12_1635","circle","relaxed_first","MainTask",158,"Target","NoGo","relaxed",1,NA,"post_correct_inh",73.015873015873
750.420109186325,0.5,"AH17AR05b","2021_Oct_12_1635","circle","relaxed_first","MainTask",159,"Fixation","NoGo","relaxed",1,NA,"post_correct_inh",73.015873015873
750.903853025815,0.1,"AH17AR05b","2021_Oct_12_1635","circle","relaxed_first","MainTask",159,"Target","NoGo","relaxed",1,NA,"post_correct_inh",73.015873015873
752.505218802919,0.5,"AH17AR05b","2021_Oct_12_1635","circle","relaxed_first","MainTask",160,"Fixation","Go","relaxed",1,0.258642361553939,"post_correct_inh",73.015873015873
752.988960892162,0.1,"AH17AR05b","2021_Oct_12_1635","circle","relaxed_first","MainTask",160,"Target","Go","relaxed",1,0.258642361553939,"post_correct_inh",73.015873015873
753.247603253716,0,"AH17AR05b","2021_Oct_12_1635","circle","relaxed_first","MainTask",160,"Response","Go","relaxed",1,0.258642361553939,"post_correct_inh",73.015873015873
754.290067486658,0.5,"AH17AR05b","2021_Oct_12_1635","circle","relaxed_first","MainTask",161,"Fixation","Go","relaxed",1,0.341762820935401,"post_correct_resp",73.015873015873
754.773812201274,0.1,"AH17AR05b","2021_Oct_12_1635","circle","relaxed_first","MainTask",161,"Target","Go","relaxed",1,0.341762820935401,"post_correct_resp",73.015873015873
755.115575022209,0,"AH17AR05b","2021_Oct_12_1635","circle","relaxed_first","MainTask",161,"Response","Go","relaxed",1,0.341762820935401,"post_correct_resp",73.015873015873
756.15832425392,0.5,"AH17AR05b","2021_Oct_12_1635","circle","relaxed_first","MainTask",162,"Fixation","Go","relaxed",1,0.260437532906508,"post_correct_resp",73.015873015873
756.642069551952,0.1,"AH17AR05b","2021_Oct_12_1635","circle","relaxed_first","MainTask",162,"Target","Go","relaxed",1,0.260437532906508,"post_correct_resp",73.015873015873
756.902507084858,0,"AH17AR05b","2021_Oct_12_1635","circle","relaxed_first","MainTask",162,"Response","Go","relaxed",1,0.260437532906508,"post_correct_resp",73.015873015873
757.94318052207,0.5,"AH17AR05b","2021_Oct_12_1635","circle","relaxed_first","MainTask",163,"Fixation","Go","relaxed",1,0.264548282786564,"post_correct_resp",73.015873015873
758.426920569356,0.1,"AH17AR05b","2021_Oct_12_1635","circle","relaxed_first","MainTask",163,"Target","Go","relaxed",1,0.264548282786564,"post_correct_resp",73.015873015873
758.691468852143,0,"AH17AR05b","2021_Oct_12_1635","circle","relaxed_first","MainTask",163,"Response","Go","relaxed",1,0.264548282786564,"post_correct_resp",73.015873015873
759.711351089602,0.5,"AH17AR05b","2021_Oct_12_1635","circle","relaxed_first","MainTask",164,"Fixation","Go","relaxed",1,0.240316678264207,"post_correct_resp",73.015873015873
760.195094637387,0.1,"AH17AR05b","2021_Oct_12_1635","circle","relaxed_first","MainTask",164,"Target","Go","relaxed",1,0.240316678264207,"post_correct_resp",73.015873015873
760.435411315651,0,"AH17AR05b","2021_Oct_12_1635","circle","relaxed_first","MainTask",164,"Response","Go","relaxed",1,0.240316678264207,"post_correct_resp",73.015873015873
761.47952369909,0.5,"AH17AR05b","2021_Oct_12_1635","circle","relaxed_first","MainTask",165,"Fixation","NoGo","relaxed",1,NA,"post_correct_resp",73.015873015873
761.963263746376,0.1,"AH17AR05b","2021_Oct_12_1635","circle","relaxed_first","MainTask",165,"Target","NoGo","relaxed",1,NA,"post_correct_resp",73.015873015873
763.56463127373,0.5,"AH17AR05b","2021_Oct_12_1635","circle","relaxed_first","MainTask",166,"Fixation","NoGo","relaxed",1,NA,"post_correct_inh",73.015873015873
764.048371029308,0.1,"AH17AR05b","2021_Oct_12_1635","circle","relaxed_first","MainTask",166,"Target","NoGo","relaxed",1,NA,"post_correct_inh",73.015873015873
765.64973826495,0.5,"AH17AR05b","2021_Oct_12_1635","circle","relaxed_first","MainTask",167,"Fixation","NoGo","relaxed",1,NA,"post_correct_inh",73.015873015873
766.133478895652,0.1,"AH17AR05b","2021_Oct_12_1635","circle","relaxed_first","MainTask",167,"Target","NoGo","relaxed",1,NA,"post_correct_inh",73.015873015873
767.734847881544,0.5,"AH17AR05b","2021_Oct_12_1635","circle","relaxed_first","MainTask",168,"Fixation","Go","relaxed",1,0.238690989281167,"post_correct_inh",73.015873015873
768.218585303457,0.1,"AH17AR05b","2021_Oct_12_1635","circle","relaxed_first","MainTask",168,"Target","Go","relaxed",1,0.238690989281167,"post_correct_inh",73.015873015873
768.457276292738,0,"AH17AR05b","2021_Oct_12_1635","circle","relaxed_first","MainTask",168,"Response","Go","relaxed",1,0.238690989281167,"post_correct_inh",73.015873015873
769.503015531995,0.5,"AH17AR05b","2021_Oct_12_1635","circle","relaxed_first","MainTask",169,"Fixation","Go","relaxed",1,0.243458082280995,"post_correct_resp",73.015873015873
769.986761121734,0.1,"AH17AR05b","2021_Oct_12_1635","circle","relaxed_first","MainTask",169,"Target","Go","relaxed",1,0.243458082280995,"post_correct_resp",73.015873015873
770.230219204015,0,"AH17AR05b","2021_Oct_12_1635","circle","relaxed_first","MainTask",169,"Response","Go","relaxed",1,0.243458082280995,"post_correct_resp",73.015873015873
771.271189891733,0.5,"AH17AR05b","2021_Oct_12_1635","circle","relaxed_first","MainTask",170,"Fixation","Go","relaxed",1,0.235253793296579,"post_correct_resp",73.015873015873
771.75493110585,0.1,"AH17AR05b","2021_Oct_12_1635","circle","relaxed_first","MainTask",170,"Target","Go","relaxed",1,0.235253793296579,"post_correct_resp",73.015873015873
771.990184899147,0,"AH17AR05b","2021_Oct_12_1635","circle","relaxed_first","MainTask",170,"Response","Go","relaxed",1,0.235253793296579,"post_correct_resp",73.015873015873
773.039372419295,0.5,"AH17AR05b","2021_Oct_12_1635","circle","relaxed_first","MainTask",171,"Fixation","Go","relaxed",1,0.275033728743438,"post_correct_resp",73.015873015873
773.523101673385,0.1,"AH17AR05b","2021_Oct_12_1635","circle","relaxed_first","MainTask",171,"Target","Go","relaxed",1,0.275033728743438,"post_correct_resp",73.015873015873
773.798135402128,0,"AH17AR05b","2021_Oct_12_1635","circle","relaxed_first","MainTask",171,"Response","Go","relaxed",1,0.275033728743438,"post_correct_resp",73.015873015873
774.824214102042,0.5,"AH17AR05b","2021_Oct_12_1635","circle","relaxed_first","MainTask",172,"Fixation","NoGo","relaxed",1,NA,"post_correct_resp",73.015873015873
775.307954441036,0.1,"AH17AR05b","2021_Oct_12_1635","circle","relaxed_first","MainTask",172,"Target","NoGo","relaxed",1,NA,"post_correct_resp",73.015873015873
776.909319343016,0.5,"AH17AR05b","2021_Oct_12_1635","circle","relaxed_first","MainTask",173,"Fixation","Go","relaxed",1,0.289033965025737,"post_correct_inh",73.015873015873
777.393063474214,0.1,"AH17AR05b","2021_Oct_12_1635","circle","relaxed_first","MainTask",173,"Target","Go","relaxed",1,0.289033965025737,"post_correct_inh",73.015873015873
777.68209743924,0,"AH17AR05b","2021_Oct_12_1635","circle","relaxed_first","MainTask",173,"Response","Go","relaxed",1,0.289033965025737,"post_correct_inh",73.015873015873
778.727535344078,0.5,"AH17AR05b","2021_Oct_12_1635","circle","relaxed_first","MainTask",174,"Fixation","Go","relaxed",1,0.606747207257285,"post_correct_resp",73.015873015873
779.211276266487,0.1,"AH17AR05b","2021_Oct_12_1635","circle","relaxed_first","MainTask",174,"Target","Go","relaxed",1,0.606747207257285,"post_correct_resp",73.015873015873
779.818023473744,0,"AH17AR05b","2021_Oct_12_1635","circle","relaxed_first","MainTask",174,"Response","Go","relaxed",1,0.606747207257285,"post_correct_resp",73.015873015873
780.862685726872,0.5,"AH17AR05b","2021_Oct_12_1635","circle","relaxed_first","MainTask",175,"Fixation","Go","relaxed",1,0.199546102270688,"post_correct_resp",73.015873015873
781.346426940989,0.1,"AH17AR05b","2021_Oct_12_1635","circle","relaxed_first","MainTask",175,"Target","Go","relaxed",1,0.199546102270688,"post_correct_resp",73.015873015873
781.54597304326,0,"AH17AR05b","2021_Oct_12_1635","circle","relaxed_first","MainTask",175,"Response","Go","relaxed",1,0.199546102270688,"post_correct_resp",73.015873015873
782.580815528203,0.5,"AH17AR05b","2021_Oct_12_1635","circle","relaxed_first","MainTask",176,"Fixation","NoGo","relaxed",0,0.151426817013999,"post_correct_resp",73.015873015873
783.064554408658,0.1,"AH17AR05b","2021_Oct_12_1635","circle","relaxed_first","MainTask",176,"Target","NoGo","relaxed",0,0.151426817013999,"post_correct_resp",73.015873015873
783.215981225672,0,"AH17AR05b","2021_Oct_12_1635","circle","relaxed_first","MainTask",176,"Response","NoGo","relaxed",0,0.151426817013999,"post_correct_resp",73.015873015873
784.265580637588,0.5,"AH17AR05b","2021_Oct_12_1635","circle","relaxed_first","MainTask",177,"Fixation","Go","relaxed",1,0.393597591661091,"post_error_resp",73.015873015873
784.749322726828,0.1,"AH17AR05b","2021_Oct_12_1635","circle","relaxed_first","MainTask",177,"Target","Go","relaxed",1,0.393597591661091,"post_error_resp",73.015873015873
785.142920318489,0,"AH17AR05b","2021_Oct_12_1635","circle","relaxed_first","MainTask",177,"Response","Go","relaxed",1,0.393597591661091,"post_error_resp",73.015873015873
786.183917259928,0.5,"AH17AR05b","2021_Oct_12_1635","circle","relaxed_first","MainTask",178,"Fixation","Go","relaxed",1,0.198245667772426,"post_correct_resp",73.015873015873
786.667620843709,0.1,"AH17AR05b","2021_Oct_12_1635","circle","relaxed_first","MainTask",178,"Target","Go","relaxed",1,0.198245667772426,"post_correct_resp",73.015873015873
786.865866511481,0,"AH17AR05b","2021_Oct_12_1635","circle","relaxed_first","MainTask",178,"Response","Go","relaxed",1,0.198245667772426,"post_correct_resp",73.015873015873
787.902007972381,0.5,"AH17AR05b","2021_Oct_12_1635","circle","relaxed_first","MainTask",179,"Fixation","NoGo","relaxed",1,NA,"post_correct_resp",73.015873015873
788.385750353333,0.1,"AH17AR05b","2021_Oct_12_1635","circle","relaxed_first","MainTask",179,"Target","NoGo","relaxed",1,NA,"post_correct_resp",73.015873015873
789.987117297267,0.5,"AH17AR05b","2021_Oct_12_1635","circle","relaxed_first","MainTask",180,"Fixation","Go","relaxed",1,0.198940224643593,"post_correct_inh",73.015873015873
790.470857927969,0.1,"AH17AR05b","2021_Oct_12_1635","circle","relaxed_first","MainTask",180,"Target","Go","relaxed",1,0.198940224643593,"post_correct_inh",73.015873015873
790.669798152613,0,"AH17AR05b","2021_Oct_12_1635","circle","relaxed_first","MainTask",180,"Response","Go","relaxed",1,0.198940224643593,"post_correct_inh",73.015873015873
791.688564315064,0.5,"AH17AR05b","2021_Oct_12_1635","circle","relaxed_first","MainTask",181,"Fixation","Go","relaxed",1,0.172485804760072,"post_correct_resp",73.015873015873
792.172292985735,0.1,"AH17AR05b","2021_Oct_12_1635","circle","relaxed_first","MainTask",181,"Target","Go","relaxed",1,0.172485804760072,"post_correct_resp",73.015873015873
792.344778790495,0,"AH17AR05b","2021_Oct_12_1635","circle","relaxed_first","MainTask",181,"Response","Go","relaxed",1,0.172485804760072,"post_correct_resp",73.015873015873
793.390013083106,0.5,"AH17AR05b","2021_Oct_12_1635","circle","relaxed_first","MainTask",182,"Fixation","Go","relaxed",1,0.192978295461216,"post_correct_resp",73.015873015873
793.8737534221,0.1,"AH17AR05b","2021_Oct_12_1635","circle","relaxed_first","MainTask",182,"Target","Go","relaxed",1,0.192978295461216,"post_correct_resp",73.015873015873
794.066731717561,0,"AH17AR05b","2021_Oct_12_1635","circle","relaxed_first","MainTask",182,"Response","Go","relaxed",1,0.192978295461216,"post_correct_resp",73.015873015873
795.108137633695,0.5,"AH17AR05b","2021_Oct_12_1635","circle","relaxed_first","MainTask",183,"Fixation","Go","relaxed",0,NA,"post_correct_resp",73.015873015873
795.591884390265,0.1,"AH17AR05b","2021_Oct_12_1635","circle","relaxed_first","MainTask",183,"Target","Go","relaxed",0,NA,"post_correct_resp",73.015873015873
797.193245791746,0.5,"AH17AR05b","2021_Oct_12_1635","circle","relaxed_first","MainTask",184,"Fixation","Go","relaxed",1,0.106655173371109,"post_error_inh",73.015873015873
797.676990506363,0.1,"AH17AR05b","2021_Oct_12_1635","circle","relaxed_first","MainTask",184,"Target","Go","relaxed",1,0.106655173371109,"post_error_inh",73.015873015873
797.783645679734,0,"AH17AR05b","2021_Oct_12_1635","circle","relaxed_first","MainTask",184,"Response","Go","relaxed",1,0.106655173371109,"post_error_inh",73.015873015873
798.827974802258,0.5,"AH17AR05b","2021_Oct_12_1635","circle","relaxed_first","MainTask",185,"Fixation","Go","relaxed",1,0.150916911337845,"post_correct_resp",73.015873015873
799.311716016378,0.1,"AH17AR05b","2021_Oct_12_1635","circle","relaxed_first","MainTask",185,"Target","Go","relaxed",1,0.150916911337845,"post_correct_resp",73.015873015873
799.462632927716,0,"AH17AR05b","2021_Oct_12_1635","circle","relaxed_first","MainTask",185,"Response","Go","relaxed",1,0.150916911337845,"post_correct_resp",73.015873015873
800.512738453101,0.5,"AH17AR05b","2021_Oct_12_1635","circle","relaxed_first","MainTask",186,"Fixation","Go","relaxed",1,0.00506317667168332,"post_correct_resp",73.015873015873
800.996503295573,0.1,"AH17AR05b","2021_Oct_12_1635","circle","relaxed_first","MainTask",186,"Target","Go","relaxed",1,0.00506317667168332,"post_correct_resp",73.015873015873
801.001566472245,0,"AH17AR05b","2021_Oct_12_1635","circle","relaxed_first","MainTask",186,"Response","Go","relaxed",1,0.00506317667168332,"post_correct_resp",73.015873015873
802.04738009705,0.5,"AH17AR05b","2021_Oct_12_1635","circle","relaxed_first","MainTask",187,"Fixation","Go","relaxed",1,0.0254004786947917,"post_correct_resp",73.015873015873
802.531121894586,0.1,"AH17AR05b","2021_Oct_12_1635","circle","relaxed_first","MainTask",187,"Target","Go","relaxed",1,0.0254004786947917,"post_correct_resp",73.015873015873
802.556522373281,0,"AH17AR05b","2021_Oct_12_1635","circle","relaxed_first","MainTask",187,"Response","Go","relaxed",1,0.0254004786947917,"post_correct_resp",73.015873015873
803.598704524538,0.5,"AH17AR05b","2021_Oct_12_1635","circle","relaxed_first","MainTask",188,"Fixation","NoGo","relaxed",0,0.0671021867892705,"post_correct_resp",73.015873015873
804.082442529867,0.1,"AH17AR05b","2021_Oct_12_1635","circle","relaxed_first","MainTask",188,"Target","NoGo","relaxed",0,0.0671021867892705,"post_correct_resp",73.015873015873
804.149544716656,0,"AH17AR05b","2021_Oct_12_1635","circle","relaxed_first","MainTask",188,"Response","NoGo","relaxed",0,0.0671021867892705,"post_correct_resp",73.015873015873
805.183380517112,0.5,"AH17AR05b","2021_Oct_12_1635","circle","relaxed_first","MainTask",189,"Fixation","Go","relaxed",1,0.134369188628625,"post_error_resp",73.015873015873
805.667125231725,0.1,"AH17AR05b","2021_Oct_12_1635","circle","relaxed_first","MainTask",189,"Target","Go","relaxed",1,0.134369188628625,"post_error_resp",73.015873015873
805.801494420354,0,"AH17AR05b","2021_Oct_12_1635","circle","relaxed_first","MainTask",189,"Response","Go","relaxed",1,0.134369188628625,"post_error_resp",73.015873015873
806.85146867712,0.5,"AH17AR05b","2021_Oct_12_1635","circle","relaxed_first","MainTask",190,"Fixation","Go","relaxed",1,0.110209927697724,"post_correct_resp",73.015873015873
807.335209599529,0.1,"AH17AR05b","2021_Oct_12_1635","circle","relaxed_first","MainTask",190,"Target","Go","relaxed",1,0.110209927697724,"post_correct_resp",73.015873015873
807.445419527227,0,"AH17AR05b","2021_Oct_12_1635","circle","relaxed_first","MainTask",190,"Response","Go","relaxed",1,0.110209927697724,"post_correct_resp",73.015873015873
808.48619360372,0.5,"AH17AR05b","2021_Oct_12_1635","circle","relaxed_first","MainTask",191,"Fixation","Go","relaxed",1,0.238454705759068,"post_correct_resp",73.015873015873
808.969935109544,0.1,"AH17AR05b","2021_Oct_12_1635","circle","relaxed_first","MainTask",191,"Target","Go","relaxed",1,0.238454705759068,"post_correct_resp",73.015873015873
809.208389815303,0,"AH17AR05b","2021_Oct_12_1635","circle","relaxed_first","MainTask",191,"Response","Go","relaxed",1,0.238454705759068,"post_correct_resp",73.015873015873
810.254363879543,0.5,"AH17AR05b","2021_Oct_12_1635","circle","relaxed_first","MainTask",192,"Fixation","Go","relaxed",1,0.0812398175658018,"post_correct_resp",73.015873015873
810.738107135618,0.1,"AH17AR05b","2021_Oct_12_1635","circle","relaxed_first","MainTask",192,"Target","Go","relaxed",1,0.0812398175658018,"post_correct_resp",73.015873015873
810.819346953184,0,"AH17AR05b","2021_Oct_12_1635","circle","relaxed_first","MainTask",192,"Response","Go","relaxed",1,0.0812398175658018,"post_correct_resp",73.015873015873
811.855724697609,0.5,"AH17AR05b","2021_Oct_12_1635","circle","relaxed_first","MainTask",193,"Fixation","NoGo","relaxed",0,0.128851239100186,"post_correct_resp",73.015873015873
812.339470579056,0.1,"AH17AR05b","2021_Oct_12_1635","circle","relaxed_first","MainTask",193,"Target","NoGo","relaxed",0,0.128851239100186,"post_correct_resp",73.015873015873
812.468321818156,0,"AH17AR05b","2021_Oct_12_1635","circle","relaxed_first","MainTask",193,"Response","NoGo","relaxed",0,0.128851239100186,"post_correct_resp",73.015873015873
813.490450499332,0.5,"AH17AR05b","2021_Oct_12_1635","circle","relaxed_first","MainTask",194,"Fixation","Go","relaxed",1,0.0741171820409363,"post_error_resp",73.015873015873
813.974193171991,0.1,"AH17AR05b","2021_Oct_12_1635","circle","relaxed_first","MainTask",194,"Target","Go","relaxed",1,0.0741171820409363,"post_error_resp",73.015873015873
814.048310354032,0,"AH17AR05b","2021_Oct_12_1635","circle","relaxed_first","MainTask",194,"Response","Go","relaxed",1,0.0741171820409363,"post_error_resp",73.015873015873
815.091814234478,0.5,"AH17AR05b","2021_Oct_12_1635","circle","relaxed_first","MainTask",195,"Fixation","Go","relaxed",1,0.146695020688639,"post_correct_resp",73.015873015873
815.575557198845,0.1,"AH17AR05b","2021_Oct_12_1635","circle","relaxed_first","MainTask",195,"Target","Go","relaxed",1,0.146695020688639,"post_correct_resp",73.015873015873
815.722252219534,0,"AH17AR05b","2021_Oct_12_1635","circle","relaxed_first","MainTask",195,"Response","Go","relaxed",1,0.146695020688639,"post_correct_resp",73.015873015873
816.743235363185,0.5,"AH17AR05b","2021_Oct_12_1635","circle","relaxed_first","MainTask",196,"Fixation","Go","relaxed",1,0.186255883389094,"post_correct_resp",73.015873015873
817.22696053336,0.1,"AH17AR05b","2021_Oct_12_1635","circle","relaxed_first","MainTask",196,"Target","Go","relaxed",1,0.186255883389094,"post_correct_resp",73.015873015873
817.413216416749,0,"AH17AR05b","2021_Oct_12_1635","circle","relaxed_first","MainTask",196,"Response","Go","relaxed",1,0.186255883389094,"post_correct_resp",73.015873015873
