Instruction_Condition,MarkCondition,Type,Letter,CorrectResponse,Condition,RandomizeBlocks.thisRepN,RandomizeBlocks.thisTrialN,RandomizeBlocks.thisN,RandomizeBlocks.thisIndex,Practice.thisRepN,Practice.thisTrialN,Practice.thisN,Practice.thisIndex,Trials.thisRepN,Trials.thisTrialN,Trials.thisN,Trials.thisIndex,Target_Mapping,Fixation_practice.started,Fixation_practice.stopped,Target_practice.started,Target_practice.stopped,Target_resp_practice.keys,Target_resp_practice.corr,Target_resp_practice.started,Target_resp_practice.stopped,ITI_resp_practice.started,ITI_resp_practice.stopped,ITI_Duration,ITI.started,ITI.stopped,square2.started,square2.stopped,Target_resp_practice.rt,Instr_Repe.started,Instr_Repe.stopped,Trigger_Target,TriggerResp,Fixation.started,Fixation.stopped,Target.started,Target.stopped,Target_resp.keys,Target_resp.corr,Target_resp.rt,Target_resp.started,Target_resp.stopped,ITI_resp.started,ITI_resp.stopped,square1.started,square1.stopped,showReminder,ReminderErrors.started,ReminderErrors.stopped,ReminderErrorsResp.keys,ReminderErrorsResp.started,ReminderErrorsResp.stopped,break_block.started,break_block.stopped,break_block_resp.keys,break_block_resp.rt,SelfReport.started,SelfReport.stopped,anxious.response,anxious.rt,peppy.response,peppy.rt,peeved.response,peeved.rt,happy.response,happy.rt,tired.response,tired.rt,relaxed.response,relaxed.rt,sad.response,sad.rt,calm.response,calm.rt,exhausted.response,exhausted.rt,irritated.response,irritated.rt,break_cond.started,break_cond.stopped,break_cond_resp.keys,break_cond_resp.rt,participant,session,EEGPort,LogFilesFolder,date,expName,psychopyVersion,frameRate,
IN DIESEM BLOCK KÖNNEN SIE EINFACH ENTSPANNT AN DIE AUFGABE HERANGEHEN. SIE SOLLEN SICH NICHT VERAUSGABEN.,100,Go,go,4,0,0,0,0,0,0,0,0,1,,,,,circle,400.53859895539426,401.0390474565247,401.0390474565247,401.13910215178475,None,0,401.0390474565247,None,401.13910215178475,None,0.9,401.73961497454,None,401.73961497454,None,,,,,,,,,,,,,,,,,,,,,,,,,,,,,,,,,,,,,,,,,,,,,,,,,,,,,,,AH17AR05b,1,0xC010,G:\Experimente\CoScience\Tasks\Logfiles\,2021_Oct_12_1635,GoNoGo,2020.1.3,59.95115535989248,
IN DIESEM BLOCK KÖNNEN SIE EINFACH ENTSPANNT AN DIE AUFGABE HERANGEHEN. SIE SOLLEN SICH NICHT VERAUSGABEN.,100,Go,go,4,0,0,0,0,0,0,1,1,0,,,,,,402.64038260428424,403.14081039414305,403.1241491969995,403.22421147667046,4,1,403.1241491969995,None,403.22421147667046,None,1,403.32429738469364,None,403.32429738469364,None,0.1809182094366406,,,,,,,,,,,,,,,,,,,,,,,,,,,,,,,,,,,,,,,,,,,,,,,,,,,,,,AH17AR05b,1,0xC010,G:\Experimente\CoScience\Tasks\Logfiles\,2021_Oct_12_1635,GoNoGo,2020.1.3,59.95115535989248,
IN DIESEM BLOCK KÖNNEN SIE EINFACH ENTSPANNT AN DIE AUFGABE HERANGEHEN. SIE SOLLEN SICH NICHT VERAUSGABEN.,100,Go,go,4,0,0,0,0,0,0,2,2,1,,,,,,404.3251876776703,404.8255769620664,404.80889417852813,404.90898212850516,None,0,404.80889417852813,None,404.90898212850516,None,0.9,405.5094917424758,None,405.5094917424758,None,,,,,,,,,,,,,,,,,,,,,,,,,,,,,,,,,,,,,,,,,,,,,,,,,,,,,,,AH17AR05b,1,0xC010,G:\Experimente\CoScience\Tasks\Logfiles\,2021_Oct_12_1635,GoNoGo,2020.1.3,59.95115535989248,
IN DIESEM BLOCK KÖNNEN SIE EINFACH ENTSPANNT AN DIE AUFGABE HERANGEHEN. SIE SOLLEN SICH NICHT VERAUSGABEN.,100,NoGo,nogo,None,0,0,0,0,0,1,0,3,2,,,,,,406.41026724833137,406.9106877454906,406.8940020448754,406.99408678606414,None,1,406.8940020448754,None,406.99408678606414,None,0.9,407.5945999005271,None,407.5945999005271,None,,,,,,,,,,,,,,,,,,,,,,,,,,,,,,,,,,,,,,,,,,,,,,,,,,,,,,,AH17AR05b,1,0xC010,G:\Experimente\CoScience\Tasks\Logfiles\,2021_Oct_12_1635,GoNoGo,2020.1.3,59.95115535989248,
IN DIESEM BLOCK KÖNNEN SIE EINFACH ENTSPANNT AN DIE AUFGABE HERANGEHEN. SIE SOLLEN SICH NICHT VERAUSGABEN.,100,Go,go,4,0,0,0,0,0,1,1,4,1,,,,,,408.49537044734825,408.9961704566849,408.97949146535393,409.0795744562929,4,1,408.97949146535393,None,409.0795744562929,None,1,409.14629800603143,None,409.14629800603143,None,0.14445586967849522,,,,,,,,,,,,,,,,,,,,,,,,,,,,,,,,,,,,,,,,,,,,,,,,,,,,,,AH17AR05b,1,0xC010,G:\Experimente\CoScience\Tasks\Logfiles\,2021_Oct_12_1635,GoNoGo,2020.1.3,59.95115535989248,
IN DIESEM BLOCK KÖNNEN SIE EINFACH ENTSPANNT AN DIE AUFGABE HERANGEHEN. SIE SOLLEN SICH NICHT VERAUSGABEN.,100,Go,go,4,0,0,0,0,0,1,2,5,0,,,,,,410.14715329404135,410.6475764165698,410.63089567499264,410.7309809995968,None,0,410.63089567499264,None,410.7309809995968,None,0.9,411.3314932389367,None,411.3314932389367,None,,,,,,,,,,,,,,,,,,,,,,,,,,,,,,,,,,,,,,,,,,,,,,,,,,,,,,,AH17AR05b,1,0xC010,G:\Experimente\CoScience\Tasks\Logfiles\,2021_Oct_12_1635,GoNoGo,2020.1.3,59.95115535989248,
IN DIESEM BLOCK KÖNNEN SIE EINFACH ENTSPANNT AN DIE AUFGABE HERANGEHEN. SIE SOLLEN SICH NICHT VERAUSGABEN.,100,NoGo,nogo,None,0,0,0,0,0,2,0,6,2,,,,,,412.23226116038495,412.7326851580401,412.71600295792086,412.8160900327748,4,0,412.71600295792086,None,412.8160900327748,None,1,412.91617506567127,None,412.91617506567127,None,0.1808578258714988,,,,,,,,,,,,,,,,,,,,,,,,,,,,,,,,,,,,,,,,,,,,,,,,,,,,,,AH17AR05b,1,0xC010,G:\Experimente\CoScience\Tasks\Logfiles\,2021_Oct_12_1635,GoNoGo,2020.1.3,59.95115535989248,
IN DIESEM BLOCK KÖNNEN SIE EINFACH ENTSPANNT AN DIE AUFGABE HERANGEHEN. SIE SOLLEN SICH NICHT VERAUSGABEN.,100,NoGo,nogo,None,0,0,0,0,0,2,1,7,2,,,,,,413.9170274366006,414.41745230937886,414.4007715678017,414.50085747582125,4,0,414.4007715678017,None,414.50085747582125,None,1,414.6009524267938,None,414.6009524267938,None,0.17606564598099794,,,,,,,,,,,,,,,,,,,,,,,,,,,,,,,,,,,,,,,,,,,,,,,,,,,,,,AH17AR05b,1,0xC010,G:\Experimente\CoScience\Tasks\Logfiles\,2021_Oct_12_1635,GoNoGo,2020.1.3,59.95115535989248,
IN DIESEM BLOCK KÖNNEN SIE EINFACH ENTSPANNT AN DIE AUFGABE HERANGEHEN. SIE SOLLEN SICH NICHT VERAUSGABEN.,100,Go,go,4,0,0,0,0,0,2,2,8,0,,,,,,415.60179458793937,416.1022209192597,416.08553930255584,416.1856249188677,4,1,416.08553930255584,None,416.1856249188677,None,1,416.2857096600601,None,416.2857096600601,None,0.17125158798444318,,,,,,,,,,,,,,,,,,,,,,,,,,,,,,,,,,,,,,,,,,,,,,,,,,,,,,AH17AR05b,1,0xC010,G:\Experimente\CoScience\Tasks\Logfiles\,2021_Oct_12_1635,GoNoGo,2020.1.3,59.95115535989248,
IN DIESEM BLOCK KÖNNEN SIE EINFACH ENTSPANNT AN DIE AUFGABE HERANGEHEN. SIE SOLLEN SICH NICHT VERAUSGABEN.,100,Go,go,4,0,0,0,0,0,3,0,9,0,,,,,,417.2865629061125,417.7869871954754,417.7703067456023,417.87039119508336,None,0,417.7703067456023,None,417.87039119508336,None,0.9,418.4709034344269,None,418.4709034344269,None,,,,,,,,,,,,,,,,,,,,,,,,,,,,,,,,,,,,,,,,,,,,,,,,,,,,,,,AH17AR05b,1,0xC010,G:\Experimente\CoScience\Tasks\Logfiles\,2021_Oct_12_1635,GoNoGo,2020.1.3,59.95115535989248,
IN DIESEM BLOCK KÖNNEN SIE EINFACH ENTSPANNT AN DIE AUFGABE HERANGEHEN. SIE SOLLEN SICH NICHT VERAUSGABEN.,100,NoGo,nogo,None,0,0,0,0,0,3,1,10,2,,,,,,419.371681857363,419.8720965203611,419.8554166539034,419.9554999365537,4,0,419.8554166539034,None,419.9554999365537,None,1,420.0389048112884,None,420.0389048112884,None,0.15830266752527677,,,,,,,,,,,,,,,,,,,,,,,,,,,,,,,,,,,,,,,,,,,,,,,,,,,,,,AH17AR05b,1,0xC010,G:\Experimente\CoScience\Tasks\Logfiles\,2021_Oct_12_1635,GoNoGo,2020.1.3,59.95115535989248,
IN DIESEM BLOCK KÖNNEN SIE EINFACH ENTSPANNT AN DIE AUFGABE HERANGEHEN. SIE SOLLEN SICH NICHT VERAUSGABEN.,100,Go,go,4,0,0,0,0,0,3,2,11,1,,,,,,421.03977060078614,421.54018205499597,421.5235016051229,421.62358517948087,4,1,421.5235016051229,None,421.62358517948087,None,1,421.7236722543348,None,421.7236722543348,None,0.18016851974243764,,,,,,,,,,,,,,,,,,,,,,,,,,,,,,,,,,,,,,,,,,,,,,,,,,,,,,AH17AR05b,1,0xC010,G:\Experimente\CoScience\Tasks\Logfiles\,2021_Oct_12_1635,GoNoGo,2020.1.3,59.95115535989248,
IN DIESEM BLOCK KÖNNEN SIE EINFACH ENTSPANNT AN DIE AUFGABE HERANGEHEN. SIE SOLLEN SICH NICHT VERAUSGABEN.,100,NoGo,nogo,None,0,0,0,0,0,4,0,12,2,,,,,,422.72452900088683,423.224948914627,423.20827663258024,423.308353497654,None,1,423.20827663258024,None,423.308353497654,None,0.9,423.90886719553237,None,423.90886719553237,None,,,,,,,,,,,,,,,,,,,,,,,,,,,,,,,,,,,,,,,,,,,,,,,,,,,,,,,AH17AR05b,1,0xC010,G:\Experimente\CoScience\Tasks\Logfiles\,2021_Oct_12_1635,GoNoGo,2020.1.3,59.95115535989248,
IN DIESEM BLOCK KÖNNEN SIE EINFACH ENTSPANNT AN DIE AUFGABE HERANGEHEN. SIE SOLLEN SICH NICHT VERAUSGABEN.,100,Go,go,4,0,0,0,0,0,4,1,13,1,,,,,,424.80963803406485,425.3100588229281,425.29337778963964,425.39348411722676,4,1,425.29337778963964,None,425.39348411722676,None,1,425.57695243845956,None,425.57695243845956,None,0.2662232704278722,,,,,,,,,,,,,,,,,,,,,,,,,,,,,,,,,,,,,,,,,,,,,,,,,,,,,,AH17AR05b,1,0xC010,G:\Experimente\CoScience\Tasks\Logfiles\,2021_Oct_12_1635,GoNoGo,2020.1.3,59.95115535989248,
IN DIESEM BLOCK KÖNNEN SIE EINFACH ENTSPANNT AN DIE AUFGABE HERANGEHEN. SIE SOLLEN SICH NICHT VERAUSGABEN.,100,Go,go,4,0,0,0,0,0,4,2,14,0,,,,,,426.5778059762233,427.0782299738785,427.06155010742077,427.16163455690184,4,1,427.06155010742077,None,427.16163455690184,None,1,427.39516610585997,None,427.39516610585997,None,0.31099987310517463,,,,,,,,,,,,,,,,,,,,,,,,,,,,,,,,,,,,,,,,,,,,,,,,,,,,,,AH17AR05b,1,0xC010,G:\Experimente\CoScience\Tasks\Logfiles\,2021_Oct_12_1635,GoNoGo,2020.1.3,59.95115535989248,
IN DIESEM BLOCK KÖNNEN SIE EINFACH ENTSPANNT AN DIE AUFGABE HERANGEHEN. SIE SOLLEN SICH NICHT VERAUSGABEN.,100,Go,go,4,1,0,0,0,0,,,,,0,0,0,1,,,,,,,,,,,,1,437.72109909760184,None,437.72109909760184,None,,428.42938346044684,None,101,111,437.02003100856746,437.5204625906299,437.50377222268435,437.6038592975383,4,1,0.1805521158312331,437.50377222268435,None,437.6038592975383,None,437.50377222268435,None,False,None,None,None,None,None,None,None,None,,,,,,,,,,,,,,,,,,,,,,,,,,,,AH17AR05b,1,0xC010,G:\Experimente\CoScience\Tasks\Logfiles\,2021_Oct_12_1635,GoNoGo,2020.1.3,59.95115535989248,
IN DIESEM BLOCK KÖNNEN SIE EINFACH ENTSPANNT AN DIE AUFGABE HERANGEHEN. SIE SOLLEN SICH NICHT VERAUSGABEN.,100,Go,go,4,1,0,0,0,0,,,,,0,1,1,1,,,,,,,,,,,,1,439.5555183141623,None,439.5555183141623,None,,,,101,111,438.7381581845257,439.2385824738885,439.22190085718466,439.322009810141,4,1,0.3004890485499345,439.22190085718466,None,439.322009810141,None,439.22190085718466,None,False,None,None,None,None,None,None,None,None,,,,,,,,,,,,,,,,,,,,,,,,,,,,AH17AR05b,1,0xC010,G:\Experimente\CoScience\Tasks\Logfiles\,2021_Oct_12_1635,GoNoGo,2020.1.3,59.95115535989248,
IN DIESEM BLOCK KÖNNEN SIE EINFACH ENTSPANNT AN DIE AUFGABE HERANGEHEN. SIE SOLLEN SICH NICHT VERAUSGABEN.,100,Go,go,4,1,0,0,0,0,,,,,0,2,2,0,,,,,,,,,,,,1,441.3070390611683,None,441.3070390611683,None,,,,101,111,440.55637564412973,441.0567978915351,441.04017840864617,441.1402015994354,4,1,0.2390789609962667,441.04017840864617,None,441.1402015994354,None,441.04017840864617,None,False,None,None,None,None,None,None,None,None,,,,,,,,,,,,,,,,,,,,,,,,,,,,AH17AR05b,1,0xC010,G:\Experimente\CoScience\Tasks\Logfiles\,2021_Oct_12_1635,GoNoGo,2020.1.3,59.95115535989248,
IN DIESEM BLOCK KÖNNEN SIE EINFACH ENTSPANNT AN DIE AUFGABE HERANGEHEN. SIE SOLLEN SICH NICHT VERAUSGABEN.,100,Go,go,4,1,0,0,0,0,,,,,1,0,3,0,,,,,,,,,,,,1,443.225784366492,None,443.225784366492,None,,,,101,111,442.307865761788,442.8082883009047,442.7916081427393,442.89169230051266,4,1,0.3926299960439792,442.7916081427393,None,442.89169230051266,None,442.7916081427393,None,False,None,None,None,None,None,None,None,None,,,,,,,,,,,,,,,,,,,,,,,,,,,,AH17AR05b,1,0xC010,G:\Experimente\CoScience\Tasks\Logfiles\,2021_Oct_12_1635,GoNoGo,2020.1.3,59.95115535989248,
IN DIESEM BLOCK KÖNNEN SIE EINFACH ENTSPANNT AN DIE AUFGABE HERANGEHEN. SIE SOLLEN SICH NICHT VERAUSGABEN.,100,Go,go,4,1,0,0,0,0,,,,,1,1,4,1,,,,,,,,,,,,1,445.0106380092693,None,445.0106380092693,None,,,,101,111,444.2261667957464,444.7265872929056,444.7099083015746,444.8099921676403,4,1,0.26526996851316653,444.7099083015746,None,444.8099921676403,None,444.7099083015746,None,False,None,None,None,None,None,None,None,None,,,,,,,,,,,,,,,,,,,,,,,,,,,,AH17AR05b,1,0xC010,G:\Experimente\CoScience\Tasks\Logfiles\,2021_Oct_12_1635,GoNoGo,2020.1.3,59.95115535989248,
IN DIESEM BLOCK KÖNNEN SIE EINFACH ENTSPANNT AN DIE AUFGABE HERANGEHEN. SIE SOLLEN SICH NICHT VERAUSGABEN.,100,Go,go,4,1,0,0,0,0,,,,,1,2,5,1,,,,,,,,,,,,1,446.82886567865353,None,446.82886567865353,None,,,,101,111,446.0110151877816,446.5114429776404,446.4947604858098,446.5948536865326,4,1,0.2844381046561466,446.4947604858098,None,446.5948536865326,None,446.4947604858098,None,False,None,None,None,None,None,None,None,None,,,,,,,,,,,,,,,,,,,,,,,,,,,,AH17AR05b,1,0xC010,G:\Experimente\CoScience\Tasks\Logfiles\,2021_Oct_12_1635,GoNoGo,2020.1.3,59.95115535989248,
IN DIESEM BLOCK KÖNNEN SIE EINFACH ENTSPANNT AN DIE AUFGABE HERANGEHEN. SIE SOLLEN SICH NICHT VERAUSGABEN.,100,Go,go,4,1,0,0,0,0,,,,,2,0,6,1,,,,,,,,,,,,1,448.63038547760516,None,448.63038547760516,None,,,,101,111,447.82922973030145,448.3296560616218,448.3129750283333,448.4130594778144,4,1,0.2721186901726469,448.3129750283333,None,448.4130594778144,None,448.3129750283333,None,False,None,None,None,None,None,None,None,None,,,,,,,,,,,,,,,,,,,,,,,,,,,,AH17AR05b,1,0xC010,G:\Experimente\CoScience\Tasks\Logfiles\,2021_Oct_12_1635,GoNoGo,2020.1.3,59.95115535989248,
IN DIESEM BLOCK KÖNNEN SIE EINFACH ENTSPANNT AN DIE AUFGABE HERANGEHEN. SIE SOLLEN SICH NICHT VERAUSGABEN.,100,Go,go,4,1,0,0,0,0,,,,,2,1,7,0,,,,,,,,,,,,1,450.4819615032902,None,450.4819615032902,None,,,,101,111,449.63076382295185,450.1311886957301,450.1145088292724,450.2145924036304,4,1,0.3295878019380325,450.1145088292724,None,450.2145924036304,None,450.1145088292724,None,False,None,None,None,None,None,None,None,None,,,,,,,,,,,,,,,,,,,,,,,,,,,,AH17AR05b,1,0xC010,G:\Experimente\CoScience\Tasks\Logfiles\,2021_Oct_12_1635,GoNoGo,2020.1.3,59.95115535989248,
IN DIESEM BLOCK KÖNNEN SIE EINFACH ENTSPANNT AN DIE AUFGABE HERANGEHEN. SIE SOLLEN SICH NICHT VERAUSGABEN.,100,NoGo,nogo,None,2,0,0,0,0,,,,,2,2,8,2,,,,,,,,,,,,1,452.1834123132903,None,452.1834123132903,None,,,,102,120,451.4823442242523,451.9827655965346,451.96608543837283,452.0661693044385,4,0,0.17594283688958967,451.96608543837283,None,452.0661693044385,None,451.96608543837283,None,False,None,None,None,None,None,None,None,None,,,,,,,,,,,,,,,,,,,,,,,,,,,,AH17AR05b,1,0xC010,G:\Experimente\CoScience\Tasks\Logfiles\,2021_Oct_12_1635,GoNoGo,2020.1.3,59.95115535989248,
IN DIESEM BLOCK KÖNNEN SIE EINFACH ENTSPANNT AN DIE AUFGABE HERANGEHEN. SIE SOLLEN SICH NICHT VERAUSGABEN.,100,Go,go,4,1,0,0,0,0,,,,,3,0,9,1,,,,,,,,,,,,1,453.9015421146214,None,453.9015421146214,None,,,,101,111,453.18379240888316,453.68421465628853,453.66753333129236,453.76762449005764,4,1,0.18545922869452625,453.66753333129236,None,453.76762449005764,None,453.66753333129236,None,False,None,None,None,None,None,None,None,None,,,,,,,,,,,,,,,,,,,,,,,,,,,,AH17AR05b,1,0xC010,G:\Experimente\CoScience\Tasks\Logfiles\,2021_Oct_12_1635,GoNoGo,2020.1.3,59.95115535989248,
IN DIESEM BLOCK KÖNNEN SIE EINFACH ENTSPANNT AN DIE AUFGABE HERANGEHEN. SIE SOLLEN SICH NICHT VERAUSGABEN.,100,Go,go,4,1,0,0,0,0,,,,,3,1,10,0,,,,,,,,,,,,1,455.6530304820335,None,455.6530304820335,None,,,,101,111,454.9019236687527,455.40234241566577,455.38568851122545,455.48575487480775,4,1,0.2332456750664278,455.38568851122545,None,455.48575487480775,None,455.38568851122545,None,False,None,None,None,None,None,None,None,None,,,,,,,,,,,,,,,,,,,,,,,,,,,,AH17AR05b,1,0xC010,G:\Experimente\CoScience\Tasks\Logfiles\,2021_Oct_12_1635,GoNoGo,2020.1.3,59.95115535989248,
IN DIESEM BLOCK KÖNNEN SIE EINFACH ENTSPANNT AN DIE AUFGABE HERANGEHEN. SIE SOLLEN SICH NICHT VERAUSGABEN.,100,Go,go,4,1,0,0,0,0,,,,,3,2,11,0,,,,,,,,,,,,1,457.42120921739115,None,457.42120921739115,None,,,,101,111,456.6534117444571,457.1538342835738,457.1371541254084,457.2372382831818,4,1,0.2477639848475519,457.1371541254084,None,457.2372382831818,None,457.1371541254084,None,False,None,None,None,None,None,None,None,None,,,,,,,,,,,,,,,,,,,,,,,,,,,,AH17AR05b,1,0xC010,G:\Experimente\CoScience\Tasks\Logfiles\,2021_Oct_12_1635,GoNoGo,2020.1.3,59.95115535989248,
IN DIESEM BLOCK KÖNNEN SIE EINFACH ENTSPANNT AN DIE AUFGABE HERANGEHEN. SIE SOLLEN SICH NICHT VERAUSGABEN.,100,Go,go,4,1,0,0,0,0,,,,,4,0,12,0,,,,,,,,,,,,1,459.22273689246504,None,459.22273689246504,None,,,,101,111,458.42158347882287,458.9220060179359,458.90532673489724,459.0054111843783,4,1,0.27554246758518275,458.90532673489724,None,459.0054111843783,None,458.90532673489724,None,False,None,None,None,None,None,None,None,None,,,,,,,,,,,,,,,,,,,,,,,,,,,,AH17AR05b,1,0xC010,G:\Experimente\CoScience\Tasks\Logfiles\,2021_Oct_12_1635,GoNoGo,2020.1.3,59.95115535989248,
IN DIESEM BLOCK KÖNNEN SIE EINFACH ENTSPANNT AN DIE AUFGABE HERANGEHEN. SIE SOLLEN SICH NICHT VERAUSGABEN.,100,Go,go,4,1,0,0,0,0,,,,,4,1,13,0,,,,,,,,,,,,1,461.00757332446665,None,461.00757332446665,None,,,,101,111,460.22311903001173,460.7235406940017,460.70685878559016,460.8069890332372,4,1,0.2559720660356106,460.70685878559016,None,460.8069890332372,None,460.70685878559016,None,False,None,None,None,None,None,None,None,None,,,,,,,,,,,,,,,,,,,,,,,,,,,,AH17AR05b,1,0xC010,G:\Experimente\CoScience\Tasks\Logfiles\,2021_Oct_12_1635,GoNoGo,2020.1.3,59.95115535989248,
IN DIESEM BLOCK KÖNNEN SIE EINFACH ENTSPANNT AN DIE AUFGABE HERANGEHEN. SIE SOLLEN SICH NICHT VERAUSGABEN.,100,Go,go,4,1,0,0,0,0,,,,,4,2,14,0,,,,,,,,,,,,1,462.82580332751604,None,462.82580332751604,None,,,,101,111,462.007985216238,462.50839287824056,462.49171213665977,462.59179658614084,4,1,0.29711398638028186,462.49171213665977,None,462.59179658614084,None,462.49171213665977,None,False,None,None,None,None,None,None,None,None,,,,,,,,,,,,,,,,,,,,,,,,,,,,AH17AR05b,1,0xC010,G:\Experimente\CoScience\Tasks\Logfiles\,2021_Oct_12_1635,GoNoGo,2020.1.3,59.95115535989248,
IN DIESEM BLOCK KÖNNEN SIE EINFACH ENTSPANNT AN DIE AUFGABE HERANGEHEN. SIE SOLLEN SICH NICHT VERAUSGABEN.,100,Go,go,4,1,0,0,0,0,,,,,5,0,15,1,,,,,,,,,,,,1,464.52725034530886,None,464.52725034530886,None,,,,101,111,463.826180797736,464.3266074207604,464.30992667918326,464.41000937841454,4,1,0.1828256883964059,464.30992667918326,None,464.41000937841454,None,464.30992667918326,None,False,None,None,None,None,None,None,None,None,,,,,,,,,,,,,,,,,,,,,,,,,,,,AH17AR05b,1,0xC010,G:\Experimente\CoScience\Tasks\Logfiles\,2021_Oct_12_1635,GoNoGo,2020.1.3,59.95115535989248,
IN DIESEM BLOCK KÖNNEN SIE EINFACH ENTSPANNT AN DIE AUFGABE HERANGEHEN. SIE SOLLEN SICH NICHT VERAUSGABEN.,100,Go,go,4,1,0,0,0,0,,,,,5,1,16,1,,,,,,,,,,,,1,466.29541070306004,None,466.29541070306004,None,,,,101,111,465.5276321911515,466.02805589709897,466.0113745721028,466.11145989670695,4,1,0.23440754823968746,466.0113745721028,None,466.11145989670695,None,466.0113745721028,None,False,None,None,None,None,None,None,None,None,,,,,,,,,,,,,,,,,,,,,,,,,,,,AH17AR05b,1,0xC010,G:\Experimente\CoScience\Tasks\Logfiles\,2021_Oct_12_1635,GoNoGo,2020.1.3,59.95115535989248,
IN DIESEM BLOCK KÖNNEN SIE EINFACH ENTSPANNT AN DIE AUFGABE HERANGEHEN. SIE SOLLEN SICH NICHT VERAUSGABEN.,100,Go,go,4,1,0,0,0,0,,,,,5,2,17,0,,,,,,,,,,,,1,467.99685422036055,None,467.99685422036055,None,,,,101,111,467.2958053840557,467.7962279231688,467.7795465981726,467.87963279790347,4,1,0.17914666643264354,467.7795465981726,None,467.87963279790347,None,467.7795465981726,None,False,None,None,None,None,None,None,None,None,,,,,,,,,,,,,,,,,,,,,,,,,,,,AH17AR05b,1,0xC010,G:\Experimente\CoScience\Tasks\Logfiles\,2021_Oct_12_1635,GoNoGo,2020.1.3,59.95115535989248,
IN DIESEM BLOCK KÖNNEN SIE EINFACH ENTSPANNT AN DIE AUFGABE HERANGEHEN. SIE SOLLEN SICH NICHT VERAUSGABEN.,100,Go,go,4,1,0,0,0,0,,,,,6,0,18,1,,,,,,,,,,,,1,469.69831990747116,None,469.69831990747116,None,,,,101,111,468.9972806975311,469.4976763995073,469.48099419938444,469.5810803991153,4,1,0.18265095527021913,469.48099419938444,None,469.5810803991153,None,469.48099419938444,None,False,None,None,None,None,None,None,None,None,,,,,,,,,,,,,,,,,,,,,,,,,,,,AH17AR05b,1,0xC010,G:\Experimente\CoScience\Tasks\Logfiles\,2021_Oct_12_1635,GoNoGo,2020.1.3,59.95115535989248,
IN DIESEM BLOCK KÖNNEN SIE EINFACH ENTSPANNT AN DIE AUFGABE HERANGEHEN. SIE SOLLEN SICH NICHT VERAUSGABEN.,100,Go,go,4,1,0,0,0,0,,,,,6,1,19,0,,,,,,,,,,,,1,471.4998642099017,None,471.4998642099017,None,,,,101,111,470.6987011698948,471.19912633438435,471.1824415088886,471.28252829203484,4,1,0.2821686160059471,471.1824415088886,None,471.28252829203484,None,471.1824415088886,None,False,None,None,None,None,None,None,None,None,,,,,,,,,,,,,,,,,,,,,,,,,,,,AH17AR05b,1,0xC010,G:\Experimente\CoScience\Tasks\Logfiles\,2021_Oct_12_1635,GoNoGo,2020.1.3,59.95115535989248,
IN DIESEM BLOCK KÖNNEN SIE EINFACH ENTSPANNT AN DIE AUFGABE HERANGEHEN. SIE SOLLEN SICH NICHT VERAUSGABEN.,100,NoGo,nogo,None,2,0,0,0,0,,,,,6,2,20,2,,,,,,,,,,,,0.9,473.68459708554656,None,473.68459708554656,None,,,,102,0,472.50023147034153,473.00065721824285,472.983984061073,473.08406180126985,None,1,,472.983984061073,None,473.08406180126985,None,472.983984061073,None,False,None,None,None,None,None,None,None,None,,,,,,,,,,,,,,,,,,,,,,,,,,,,AH17AR05b,1,0xC010,G:\Experimente\CoScience\Tasks\Logfiles\,2021_Oct_12_1635,GoNoGo,2020.1.3,59.95115535989248,
IN DIESEM BLOCK KÖNNEN SIE EINFACH ENTSPANNT AN DIE AUFGABE HERANGEHEN. SIE SOLLEN SICH NICHT VERAUSGABEN.,100,Go,go,4,1,0,0,0,0,,,,,7,0,21,1,,,,,,,,,,,,1,475.3030902092578,None,475.3030902092578,None,,,,101,111,474.58533933668514,475.0857656680055,475.0690843430093,475.16917083444787,4,1,0.19045968813588843,475.0690843430093,None,475.16917083444787,None,475.0690843430093,None,False,None,None,None,None,None,None,None,None,,,,,,,,,,,,,,,,,,,,,,,,,,,,AH17AR05b,1,0xC010,G:\Experimente\CoScience\Tasks\Logfiles\,2021_Oct_12_1635,GoNoGo,2020.1.3,59.95115535989248,
IN DIESEM BLOCK KÖNNEN SIE EINFACH ENTSPANNT AN DIE AUFGABE HERANGEHEN. SIE SOLLEN SICH NICHT VERAUSGABEN.,100,NoGo,nogo,None,2,0,0,0,0,,,,,7,1,22,2,,,,,,,,,,,,0.9,477.48783562834797,None,477.48783562834797,None,,,,102,0,476.3034717633891,476.8038773834378,476.787222020459,476.88730005236357,None,1,,476.787222020459,None,476.88730005236357,None,476.787222020459,None,False,None,None,None,None,None,None,None,None,,,,,,,,,,,,,,,,,,,,,,,,,,,,AH17AR05b,1,0xC010,G:\Experimente\CoScience\Tasks\Logfiles\,2021_Oct_12_1635,GoNoGo,2020.1.3,59.95115535989248,
IN DIESEM BLOCK KÖNNEN SIE EINFACH ENTSPANNT AN DIE AUFGABE HERANGEHEN. SIE SOLLEN SICH NICHT VERAUSGABEN.,100,Go,go,4,1,0,0,0,0,,,,,7,2,23,1,,,,,,,,,,,,1,479.0729672688976,None,479.0729672688976,None,,,,101,111,478.38857962973634,478.8890033356838,478.8723231775184,478.97240850212256,4,1,0.15613994402156095,478.8723231775184,None,478.97240850212256,None,478.8723231775184,None,False,None,None,None,None,None,None,None,None,,,,,,,,,,,,,,,,,,,,,,,,,,,,AH17AR05b,1,0xC010,G:\Experimente\CoScience\Tasks\Logfiles\,2021_Oct_12_1635,GoNoGo,2020.1.3,59.95115535989248,
IN DIESEM BLOCK KÖNNEN SIE EINFACH ENTSPANNT AN DIE AUFGABE HERANGEHEN. SIE SOLLEN SICH NICHT VERAUSGABEN.,100,NoGo,nogo,None,2,0,0,0,0,,,,,8,0,24,2,,,,,,,,,,,,1,480.8244582616826,None,480.8244582616826,None,,,,102,120,480.0733456142443,480.57377952997194,480.55709032885716,480.6571753617536,4,0,0.22433574430033332,480.55709032885716,None,480.6571753617536,None,480.55709032885716,None,False,None,None,None,None,None,None,None,None,,,,,,,,,,,,,,,,,,,,,,,,,,,,AH17AR05b,1,0xC010,G:\Experimente\CoScience\Tasks\Logfiles\,2021_Oct_12_1635,GoNoGo,2020.1.3,59.95115535989248,
IN DIESEM BLOCK KÖNNEN SIE EINFACH ENTSPANNT AN DIE AUFGABE HERANGEHEN. SIE SOLLEN SICH NICHT VERAUSGABEN.,100,NoGo,nogo,None,2,0,0,0,0,,,,,8,1,25,2,,,,,,,,,,,,1,482.50922599644036,None,482.50922599644036,None,,,,102,120,481.8248657778313,482.3252626466383,482.3085816133498,482.4086654794155,4,0,0.16682608511837316,482.3085816133498,None,482.4086654794155,None,482.3085816133498,None,False,None,None,None,None,None,None,None,None,,,,,,,,,,,,,,,,,,,,,,,,,,,,AH17AR05b,1,0xC010,G:\Experimente\CoScience\Tasks\Logfiles\,2021_Oct_12_1635,GoNoGo,2020.1.3,59.95115535989248,
IN DIESEM BLOCK KÖNNEN SIE EINFACH ENTSPANNT AN DIE AUFGABE HERANGEHEN. SIE SOLLEN SICH NICHT VERAUSGABEN.,100,NoGo,nogo,None,2,0,0,0,0,,,,,8,2,26,2,,,,,,,,,,,,1,484.1768751358286,None,484.1768751358286,None,,,,102,120,483.5096043417834,484.01002979797704,483.99334876468856,484.09343408929635,4,0,0.15299095559021225,483.99334876468856,None,484.09343408929635,None,483.99334876468856,None,False,None,None,None,None,None,None,None,None,,,,,,,,,,,,,,,,,,,,,,,,,,,,AH17AR05b,1,0xC010,G:\Experimente\CoScience\Tasks\Logfiles\,2021_Oct_12_1635,GoNoGo,2020.1.3,59.95115535989248,
IN DIESEM BLOCK KÖNNEN SIE EINFACH ENTSPANNT AN DIE AUFGABE HERANGEHEN. SIE SOLLEN SICH NICHT VERAUSGABEN.,100,Go,go,4,1,0,0,0,0,,,,,9,0,27,1,,,,,,,,,,,,1,485.96214912990763,None,485.96214912990763,None,,,,101,111,485.17769279349886,485.6781173745694,485.66143634128093,485.7615204990543,4,1,0.25386243339744397,485.66143634128093,None,485.7615204990543,None,485.66143634128093,None,False,None,None,None,None,None,None,None,None,,,,,,,,,,,,,,,,,,,,,,,,,,,,AH17AR05b,1,0xC010,G:\Experimente\CoScience\Tasks\Logfiles\,2021_Oct_12_1635,GoNoGo,2020.1.3,59.95115535989248,
IN DIESEM BLOCK KÖNNEN SIE EINFACH ENTSPANNT AN DIE AUFGABE HERANGEHEN. SIE SOLLEN SICH NICHT VERAUSGABEN.,100,NoGo,nogo,None,2,0,0,0,0,,,,,9,1,28,2,,,,,,,,,,,,1,487.66314895925825,None,487.66314895925825,None,,,,102,120,486.9625438109033,487.46296955880825,487.44628735868537,487.5463741418316,4,0,0.1989763964411395,487.44628735868537,None,487.5463741418316,None,487.44628735868537,None,False,None,None,None,None,None,None,None,None,,,,,,,,,,,,,,,,,,,,,,,,,,,,AH17AR05b,1,0xC010,G:\Experimente\CoScience\Tasks\Logfiles\,2021_Oct_12_1635,GoNoGo,2020.1.3,59.95115535989248,
IN DIESEM BLOCK KÖNNEN SIE EINFACH ENTSPANNT AN DIE AUFGABE HERANGEHEN. SIE SOLLEN SICH NICHT VERAUSGABEN.,100,NoGo,nogo,None,2,0,0,0,0,,,,,9,2,29,2,,,,,,,,,,,,0.9,489.84834360875175,None,489.84834360875175,None,,,,102,0,488.6639922872382,489.1644174517278,489.1477370018547,489.24782232645885,None,1,,489.1477370018547,None,489.24782232645885,None,489.1477370018547,None,False,None,None,None,None,None,None,None,None,,,,,,,,,,,,,,,,,,,,,,,,,,,,AH17AR05b,1,0xC010,G:\Experimente\CoScience\Tasks\Logfiles\,2021_Oct_12_1635,GoNoGo,2020.1.3,59.95115535989248,
IN DIESEM BLOCK KÖNNEN SIE EINFACH ENTSPANNT AN DIE AUFGABE HERANGEHEN. SIE SOLLEN SICH NICHT VERAUSGABEN.,100,Go,go,4,1,0,0,0,0,,,,,10,0,30,1,,,,,,,,,,,,1,491.6169782837933,None,491.6169782837933,None,,,,101,111,490.74910015358546,491.24952619319447,491.232845159906,491.3329296093907,4,1,0.3473659492119623,491.232845159906,None,491.3329296093907,None,491.232845159906,None,False,None,None,None,None,None,None,None,None,,,,,,,,,,,,,,,,,,,,,,,,,,,,AH17AR05b,1,0xC010,G:\Experimente\CoScience\Tasks\Logfiles\,2021_Oct_12_1635,GoNoGo,2020.1.3,59.95115535989248,
IN DIESEM BLOCK KÖNNEN SIE EINFACH ENTSPANNT AN DIE AUFGABE HERANGEHEN. SIE SOLLEN SICH NICHT VERAUSGABEN.,100,NoGo,nogo,None,2,0,0,0,0,,,,,10,1,31,2,,,,,,,,,,,,0.9,493.801722244345,None,493.801722244345,None,,,,102,0,492.6173601296359,493.1177835438757,493.1011025105872,493.2011857932339,None,1,,493.1011025105872,None,493.2011857932339,None,493.1011025105872,None,False,None,None,None,None,None,None,None,None,,,,,,,,,,,,,,,,,,,,,,,,,,,,AH17AR05b,1,0xC010,G:\Experimente\CoScience\Tasks\Logfiles\,2021_Oct_12_1635,GoNoGo,2020.1.3,59.95115535989248,
IN DIESEM BLOCK KÖNNEN SIE EINFACH ENTSPANNT AN DIE AUFGABE HERANGEHEN. SIE SOLLEN SICH NICHT VERAUSGABEN.,100,Go,go,4,1,0,0,0,0,,,,,10,2,32,0,,,,,,,,,,,,1,495.5869825281479,None,495.5869825281479,None,,,,101,111,494.70246507889897,495.20289053509623,495.18621008522314,495.28633391529,4,1,0.3629011532648292,495.18621008522314,None,495.28633391529,None,495.18621008522314,None,False,None,None,None,None,None,None,None,None,,,,,,,,,,,,,,,,,,,,,,,,,,,,AH17AR05b,1,0xC010,G:\Experimente\CoScience\Tasks\Logfiles\,2021_Oct_12_1635,GoNoGo,2020.1.3,59.95115535989248,
IN DIESEM BLOCK KÖNNEN SIE EINFACH ENTSPANNT AN DIE AUFGABE HERANGEHEN. SIE SOLLEN SICH NICHT VERAUSGABEN.,100,NoGo,nogo,None,2,0,0,0,0,,,,,11,0,33,2,,,,,,,,,,,,0.9,497.77177053661217,None,497.77177053661217,None,,,,102,0,496.5874034628687,497.0878277522279,497.0711481774815,497.1712340855047,None,1,,497.0711481774815,None,497.1712340855047,None,497.0711481774815,None,False,None,None,None,None,None,None,None,None,,,,,,,,,,,,,,,,,,,,,,,,,,,,AH17AR05b,1,0xC010,G:\Experimente\CoScience\Tasks\Logfiles\,2021_Oct_12_1635,GoNoGo,2020.1.3,59.95115535989248,
IN DIESEM BLOCK KÖNNEN SIE EINFACH ENTSPANNT AN DIE AUFGABE HERANGEHEN. SIE SOLLEN SICH NICHT VERAUSGABEN.,100,NoGo,nogo,None,2,0,0,0,0,,,,,11,1,34,2,,,,,,,,,,,,0.9,499.85687373562905,None,499.85687373562905,None,,,,102,0,498.67252328924224,499.1729385356557,499.15625633553645,499.25634049330984,None,1,,499.15625633553645,None,499.25634049330984,None,499.15625633553645,None,False,None,None,None,None,None,None,None,None,,,,,,,,,,,,,,,,,,,,,,,,,,,,AH17AR05b,1,0xC010,G:\Experimente\CoScience\Tasks\Logfiles\,2021_Oct_12_1635,GoNoGo,2020.1.3,59.95115535989248,
IN DIESEM BLOCK KÖNNEN SIE EINFACH ENTSPANNT AN DIE AUFGABE HERANGEHEN. SIE SOLLEN SICH NICHT VERAUSGABEN.,100,Go,go,4,1,0,0,0,0,,,,,11,2,35,0,,,,,,,,,,,,1,501.5420968266553,None,501.5420968266553,None,,,,101,111,500.7576261965514,501.25804552687623,501.24136449358775,501.3414410669502,4,1,0.2616172002744861,501.24136449358775,None,501.3414410669502,None,501.24136449358775,None,False,None,None,None,None,None,None,None,None,,,,,,,,,,,,,,,,,,,,,,,,,,,,AH17AR05b,1,0xC010,G:\Experimente\CoScience\Tasks\Logfiles\,2021_Oct_12_1635,GoNoGo,2020.1.3,59.95115535989248,
IN DIESEM BLOCK KÖNNEN SIE EINFACH ENTSPANNT AN DIE AUFGABE HERANGEHEN. SIE SOLLEN SICH NICHT VERAUSGABEN.,100,NoGo,nogo,None,2,0,0,0,0,,,,,12,0,36,2,,,,,,,,,,,,0.9,503.72684662136453,None,503.72684662136453,None,,,,102,0,502.5424728383332,503.04289916965354,503.02621638611527,503.12630200243075,None,1,,503.02621638611527,None,503.12630200243075,None,503.02621638611527,None,False,None,None,None,None,None,None,None,None,,,,,,,,,,,,,,,,,,,,,,,,,,,,AH17AR05b,1,0xC010,G:\Experimente\CoScience\Tasks\Logfiles\,2021_Oct_12_1635,GoNoGo,2020.1.3,59.95115535989248,
IN DIESEM BLOCK KÖNNEN SIE EINFACH ENTSPANNT AN DIE AUFGABE HERANGEHEN. SIE SOLLEN SICH NICHT VERAUSGABEN.,100,Go,go,4,1,0,0,0,0,,,,,12,1,37,0,,,,,,,,,,,,1,505.42873761881856,None,505.42873761881856,None,,,,101,111,504.62758012126505,505.12800616087407,505.1113254192933,505.2114072434015,4,1,0.2795604543061927,505.1113254192933,None,505.2114072434015,None,505.1113254192933,None,False,None,None,None,None,None,None,None,None,,,,,,,,,,,,,,,,,,,,,,,,,,,,AH17AR05b,1,0xC010,G:\Experimente\CoScience\Tasks\Logfiles\,2021_Oct_12_1635,GoNoGo,2020.1.3,59.95115535989248,
IN DIESEM BLOCK KÖNNEN SIE EINFACH ENTSPANNT AN DIE AUFGABE HERANGEHEN. SIE SOLLEN SICH NICHT VERAUSGABEN.,100,Go,go,4,1,0,0,0,0,,,,,12,2,38,1,,,,,,,,,,,,1,507.26362940242325,None,507.26362940242325,None,,,,101,111,506.4291180061191,506.9295393784014,506.91287030514286,507.0129425028863,4,1,0.3069757605189807,506.91287030514286,None,507.0129425028863,None,506.91287030514286,None,False,None,None,None,None,None,None,None,None,,,,,,,,,,,,,,,,,,,,,,,,,,,,AH17AR05b,1,0xC010,G:\Experimente\CoScience\Tasks\Logfiles\,2021_Oct_12_1635,GoNoGo,2020.1.3,59.95115535989248,
IN DIESEM BLOCK KÖNNEN SIE EINFACH ENTSPANNT AN DIE AUFGABE HERANGEHEN. SIE SOLLEN SICH NICHT VERAUSGABEN.,100,Go,go,4,1,0,0,0,0,,,,,13,0,39,1,,,,,,,,,,,,1,509.0818451117775,None,509.0818451117775,None,,,,101,111,508.2640342931991,508.764434662502,508.74775333750586,508.8478398289444,4,1,0.2950434426238644,508.74775333750586,None,508.8478398289444,None,508.74775333750586,None,False,None,None,None,None,None,None,None,None,,,,,,,,,,,,,,,,,,,,,,,,,,,,AH17AR05b,1,0xC010,G:\Experimente\CoScience\Tasks\Logfiles\,2021_Oct_12_1635,GoNoGo,2020.1.3,59.95115535989248,
IN DIESEM BLOCK KÖNNEN SIE EINFACH ENTSPANNT AN DIE AUFGABE HERANGEHEN. SIE SOLLEN SICH NICHT VERAUSGABEN.,100,Go,go,4,1,0,0,0,0,,,,,13,1,40,1,,,,,,,,,,,,1,510.9496526486364,None,510.9496526486364,None,,,,101,111,510.0822266659088,510.5826492050219,510.5659672966103,510.6660429948497,4,1,0.36579927277125535,510.5659672966103,None,510.6660429948497,None,510.5659672966103,None,False,None,None,None,None,None,None,None,None,,,,,,,,,,,,,,,,,,,,,,,,,,,,AH17AR05b,1,0xC010,G:\Experimente\CoScience\Tasks\Logfiles\,2021_Oct_12_1635,GoNoGo,2020.1.3,59.95115535989248,
IN DIESEM BLOCK KÖNNEN SIE EINFACH ENTSPANNT AN DIE AUFGABE HERANGEHEN. SIE SOLLEN SICH NICHT VERAUSGABEN.,100,Go,go,4,1,0,0,0,0,,,,,13,2,41,1,,,,,,,,,,,,1,512.8679513489333,None,512.8679513489333,None,,,,101,111,511.9504848917095,512.4509062639918,512.4342249389956,512.5343105553111,4,1,0.4045270172719029,512.4342249389956,None,512.5343105553111,None,512.4342249389956,None,False,None,None,None,None,None,None,None,None,,,,,,,,,,,,,,,,,,,,,,,,,,,,AH17AR05b,1,0xC010,G:\Experimente\CoScience\Tasks\Logfiles\,2021_Oct_12_1635,GoNoGo,2020.1.3,59.95115535989248,
IN DIESEM BLOCK KÖNNEN SIE EINFACH ENTSPANNT AN DIE AUFGABE HERANGEHEN. SIE SOLLEN SICH NICHT VERAUSGABEN.,100,Go,go,4,1,0,0,0,0,,,,,14,0,42,1,,,,,,,,,,,,1,514.7032979053911,None,514.7032979053911,None,,,,101,111,513.8687792163837,514.3692099233267,514.3525320988265,514.4526104224387,4,1,0.3061519769798906,514.3525320988265,None,514.4526104224387,None,514.3525320988265,None,False,None,None,None,None,None,None,None,None,,,,,,,,,,,,,,,,,,,,,,,,,,,,AH17AR05b,1,0xC010,G:\Experimente\CoScience\Tasks\Logfiles\,2021_Oct_12_1635,GoNoGo,2020.1.3,59.95115535989248,
IN DIESEM BLOCK KÖNNEN SIE EINFACH ENTSPANNT AN DIE AUFGABE HERANGEHEN. SIE SOLLEN SICH NICHT VERAUSGABEN.,100,Go,go,4,1,0,0,0,0,,,,,14,1,43,1,,,,,,,,,,,,1,516.4548011499137,None,516.4548011499137,None,,,,101,111,515.7036782926916,516.2040999566816,516.1874197985162,516.287505123124,4,1,0.23222965591412503,516.1874197985162,None,516.287505123124,None,516.1874197985162,None,False,None,None,None,None,None,None,None,None,,,,,,,,,,,,,,,,,,,,,,,,,,,,AH17AR05b,1,0xC010,G:\Experimente\CoScience\Tasks\Logfiles\,2021_Oct_12_1635,GoNoGo,2020.1.3,59.95115535989248,
IN DIESEM BLOCK KÖNNEN SIE EINFACH ENTSPANNT AN DIE AUFGABE HERANGEHEN. SIE SOLLEN SICH NICHT VERAUSGABEN.,100,NoGo,nogo,None,2,0,0,0,0,,,,,14,2,44,2,,,,,,,,,,,,0.9,518.6395369426391,None,518.6395369426391,None,,,,102,0,517.4551666601037,517.9555912411743,517.9389116664279,518.038996991032,None,1,,517.9389116664279,None,518.038996991032,None,517.9389116664279,None,False,None,None,None,None,None,None,None,None,,,,,,,,,,,,,,,,,,,,,,,,,,,,AH17AR05b,1,0xC010,G:\Experimente\CoScience\Tasks\Logfiles\,2021_Oct_12_1635,GoNoGo,2020.1.3,59.95115535989248,
IN DIESEM BLOCK KÖNNEN SIE EINFACH ENTSPANNT AN DIE AUFGABE HERANGEHEN. SIE SOLLEN SICH NICHT VERAUSGABEN.,100,NoGo,nogo,None,2,0,0,0,0,,,,,15,0,45,2,,,,,,,,,,,,0.9,520.7246448089827,None,520.7246448089827,None,,,,102,0,519.5402771518202,520.0406996909369,520.0240171991063,520.1241054407947,None,1,,520.0240171991063,None,520.1241054407947,None,520.0240171991063,None,False,None,None,None,None,None,None,None,None,,,,,,,,,,,,,,,,,,,,,,,,,,,,AH17AR05b,1,0xC010,G:\Experimente\CoScience\Tasks\Logfiles\,2021_Oct_12_1635,GoNoGo,2020.1.3,59.95115535989248,
IN DIESEM BLOCK KÖNNEN SIE EINFACH ENTSPANNT AN DIE AUFGABE HERANGEHEN. SIE SOLLEN SICH NICHT VERAUSGABEN.,100,NoGo,nogo,None,2,0,0,0,0,,,,,15,1,46,2,,,,,,,,,,,,0.9,522.8097482997073,None,522.8097482997073,None,,,,102,0,521.6253864767059,522.1258069738651,522.1091273991187,522.20921009835,None,1,,522.1091273991187,None,522.20921009835,None,522.1091273991187,None,False,None,None,None,None,None,None,None,None,,,,,,,,,,,,,,,,,,,,,,,,,,,,AH17AR05b,1,0xC010,G:\Experimente\CoScience\Tasks\Logfiles\,2021_Oct_12_1635,GoNoGo,2020.1.3,59.95115535989248,
IN DIESEM BLOCK KÖNNEN SIE EINFACH ENTSPANNT AN DIE AUFGABE HERANGEHEN. SIE SOLLEN SICH NICHT VERAUSGABEN.,100,Go,go,4,1,0,0,0,0,,,,,15,2,47,1,,,,,,,,,,,,1,524.5283098289583,None,524.5283098289583,None,,,,101,111,523.7104934679264,524.2109142567933,524.1942352654623,524.294319131528,4,1,0.2972475886672328,524.1942352654623,None,524.294319131528,None,524.1942352654623,None,False,None,None,None,None,None,None,None,None,,,,,,,,,,,,,,,,,,,,,,,,,,,,AH17AR05b,1,0xC010,G:\Experimente\CoScience\Tasks\Logfiles\,2021_Oct_12_1635,GoNoGo,2020.1.3,59.95115535989248,
IN DIESEM BLOCK KÖNNEN SIE EINFACH ENTSPANNT AN DIE AUFGABE HERANGEHEN. SIE SOLLEN SICH NICHT VERAUSGABEN.,100,Go,go,4,1,0,0,0,0,,,,,16,0,48,0,,,,,,,,,,,,1,526.3465255383126,None,526.3465255383126,None,,,,101,111,525.5287077187422,526.0291279241901,526.0124486411514,526.1125342574633,4,1,0.2939967941274517,526.0124486411514,None,526.1125342574633,None,526.0124486411514,None,False,None,None,None,None,None,None,None,None,,,,,,,,,,,,,,,,,,,,,,,,,,,,AH17AR05b,1,0xC010,G:\Experimente\CoScience\Tasks\Logfiles\,2021_Oct_12_1635,GoNoGo,2020.1.3,59.95115535989248,
IN DIESEM BLOCK KÖNNEN SIE EINFACH ENTSPANNT AN DIE AUFGABE HERANGEHEN. SIE SOLLEN SICH NICHT VERAUSGABEN.,100,Go,go,4,1,0,0,0,0,,,,,16,1,49,1,,,,,,,,,,,,1,528.148055547048,None,528.148055547048,None,,,,101,111,527.3469219695544,527.8473453837942,527.8306628919636,527.930752008775,4,1,0.2787530064160819,527.8306628919636,None,527.930752008775,None,527.8306628919636,None,False,None,None,None,None,None,None,None,None,,,,,,,,,,,,,,,,,,,,,,,,,,,,AH17AR05b,1,0xC010,G:\Experimente\CoScience\Tasks\Logfiles\,2021_Oct_12_1635,GoNoGo,2020.1.3,59.95115535989248,
IN DIESEM BLOCK KÖNNEN SIE EINFACH ENTSPANNT AN DIE AUFGABE HERANGEHEN. SIE SOLLEN SICH NICHT VERAUSGABEN.,100,NoGo,nogo,None,2,0,0,0,0,,,,,16,2,50,2,,,,,,,,,,,,0.9,530.3328143847066,None,530.3328143847066,None,,,,102,0,529.1484566456202,529.6488698500762,529.6321964011986,529.7322828926372,None,1,,529.6321964011986,None,529.7322828926372,None,529.6321964011986,None,False,None,None,None,None,None,None,None,None,,,,,,,,,,,,,,,,,,,,,,,,,,,,AH17AR05b,1,0xC010,G:\Experimente\CoScience\Tasks\Logfiles\,2021_Oct_12_1635,GoNoGo,2020.1.3,59.95115535989248,
IN DIESEM BLOCK KÖNNEN SIE EINFACH ENTSPANNT AN DIE AUFGABE HERANGEHEN. SIE SOLLEN SICH NICHT VERAUSGABEN.,100,NoGo,nogo,None,2,0,0,0,0,,,,,17,0,51,2,,,,,,,,,,,,0.9,532.4179342110838,None,532.4179342110838,None,,,,102,0,531.2335662622136,531.7340135965133,531.7173051426689,531.8173898838577,None,1,,531.7173051426689,None,531.8173898838577,None,531.7173051426689,None,False,None,None,None,None,None,None,None,None,,,,,,,,,,,,,,,,,,,,,,,,,,,,AH17AR05b,1,0xC010,G:\Experimente\CoScience\Tasks\Logfiles\,2021_Oct_12_1635,GoNoGo,2020.1.3,59.95115535989248,
IN DIESEM BLOCK KÖNNEN SIE EINFACH ENTSPANNT AN DIE AUFGABE HERANGEHEN. SIE SOLLEN SICH NICHT VERAUSGABEN.,100,Go,go,4,1,0,0,0,0,,,,,17,1,52,1,,,,,,,,,,,,1,534.0864640170839,None,534.0864640170839,None,,,,101,111,533.318672378311,533.8191042520848,533.8024153426777,533.9024989170357,4,1,0.2428694154295954,533.8024153426777,None,533.9024989170357,None,533.8024153426777,None,False,None,None,None,None,None,None,None,None,,,,,,,,,,,,,,,,,,,,,,,,,,,,AH17AR05b,1,0xC010,G:\Experimente\CoScience\Tasks\Logfiles\,2021_Oct_12_1635,GoNoGo,2020.1.3,59.95115535989248,
IN DIESEM BLOCK KÖNNEN SIE EINFACH ENTSPANNT AN DIE AUFGABE HERANGEHEN. SIE SOLLEN SICH NICHT VERAUSGABEN.,100,NoGo,nogo,None,2,0,0,0,0,,,,,17,2,53,2,,,,,,,,,,,,0.9,536.27121293667,None,536.27121293667,None,,,,102,0,535.0868435292614,535.5872666517898,535.5705853267937,535.6706700679824,None,1,,535.5705853267937,None,535.6706700679824,None,535.5705853267937,None,False,None,None,None,None,None,None,None,None,,,,,,,,,,,,,,,,,,,,,,,,,,,,AH17AR05b,1,0xC010,G:\Experimente\CoScience\Tasks\Logfiles\,2021_Oct_12_1635,GoNoGo,2020.1.3,59.95115535989248,
IN DIESEM BLOCK KÖNNEN SIE EINFACH ENTSPANNT AN DIE AUFGABE HERANGEHEN. SIE SOLLEN SICH NICHT VERAUSGABEN.,100,Go,go,4,1,0,0,0,0,,,,,18,0,54,1,,,,,,,,,,,,1,537.9230625845048,None,537.9230625845048,None,,,,101,111,537.1719496453552,537.6723736430104,537.6556931931373,537.7557805597025,4,1,0.23051091207162244,537.6556931931373,None,537.7557805597025,None,537.6556931931373,None,False,None,None,None,None,None,None,None,None,,,,,,,,,,,,,,,,,,,,,,,,,,,,AH17AR05b,1,0xC010,G:\Experimente\CoScience\Tasks\Logfiles\,2021_Oct_12_1635,GoNoGo,2020.1.3,59.95115535989248,
IN DIESEM BLOCK KÖNNEN SIE EINFACH ENTSPANNT AN DIE AUFGABE HERANGEHEN. SIE SOLLEN SICH NICHT VERAUSGABEN.,100,Go,go,4,1,0,0,0,0,,,,,18,1,55,0,,,,,,,,,,,,1,539.7579552432326,None,539.7579552432326,None,,,,101,111,538.9234391796017,539.4238643440876,539.4071844776299,539.5072902218017,4,1,0.308973960680305,539.4071844776299,None,539.5072902218017,None,539.4071844776299,None,False,None,None,None,None,None,None,None,None,,,,,,,,,,,,,,,,,,,,,,,,,,,,AH17AR05b,1,0xC010,G:\Experimente\CoScience\Tasks\Logfiles\,2021_Oct_12_1635,GoNoGo,2020.1.3,59.95115535989248,
IN DIESEM BLOCK KÖNNEN SIE EINFACH ENTSPANNT AN DIE AUFGABE HERANGEHEN. SIE SOLLEN SICH NICHT VERAUSGABEN.,100,Go,go,4,1,0,0,0,0,,,,,18,2,56,0,,,,,,,,,,,,1,541.5428167621285,None,541.5428167621285,None,,,,101,111,540.758393388729,541.258759919896,541.2420785948998,541.3421639195076,4,1,0.2600446021606331,541.2420785948998,None,541.3421639195076,None,541.2420785948998,None,False,None,None,None,None,None,None,None,None,,,,,,,,,,,,,,,,,,,,,,,,,,,,AH17AR05b,1,0xC010,G:\Experimente\CoScience\Tasks\Logfiles\,2021_Oct_12_1635,GoNoGo,2020.1.3,59.95115535989248,
IN DIESEM BLOCK KÖNNEN SIE EINFACH ENTSPANNT AN DIE AUFGABE HERANGEHEN. SIE SOLLEN SICH NICHT VERAUSGABEN.,100,Go,go,4,1,0,0,0,0,,,,,19,0,57,1,,,,,,,,,,,,1,543.2776191372141,None,543.2776191372141,None,,,,101,111,542.5431904401448,543.0436135626733,543.026930487431,543.1270219379039,4,1,0.21416680158290546,543.026930487431,None,543.1270219379039,None,543.026930487431,None,False,None,None,None,None,None,None,None,None,,,,,,,,,,,,,,,,,,,,,,,,,,,,AH17AR05b,1,0xC010,G:\Experimente\CoScience\Tasks\Logfiles\,2021_Oct_12_1635,GoNoGo,2020.1.3,59.95115535989248,
IN DIESEM BLOCK KÖNNEN SIE EINFACH ENTSPANNT AN DIE AUFGABE HERANGEHEN. SIE SOLLEN SICH NICHT VERAUSGABEN.,100,Go,go,4,1,0,0,0,0,,,,,19,1,58,0,,,,,,,,,,,,1,545.0291110051257,None,545.0291110051257,None,,,,101,111,544.278000691349,544.7784214802159,544.7617427805926,544.8618278134891,4,1,0.2252989642911416,544.7617427805926,None,544.8618278134891,None,544.7617427805926,None,False,None,None,None,None,None,None,None,None,,,,,,,,,,,,,,,,,,,,,,,,,,,,AH17AR05b,1,0xC010,G:\Experimente\CoScience\Tasks\Logfiles\,2021_Oct_12_1635,GoNoGo,2020.1.3,59.95115535989248,
IN DIESEM BLOCK KÖNNEN SIE EINFACH ENTSPANNT AN DIE AUFGABE HERANGEHEN. SIE SOLLEN SICH NICHT VERAUSGABEN.,100,Go,go,4,1,0,0,0,0,,,,,19,2,59,1,,,,,,,,,,,,1,546.8139608556958,None,546.8139608556958,None,,,,101,111,546.0294870168036,546.5299127647086,546.5132334816662,546.613318806274,4,1,0.2527752374880947,546.5132334816662,None,546.613318806274,None,546.5132334816662,None,False,None,None,None,None,None,None,None,None,,,,,,,,,,,,,,,,,,,,,,,,,,,,AH17AR05b,1,0xC010,G:\Experimente\CoScience\Tasks\Logfiles\,2021_Oct_12_1635,GoNoGo,2020.1.3,59.95115535989248,
IN DIESEM BLOCK KÖNNEN SIE EINFACH ENTSPANNT AN DIE AUFGABE HERANGEHEN. SIE SOLLEN SICH NICHT VERAUSGABEN.,100,NoGo,nogo,None,2,0,0,0,0,,,,,20,0,60,2,,,,,,,,,,,,0.9,548.9986995655017,None,548.9986995655017,None,,,,102,0,547.8143438683692,548.3147655323592,548.298084207363,548.3981695319708,None,1,,548.298084207363,None,548.3981695319708,None,548.298084207363,None,False,None,None,None,None,None,None,None,None,,,,,,,,,,,,,,,,,,,,,,,,,,,,AH17AR05b,1,0xC010,G:\Experimente\CoScience\Tasks\Logfiles\,2021_Oct_12_1635,GoNoGo,2020.1.3,59.95115535989248,
IN DIESEM BLOCK KÖNNEN SIE EINFACH ENTSPANNT AN DIE AUFGABE HERANGEHEN. SIE SOLLEN SICH NICHT VERAUSGABEN.,100,Go,go,4,1,0,0,0,0,,,,,20,1,61,1,,,,,,,,,,,,1,550.6505608816587,None,550.6505608816587,None,,,,101,111,549.8994520264241,550.3998757323716,550.3831935322487,550.4832782734375,4,1,0.22074044254986802,550.3831935322487,None,550.4832782734375,None,550.3831935322487,None,False,None,None,None,None,None,None,None,None,,,,,,,,,,,,,,,,,,,,,,,,,,,,AH17AR05b,1,0xC010,G:\Experimente\CoScience\Tasks\Logfiles\,2021_Oct_12_1635,GoNoGo,2020.1.3,59.95115535989248,
IN DIESEM BLOCK KÖNNEN SIE EINFACH ENTSPANNT AN DIE AUFGABE HERANGEHEN. SIE SOLLEN SICH NICHT VERAUSGABEN.,100,Go,go,4,1,0,0,0,0,,,,,20,2,62,1,,,,,,,,,,,,1,552.4354133576053,None,552.4354133576053,None,,,,101,111,551.6509424357937,552.1513786851865,552.1346839416183,552.2347692662224,4,1,0.2661926410801243,552.1346839416183,None,552.2347692662224,None,552.1346839416183,None,False,None,None,None,None,None,None,None,None,,,,,,,,,,,,,,,,,,,,,,,,,,,,AH17AR05b,1,0xC010,G:\Experimente\CoScience\Tasks\Logfiles\,2021_Oct_12_1635,GoNoGo,2020.1.3,59.95115535989248,
IN DIESEM BLOCK KÖNNEN SIE EINFACH ENTSPANNT AN DIE AUFGABE HERANGEHEN. SIE SOLLEN SICH NICHT VERAUSGABEN.,100,Go,go,4,1,0,0,0,0,,,,,21,0,63,0,,,,,,,,,,,,1,554.1697635852106,None,554.1697635852106,None,,,,101,111,553.4357917029483,553.9362186176841,553.919538167811,554.0196205753382,4,1,0.2243068652023794,553.919538167811,None,554.0196205753382,None,553.919538167811,None,False,None,None,None,None,None,None,None,None,,,,,,,,,,,,,,,,,,,,,,,,,,,,AH17AR05b,1,0xC010,G:\Experimente\CoScience\Tasks\Logfiles\,2021_Oct_12_1635,GoNoGo,2020.1.3,59.95115535989248,
IN DIESEM BLOCK KÖNNEN SIE EINFACH ENTSPANNT AN DIE AUFGABE HERANGEHEN. SIE SOLLEN SICH NICHT VERAUSGABEN.,100,NoGo,nogo,None,2,0,0,0,0,,,,,21,1,64,2,,,,,,,,,,,,0.9,556.3549576512851,None,556.3549576512851,None,,,,102,0,555.1706007873217,555.6710396620874,555.6543457936423,555.7544319933731,None,1,,555.6543457936423,None,555.7544319933731,None,555.6543457936423,None,False,None,None,None,None,None,None,None,None,,,,,,,,,,,,,,,,,,,,,,,,,,,,AH17AR05b,1,0xC010,G:\Experimente\CoScience\Tasks\Logfiles\,2021_Oct_12_1635,GoNoGo,2020.1.3,59.95115535989248,
IN DIESEM BLOCK KÖNNEN SIE EINFACH ENTSPANNT AN DIE AUFGABE HERANGEHEN. SIE SOLLEN SICH NICHT VERAUSGABEN.,100,NoGo,nogo,None,2,0,0,0,0,,,,,21,2,65,2,,,,,,,,,,,,1,557.9901414346496,None,557.9901414346496,None,,,,102,120,557.2557133209957,557.7561586133379,557.7394548268203,557.8395410265512,4,0,0.21432053172611631,557.7394548268203,None,557.8395410265512,None,557.7394548268203,None,False,None,None,None,None,None,None,None,None,,,,,,,,,,,,,,,,,,,,,,,,,,,,AH17AR05b,1,0xC010,G:\Experimente\CoScience\Tasks\Logfiles\,2021_Oct_12_1635,GoNoGo,2020.1.3,59.95115535989248,
IN DIESEM BLOCK KÖNNEN SIE EINFACH ENTSPANNT AN DIE AUFGABE HERANGEHEN. SIE SOLLEN SICH NICHT VERAUSGABEN.,100,NoGo,nogo,None,2,0,0,0,0,,,,,22,0,66,2,,,,,,,,,,,,0.9,560.1748845200746,None,560.1748845200746,None,,,,102,0,558.9905191965772,559.4909458196053,559.4742647863168,559.5743501109209,None,1,,559.4742647863168,None,559.5743501109209,None,559.4742647863168,None,False,None,None,None,None,None,None,None,None,,,,,,,,,,,,,,,,,,,,,,,,,,,,AH17AR05b,1,0xC010,G:\Experimente\CoScience\Tasks\Logfiles\,2021_Oct_12_1635,GoNoGo,2020.1.3,59.95115535989248,
IN DIESEM BLOCK KÖNNEN SIE EINFACH ENTSPANNT AN DIE AUFGABE HERANGEHEN. SIE SOLLEN SICH NICHT VERAUSGABEN.,100,Go,go,4,1,0,0,0,0,,,,,22,1,67,1,,,,,,,,,,,,1,561.9101326250675,None,561.9101326250675,None,,,,101,111,561.0756314385435,561.5760531025335,561.5593732360794,561.6594576855605,4,1,0.3153148186247563,561.5593732360794,None,561.6594576855605,None,561.5593732360794,None,False,None,None,None,None,None,None,None,None,,,,,,,,,,,,,,,,,,,,,,,,,,,,AH17AR05b,1,0xC010,G:\Experimente\CoScience\Tasks\Logfiles\,2021_Oct_12_1635,GoNoGo,2020.1.3,59.95115535989248,
IN DIESEM BLOCK KÖNNEN SIE EINFACH ENTSPANNT AN DIE AUFGABE HERANGEHEN. SIE SOLLEN SICH NICHT VERAUSGABEN.,100,Go,go,4,1,0,0,0,0,,,,,22,2,68,0,,,,,,,,,,,,1,563.7283591276173,None,563.7283591276173,None,,,,101,111,562.9105290563093,563.4109483866378,563.39426852018,563.4943763063056,4,1,0.29636983913587756,563.39426852018,None,563.4943763063056,None,563.39426852018,None,False,None,None,None,None,None,None,None,None,,,,,,,,,,,,,,,,,,,,,,,,,,,,AH17AR05b,1,0xC010,G:\Experimente\CoScience\Tasks\Logfiles\,2021_Oct_12_1635,GoNoGo,2020.1.3,59.95115535989248,
IN DIESEM BLOCK KÖNNEN SIE EINFACH ENTSPANNT AN DIE AUFGABE HERANGEHEN. SIE SOLLEN SICH NICHT VERAUSGABEN.,100,Go,go,4,1,0,0,0,0,,,,,23,0,69,0,,,,,,,,,,,,1,565.5132107284408,None,565.5132107284408,None,,,,101,111,564.7287400983369,565.2291623457422,565.2124804373307,565.3125669287656,4,1,0.26710743753574206,565.2124804373307,None,565.3125669287656,None,565.2124804373307,None,False,None,None,None,None,None,None,None,None,,,,,,,,,,,,,,,,,,,,,,,,,,,,AH17AR05b,1,0xC010,G:\Experimente\CoScience\Tasks\Logfiles\,2021_Oct_12_1635,GoNoGo,2020.1.3,59.95115535989248,
IN DIESEM BLOCK KÖNNEN SIE EINFACH ENTSPANNT AN DIE AUFGABE HERANGEHEN. SIE SOLLEN SICH NICHT VERAUSGABEN.,100,NoGo,nogo,None,2,0,0,0,0,,,,,23,1,70,2,,,,,,,,,,,,0.9,567.6979538138658,None,567.6979538138658,None,,,,102,0,566.5135908240336,567.0140186138924,566.997334955231,567.0974191130044,None,1,,566.997334955231,None,567.0974191130044,None,566.997334955231,None,False,None,None,None,None,None,None,None,None,,,,,,,,,,,,,,,,,,,,,,,,,,,,AH17AR05b,1,0xC010,G:\Experimente\CoScience\Tasks\Logfiles\,2021_Oct_12_1635,GoNoGo,2020.1.3,59.95115535989248,
IN DIESEM BLOCK KÖNNEN SIE EINFACH ENTSPANNT AN DIE AUFGABE HERANGEHEN. SIE SOLLEN SICH NICHT VERAUSGABEN.,100,NoGo,nogo,None,2,0,0,0,0,,,,,23,2,71,2,,,,,,,,,,,,0.9,569.783061096794,None,569.783061096794,None,,,,102,0,568.5986975235464,569.0991238548631,569.0824422381593,569.1825360222974,None,1,,569.0824422381593,None,569.1825360222974,None,569.0824422381593,None,False,None,None,None,None,None,None,None,None,,,,,,,,,,,,,,,,,,,,,,,,,,,,AH17AR05b,1,0xC010,G:\Experimente\CoScience\Tasks\Logfiles\,2021_Oct_12_1635,GoNoGo,2020.1.3,59.95115535989248,
IN DIESEM BLOCK KÖNNEN SIE EINFACH ENTSPANNT AN DIE AUFGABE HERANGEHEN. SIE SOLLEN SICH NICHT VERAUSGABEN.,100,NoGo,nogo,None,2,0,0,0,0,,,,,24,0,72,2,,,,,,,,,,,,0.9,571.8681721719258,None,571.8681721719258,None,,,,102,0,570.6838085986783,571.1842317212104,571.1675503962142,571.2676546818402,None,1,,571.1675503962142,None,571.2676546818402,None,571.1675503962142,None,False,None,None,None,None,None,None,None,None,,,,,,,,,,,,,,,,,,,,,,,,,,,,AH17AR05b,1,0xC010,G:\Experimente\CoScience\Tasks\Logfiles\,2021_Oct_12_1635,GoNoGo,2020.1.3,59.95115535989248,
IN DIESEM BLOCK KÖNNEN SIE EINFACH ENTSPANNT AN DIE AUFGABE HERANGEHEN. SIE SOLLEN SICH NICHT VERAUSGABEN.,100,Go,go,4,1,0,0,0,0,,,,,24,1,73,1,,,,,,,,,,,,1,573.6201112282797,None,573.6201112282797,None,,,,101,111,572.7689182152717,573.2693381290155,573.2526591376809,573.3527607979377,4,1,0.31781709030110505,573.2526591376809,None,573.3527607979377,None,573.2526591376809,None,False,None,None,None,None,None,None,None,None,,,,,,,,,,,,,,,,,,,,,,,,,,,,AH17AR05b,1,0xC010,G:\Experimente\CoScience\Tasks\Logfiles\,2021_Oct_12_1635,GoNoGo,2020.1.3,59.95115535989248,
IN DIESEM BLOCK KÖNNEN SIE EINFACH ENTSPANNT AN DIE AUFGABE HERANGEHEN. SIE SOLLEN SICH NICHT VERAUSGABEN.,100,Go,go,4,1,0,0,0,0,,,,,24,2,74,0,,,,,,,,,,,,1,575.4549974694346,None,575.4549974694346,None,,,,101,111,574.6204930741224,575.1209156132354,575.1042345799469,575.204319612847,4,1,0.31014458509525866,575.1042345799469,None,575.204319612847,None,575.1042345799469,None,False,None,None,None,None,None,None,None,None,,,,,,,,,,,,,,,,,,,,,,,,,,,,AH17AR05b,1,0xC010,G:\Experimente\CoScience\Tasks\Logfiles\,2021_Oct_12_1635,GoNoGo,2020.1.3,59.95115535989248,
IN DIESEM BLOCK KÖNNEN SIE EINFACH ENTSPANNT AN DIE AUFGABE HERANGEHEN. SIE SOLLEN SICH NICHT VERAUSGABEN.,100,Go,go,4,1,0,0,0,0,,,,,25,0,75,0,,,,,,,,,,,,1,577.3399023069724,None,577.3399023069724,None,,,,101,111,576.4553895250574,576.9558018543903,576.9391199459751,577.039215480363,4,1,0.36423134198776097,576.9391199459751,None,577.039215480363,None,576.9391199459751,None,False,None,None,None,None,None,None,None,None,,,,,,,,,,,,,,,,,,,,,,,,,,,,AH17AR05b,1,0xC010,G:\Experimente\CoScience\Tasks\Logfiles\,2021_Oct_12_1635,GoNoGo,2020.1.3,59.95115535989248,
IN DIESEM BLOCK KÖNNEN SIE EINFACH ENTSPANNT AN DIE AUFGABE HERANGEHEN. SIE SOLLEN SICH NICHT VERAUSGABEN.,100,Go,go,4,1,0,0,0,0,,,,,25,1,76,1,,,,,,,,,,,,1,579.1748395970353,None,579.1748395970353,None,,,,101,111,578.3403247002352,578.8407478227637,578.8240670811829,578.9241526974984,4,1,0.30324277256659116,578.8240670811829,None,578.9241526974984,None,578.8240670811829,None,False,None,None,None,None,None,None,None,None,,,,,,,,,,,,,,,,,,,,,,,,,,,,AH17AR05b,1,0xC010,G:\Experimente\CoScience\Tasks\Logfiles\,2021_Oct_12_1635,GoNoGo,2020.1.3,59.95115535989248,
IN DIESEM BLOCK KÖNNEN SIE EINFACH ENTSPANNT AN DIE AUFGABE HERANGEHEN. SIE SOLLEN SICH NICHT VERAUSGABEN.,100,Go,go,4,1,0,0,0,0,,,,,25,2,77,1,,,,,,,,,,,,1,581.0264162061321,None,581.0264162061321,None,,,,101,111,580.1752205677512,580.6756477741947,580.6589638238256,580.759076860697,4,1,0.3283139128689072,580.6589638238256,None,580.759076860697,None,580.6589638238256,None,False,None,None,None,None,None,None,None,None,,,,,,,,,,,,,,,,,,,,,,,,,,,,AH17AR05b,1,0xC010,G:\Experimente\CoScience\Tasks\Logfiles\,2021_Oct_12_1635,GoNoGo,2020.1.3,59.95115535989248,
IN DIESEM BLOCK KÖNNEN SIE EINFACH ENTSPANNT AN DIE AUFGABE HERANGEHEN. SIE SOLLEN SICH NICHT VERAUSGABEN.,100,Go,go,4,1,0,0,0,0,,,,,26,0,78,0,,,,,,,,,,,,1,582.8446214139985,None,582.8446214139985,None,,,,101,111,582.0267925095213,582.5272205910878,582.5105383909686,582.6106248824071,4,1,0.2976909849094227,582.5105383909686,None,582.6106248824071,None,582.5105383909686,None,False,None,None,None,None,None,None,None,None,,,,,,,,,,,,,,,,,,,,,,,,,,,,AH17AR05b,1,0xC010,G:\Experimente\CoScience\Tasks\Logfiles\,2021_Oct_12_1635,GoNoGo,2020.1.3,59.95115535989248,
IN DIESEM BLOCK KÖNNEN SIE EINFACH ENTSPANNT AN DIE AUFGABE HERANGEHEN. SIE SOLLEN SICH NICHT VERAUSGABEN.,100,Go,go,4,1,0,0,0,0,,,,,26,1,79,1,,,,,,,,,,,,1,584.6628435409293,None,584.6628435409293,None,,,,101,111,583.8450114276638,584.3454336750692,584.328760809607,584.4288362161387,4,1,0.29341833705984754,584.328760809607,None,584.4288362161387,None,584.328760809607,None,False,None,None,None,None,None,None,None,None,,,,,,,,,,,,,,,,,,,,,,,,,,,,AH17AR05b,1,0xC010,G:\Experimente\CoScience\Tasks\Logfiles\,2021_Oct_12_1635,GoNoGo,2020.1.3,59.95115535989248,
IN DIESEM BLOCK KÖNNEN SIE EINFACH ENTSPANNT AN DIE AUFGABE HERANGEHEN. SIE SOLLEN SICH NICHT VERAUSGABEN.,100,Go,go,4,1,0,0,0,0,,,,,26,2,80,1,,,,,,,,,,,,1,586.4810572083261,None,586.4810572083261,None,,,,101,111,585.6632250950606,586.163651426381,586.1469663091775,586.2470516337853,4,1,0.2871784101043886,586.1469663091775,None,586.2470516337853,None,586.1469663091775,None,False,None,None,None,None,None,None,None,None,,,,,,,,,,,,,,,,,,,,,,,,,,,,AH17AR05b,1,0xC010,G:\Experimente\CoScience\Tasks\Logfiles\,2021_Oct_12_1635,GoNoGo,2020.1.3,59.95115535989248,
IN DIESEM BLOCK KÖNNEN SIE EINFACH ENTSPANNT AN DIE AUFGABE HERANGEHEN. SIE SOLLEN SICH NICHT VERAUSGABEN.,100,Go,go,4,1,0,0,0,0,,,,,27,0,81,0,,,,,,,,,,,,1,588.2825921760996,None,588.2825921760996,None,,,,101,111,587.4814361370845,587.981863343528,587.9651799765779,588.0652664680129,4,1,0.27092852131681866,587.9651799765779,None,588.0652664680129,None,587.9651799765779,None,False,None,None,None,None,None,None,None,None,,,,,,,,,,,,,,,,,,,,,,,,,,,,AH17AR05b,1,0xC010,G:\Experimente\CoScience\Tasks\Logfiles\,2021_Oct_12_1635,GoNoGo,2020.1.3,59.95115535989248,
IN DIESEM BLOCK KÖNNEN SIE EINFACH ENTSPANNT AN DIE AUFGABE HERANGEHEN. SIE SOLLEN SICH NICHT VERAUSGABEN.,100,NoGo,nogo,None,2,0,0,0,0,,,,,27,1,82,2,,,,,,,,,,,,0.9,590.4673352615246,None,590.4673352615246,None,,,,102,0,589.2829708131503,589.783396852763,589.7667146526437,589.8668005606633,None,1,,589.7667146526437,None,589.8668005606633,None,589.7667146526437,None,False,None,None,None,None,None,None,None,None,,,,,,,,,,,,,,,,,,,,,,,,,,,,AH17AR05b,1,0xC010,G:\Experimente\CoScience\Tasks\Logfiles\,2021_Oct_12_1635,GoNoGo,2020.1.3,59.95115535989248,
IN DIESEM BLOCK KÖNNEN SIE EINFACH ENTSPANNT AN DIE AUFGABE HERANGEHEN. SIE SOLLEN SICH NICHT VERAUSGABEN.,100,Go,go,4,1,0,0,0,0,,,,,27,2,83,1,,,,,,,,,,,,1,592.1358717768089,None,592.1358717768089,None,,,,101,111,591.3680810131627,591.8685131786406,591.851822810695,591.9519084270105,4,1,0.2432107138520223,591.851822810695,None,591.9519084270105,None,591.851822810695,None,False,None,None,None,None,None,None,None,None,,,,,,,,,,,,,,,,,,,,,,,,,,,,AH17AR05b,1,0xC010,G:\Experimente\CoScience\Tasks\Logfiles\,2021_Oct_12_1635,GoNoGo,2020.1.3,59.95115535989248,
IN DIESEM BLOCK KÖNNEN SIE EINFACH ENTSPANNT AN DIE AUFGABE HERANGEHEN. SIE SOLLEN SICH NICHT VERAUSGABEN.,100,Go,go,4,1,0,0,0,0,,,,,28,0,84,0,,,,,,,,,,,,1,593.8869167479825,None,593.8869167479825,None,,,,101,111,593.136250122152,593.6366831627565,593.6199954201838,593.7200804530803,4,1,0.23999054865635117,593.6199954201838,None,593.7200804530803,None,593.6199954201838,None,False,None,None,None,None,None,None,None,None,,,,,,,,,,,,,,,,,,,,,,,,,,,,AH17AR05b,1,0xC010,G:\Experimente\CoScience\Tasks\Logfiles\,2021_Oct_12_1635,GoNoGo,2020.1.3,59.95115535989248,
IN DIESEM BLOCK KÖNNEN SIE EINFACH ENTSPANNT AN DIE AUFGABE HERANGEHEN. SIE SOLLEN SICH NICHT VERAUSGABEN.,100,Go,go,4,1,0,0,0,0,,,,,28,1,85,0,,,,,,,,,,,,1,595.7222484273298,None,595.7222484273298,None,,,,101,111,594.8877414066446,595.3881654042998,595.371484662719,595.4715711541576,4,1,0.310461963457783,595.371484662719,None,595.4715711541576,None,595.371484662719,None,False,None,None,None,None,None,None,None,None,,,,,,,,,,,,,,,,,,,,,,,,,,,,AH17AR05b,1,0xC010,G:\Experimente\CoScience\Tasks\Logfiles\,2021_Oct_12_1635,GoNoGo,2020.1.3,59.95115535989248,
IN DIESEM BLOCK KÖNNEN SIE EINFACH ENTSPANNT AN DIE AUFGABE HERANGEHEN. SIE SOLLEN SICH NICHT VERAUSGABEN.,100,Go,go,4,1,0,0,0,0,,,,,28,2,86,0,,,,,,,,,,,,1,597.507109654518,None,597.507109654518,None,,,,101,111,596.7226349404991,597.2230606884041,597.2063793634079,597.3064643963044,4,1,0.2675762123762979,597.2063793634079,None,597.3064643963044,None,597.2063793634079,None,False,None,None,None,None,None,None,None,None,,,,,,,,,,,,,,,,,,,,,,,,,,,,AH17AR05b,1,0xC010,G:\Experimente\CoScience\Tasks\Logfiles\,2021_Oct_12_1635,GoNoGo,2020.1.3,59.95115535989248,
IN DIESEM BLOCK KÖNNEN SIE EINFACH ENTSPANNT AN DIE AUFGABE HERANGEHEN. SIE SOLLEN SICH NICHT VERAUSGABEN.,100,Go,go,4,1,0,0,0,0,,,,,29,0,87,1,,,,,,,,,,,,1,599.2752822640068,None,599.2752822640068,None,,,,101,111,598.5074906252339,599.0079341673263,598.9912321310585,599.0913162888319,4,1,0.23867465363218798,598.9912321310585,None,599.0913162888319,None,598.9912321310585,None,False,None,None,None,None,None,None,None,None,,,,,,,,,,,,,,,,,,,,,,,,,,,,AH17AR05b,1,0xC010,G:\Experimente\CoScience\Tasks\Logfiles\,2021_Oct_12_1635,GoNoGo,2020.1.3,59.95115535989248,
IN DIESEM BLOCK KÖNNEN SIE EINFACH ENTSPANNT AN DIE AUFGABE HERANGEHEN. SIE SOLLEN SICH NICHT VERAUSGABEN.,100,NoGo,nogo,None,2,0,0,0,0,,,,,29,1,88,2,,,,,,,,,,,,0.9,601.4600443104537,None,601.4600443104537,None,,,,102,0,600.2756626513074,600.7760848987127,600.7594041571319,600.8594883149053,None,1,,600.7594041571319,None,600.8594883149053,None,600.7594041571319,None,False,None,None,None,None,None,None,None,None,,,,,,,,,,,,,,,,,,,,,,,,,,,,AH17AR05b,1,0xC010,G:\Experimente\CoScience\Tasks\Logfiles\,2021_Oct_12_1635,GoNoGo,2020.1.3,59.95115535989248,
IN DIESEM BLOCK KÖNNEN SIE EINFACH ENTSPANNT AN DIE AUFGABE HERANGEHEN. SIE SOLLEN SICH NICHT VERAUSGABEN.,100,Go,go,4,1,0,0,0,0,,,,,29,2,89,1,,,,,,,,,,,,1,603.1285589476356,None,603.1285589476356,None,,,,101,111,602.3607676005704,602.8611950987215,602.8445114400602,602.9445985149141,4,1,0.2412947753618937,602.8445114400602,None,602.9445985149141,None,602.8445114400602,None,False,None,None,None,None,None,None,None,None,,,,,,,,,,,,,,,,,,,,,,,,,,,,AH17AR05b,1,0xC010,G:\Experimente\CoScience\Tasks\Logfiles\,2021_Oct_12_1635,GoNoGo,2020.1.3,59.95115535989248,
IN DIESEM BLOCK KÖNNEN SIE EINFACH ENTSPANNT AN DIE AUFGABE HERANGEHEN. SIE SOLLEN SICH NICHT VERAUSGABEN.,100,NoGo,nogo,None,2,0,0,0,0,,,,,30,0,90,2,,,,,,,,,,,,0.9,605.3133090340525,None,605.3133090340525,None,,,,102,0,604.1289259163641,604.6293650828375,604.612684049549,604.7127687907378,None,1,,604.612684049549,None,604.7127687907378,None,604.612684049549,None,False,None,None,None,None,None,None,None,None,,,,,,,,,,,,,,,,,,,,,,,,,,,,AH17AR05b,1,0xC010,G:\Experimente\CoScience\Tasks\Logfiles\,2021_Oct_12_1635,GoNoGo,2020.1.3,59.95115535989248,
IN DIESEM BLOCK KÖNNEN SIE EINFACH ENTSPANNT AN DIE AUFGABE HERANGEHEN. SIE SOLLEN SICH NICHT VERAUSGABEN.,100,NoGo,nogo,None,2,0,0,0,0,,,,,30,1,91,2,,,,,,,,,,,,1,606.9651583901796,None,606.9651583901796,None,,,,102,120,606.2140439924915,606.7144717823503,606.6977913324808,606.7978897839457,4,0,0.23291604496262153,606.6977913324808,None,606.7978897839457,None,606.6977913324808,None,False,None,None,None,None,None,None,None,None,,,,,,,,,,,,,,,,,,,,,,,,,,,,AH17AR05b,1,0xC010,G:\Experimente\CoScience\Tasks\Logfiles\,2021_Oct_12_1635,GoNoGo,2020.1.3,59.95115535989248,
IN DIESEM BLOCK KÖNNEN SIE EINFACH ENTSPANNT AN DIE AUFGABE HERANGEHEN. SIE SOLLEN SICH NICHT VERAUSGABEN.,100,Go,go,4,1,0,0,0,0,,,,,30,2,92,0,,,,,,,,,,,,1,608.7166085438366,None,608.7166085438366,None,,,,101,111,607.9655416945607,608.4659619000122,608.4493319156318,608.5493664830356,4,1,0.21936853957595304,608.4493319156318,None,608.5493664830356,None,608.4493319156318,None,False,None,None,None,None,None,None,None,None,,,,,,,,,,,,,,,,,,,,,,,,,,,,AH17AR05b,1,0xC010,G:\Experimente\CoScience\Tasks\Logfiles\,2021_Oct_12_1635,GoNoGo,2020.1.3,59.95115535989248,
IN DIESEM BLOCK KÖNNEN SIE EINFACH ENTSPANNT AN DIE AUFGABE HERANGEHEN. SIE SOLLEN SICH NICHT VERAUSGABEN.,100,NoGo,nogo,None,2,0,0,0,0,,,,,31,0,93,2,,,,,,,,,,,,0.9,610.9014032615887,None,610.9014032615887,None,,,,102,0,609.7170277283112,610.2174517259627,610.2007736097548,610.3008729363501,None,1,,610.2007736097548,None,610.3008729363501,None,610.2007736097548,None,False,None,None,None,None,None,None,None,None,,,,,,,,,,,,,,,,,,,,,,,,,,,,AH17AR05b,1,0xC010,G:\Experimente\CoScience\Tasks\Logfiles\,2021_Oct_12_1635,GoNoGo,2020.1.3,59.95115535989248,
IN DIESEM BLOCK KÖNNEN SIE EINFACH ENTSPANNT AN DIE AUFGABE HERANGEHEN. SIE SOLLEN SICH NICHT VERAUSGABEN.,100,NoGo,nogo,None,2,0,0,0,0,,,,,31,1,94,2,,,,,,,,,,,,0.9,612.9865061688979,None,612.9865061688979,None,,,,102,0,611.8021355946548,612.3025613425561,612.2858797258523,612.3859656338755,None,1,,612.2858797258523,None,612.3859656338755,None,612.2858797258523,None,False,None,None,None,None,None,None,None,None,,,,,,,,,,,,,,,,,,,,,,,,,,,,AH17AR05b,1,0xC010,G:\Experimente\CoScience\Tasks\Logfiles\,2021_Oct_12_1635,GoNoGo,2020.1.3,59.95115535989248,
IN DIESEM BLOCK KÖNNEN SIE EINFACH ENTSPANNT AN DIE AUFGABE HERANGEHEN. SIE SOLLEN SICH NICHT VERAUSGABEN.,100,Go,go,4,1,0,0,0,0,,,,,31,2,95,1,,,,,,,,,,,,1,614.6717000891185,None,614.6717000891185,None,,,,101,111,613.8872481283288,614.3876724176916,614.3709902175724,614.4710752504689,4,1,0.25159557012375444,614.3709902175724,None,614.4710752504689,None,614.3709902175724,None,False,None,None,None,None,None,None,None,None,,,,,,,,,,,,,,,,,,,,,,,,,,,,AH17AR05b,1,0xC010,G:\Experimente\CoScience\Tasks\Logfiles\,2021_Oct_12_1635,GoNoGo,2020.1.3,59.95115535989248,
IN DIESEM BLOCK KÖNNEN SIE EINFACH ENTSPANNT AN DIE AUFGABE HERANGEHEN. SIE SOLLEN SICH NICHT VERAUSGABEN.,100,Go,go,4,1,0,0,0,0,,,,,32,0,96,0,,,,,,,,,,,,1,616.6066798227002,None,616.6066798227002,None,,,,101,111,615.6720997291486,616.1725213931386,616.1558412349768,616.255926559581,4,1,0.41167007236072095,616.1558412349768,None,616.255926559581,None,616.1558412349768,None,False,None,None,None,None,None,None,None,None,,,,,,,,,,,,,,,,,,,,,,,,,,,,AH17AR05b,1,0xC010,G:\Experimente\CoScience\Tasks\Logfiles\,2021_Oct_12_1635,GoNoGo,2020.1.3,59.95115535989248,
IN DIESEM BLOCK KÖNNEN SIE EINFACH ENTSPANNT AN DIE AUFGABE HERANGEHEN. SIE SOLLEN SICH NICHT VERAUSGABEN.,100,Go,go,4,1,0,0,0,0,,,,,32,1,97,1,,,,,,,,,,,,1,618.4582561400894,None,618.4582561400894,None,,,,101,111,617.6070771290688,618.107501126724,618.0908215519739,618.1909062931627,4,1,0.331651344698912,618.0908215519739,None,618.1909062931627,None,618.0908215519739,None,False,None,None,None,None,None,None,None,None,,,,,,,,,,,,,,,,,,,,,,,,,,,,AH17AR05b,1,0xC010,G:\Experimente\CoScience\Tasks\Logfiles\,2021_Oct_12_1635,GoNoGo,2020.1.3,59.95115535989248,
IN DIESEM BLOCK KÖNNEN SIE EINFACH ENTSPANNT AN DIE AUFGABE HERANGEHEN. SIE SOLLEN SICH NICHT VERAUSGABEN.,100,Go,go,4,1,0,0,0,0,,,,,32,2,98,0,,,,,,,,,,,,1,620.3098502516732,None,620.3098502516732,None,,,,101,111,619.4586560718308,619.9590783192361,619.9423972859477,620.0424808603057,4,1,0.3180848782903922,619.9423972859477,None,620.0424808603057,None,619.9423972859477,None,False,None,None,None,None,None,None,None,None,,,,,,,,,,,,,,,,,,,,,,,,,,,,AH17AR05b,1,0xC010,G:\Experimente\CoScience\Tasks\Logfiles\,2021_Oct_12_1635,GoNoGo,2020.1.3,59.95115535989248,
IN DIESEM BLOCK KÖNNEN SIE EINFACH ENTSPANNT AN DIE AUFGABE HERANGEHEN. SIE SOLLEN SICH NICHT VERAUSGABEN.,100,Go,go,4,1,0,0,0,0,,,,,33,0,99,1,,,,,,,,,,,,1,622.1109307382976,None,622.1109307382976,None,,,,101,111,621.3102309306814,621.8106537615022,621.7939736033404,621.8940577611138,4,1,0.2934160033946682,621.7939736033404,None,621.8940577611138,None,621.7939736033404,None,False,None,None,None,None,None,None,None,None,,,,,,,,,,,,,,,,,,,,,,,,,,,,AH17AR05b,1,0xC010,G:\Experimente\CoScience\Tasks\Logfiles\,2021_Oct_12_1635,GoNoGo,2020.1.3,59.95115535989248,
IN DIESEM BLOCK KÖNNEN SIE EINFACH ENTSPANNT AN DIE AUFGABE HERANGEHEN. SIE SOLLEN SICH NICHT VERAUSGABEN.,100,Go,go,4,1,0,0,0,0,,,,,33,1,100,0,,,,,,,,,,,,1,623.9295974283013,None,623.9295974283013,None,,,,101,111,623.1117644399128,623.612188437568,623.5955068208641,623.6955898118067,4,1,0.2938448142303969,623.5955068208641,None,623.6955898118067,None,623.5955068208641,None,False,None,None,None,None,None,None,None,None,,,,,,,,,,,,,,,,,,,,,,,,,,,,AH17AR05b,1,0xC010,G:\Experimente\CoScience\Tasks\Logfiles\,2021_Oct_12_1635,GoNoGo,2020.1.3,59.95115535989248,
IN DIESEM BLOCK KÖNNEN SIE EINFACH ENTSPANNT AN DIE AUFGABE HERANGEHEN. SIE SOLLEN SICH NICHT VERAUSGABEN.,100,Go,go,4,1,0,0,0,0,,,,,33,2,101,0,,,,,,,,,,,,1,625.714450779371,None,625.714450779371,None,,,,101,111,624.9299827746399,625.4304015215494,625.4137207799686,625.5138055211573,4,1,0.254584119120409,625.4137207799686,None,625.5138055211573,None,625.4137207799686,None,False,None,None,None,None,None,None,None,None,,,,,,,,,,,,,,,,,,,,,,,,,,,,AH17AR05b,1,0xC010,G:\Experimente\CoScience\Tasks\Logfiles\,2021_Oct_12_1635,GoNoGo,2020.1.3,59.95115535989248,
IN DIESEM BLOCK KÖNNEN SIE EINFACH ENTSPANNT AN DIE AUFGABE HERANGEHEN. SIE SOLLEN SICH NICHT VERAUSGABEN.,100,NoGo,nogo,None,2,0,0,0,0,,,,,34,0,102,2,,,,,,,,,,,,0.9,627.8991865720964,None,627.8991865720964,None,,,,102,0,626.7148323335059,627.2152510804153,627.1985916335216,627.2986617893075,None,1,,627.1985916335216,None,627.2986617893075,None,627.1985916335216,None,False,None,None,None,None,None,None,None,None,,,,,,,,,,,,,,,,,,,,,,,,,,,,AH17AR05b,1,0xC010,G:\Experimente\CoScience\Tasks\Logfiles\,2021_Oct_12_1635,GoNoGo,2020.1.3,59.95115535989248,
IN DIESEM BLOCK KÖNNEN SIE EINFACH ENTSPANNT AN DIE AUFGABE HERANGEHEN. SIE SOLLEN SICH NICHT VERAUSGABEN.,100,Go,go,4,1,0,0,0,0,,,,,34,1,103,0,,,,,,,,,,,,1,629.5176942812104,None,629.5176942812104,None,,,,101,111,628.7999375744766,629.3003624472549,629.2836805388433,629.3837533200021,4,1,0.19555816147840233,629.2836805388433,None,629.3837533200021,None,629.2836805388433,None,False,None,None,None,None,None,None,None,None,,,,,,,,,,,,,,,,,,,,,,,,,,,,AH17AR05b,1,0xC010,G:\Experimente\CoScience\Tasks\Logfiles\,2021_Oct_12_1635,GoNoGo,2020.1.3,59.95115535989248,
IN DIESEM BLOCK KÖNNEN SIE EINFACH ENTSPANNT AN DIE AUFGABE HERANGEHEN. SIE SOLLEN SICH NICHT VERAUSGABEN.,100,NoGo,nogo,None,2,0,0,0,0,,,,,34,2,104,2,,,,,,,,,,,,0.9,631.7024178221945,None,631.7024178221945,None,,,,102,0,630.5180653338539,631.0184910817552,631.0018120904242,631.1018950813668,None,1,,631.0018120904242,None,631.1018950813668,None,631.0018120904242,None,False,None,None,None,None,None,None,None,None,,,,,,,,,,,,,,,,,,,,,,,,,,,,AH17AR05b,1,0xC010,G:\Experimente\CoScience\Tasks\Logfiles\,2021_Oct_12_1635,GoNoGo,2020.1.3,59.95115535989248,
IN DIESEM BLOCK KÖNNEN SIE EINFACH ENTSPANNT AN DIE AUFGABE HERANGEHEN. SIE SOLLEN SICH NICHT VERAUSGABEN.,100,Go,go,4,1,0,0,0,0,,,,,35,0,105,0,,,,,,,,,,,,1,633.3208832336422,None,633.3208832336422,None,,,,101,111,632.6031723250744,633.103597781268,633.086917914814,633.1870017808797,4,1,0.18624246481704176,633.086917914814,None,633.1870017808797,None,633.086917914814,None,False,None,None,None,None,None,None,None,None,,,,,,,,,,,,,,,,,,,,,,,,,,,,AH17AR05b,1,0xC010,G:\Experimente\CoScience\Tasks\Logfiles\,2021_Oct_12_1635,GoNoGo,2020.1.3,59.95115535989248,
IN DIESEM BLOCK KÖNNEN SIE EINFACH ENTSPANNT AN DIE AUFGABE HERANGEHEN. SIE SOLLEN SICH NICHT VERAUSGABEN.,100,NoGo,nogo,None,2,0,0,0,0,,,,,35,1,106,2,,,,,,,,,,,,0.9,635.5056554898729,None,635.5056554898729,None,,,,102,0,634.3213018346978,634.8217269991837,634.8050471327297,634.905131290503,None,1,,634.8050471327297,None,634.905131290503,None,634.8050471327297,None,False,None,None,None,None,None,None,None,None,,,,,,,,,,,,,,,,,,,,,,,,,,,,AH17AR05b,1,0xC010,G:\Experimente\CoScience\Tasks\Logfiles\,2021_Oct_12_1635,GoNoGo,2020.1.3,59.95115535989248,
IN DIESEM BLOCK KÖNNEN SIE EINFACH ENTSPANNT AN DIE AUFGABE HERANGEHEN. SIE SOLLEN SICH NICHT VERAUSGABEN.,100,Go,go,4,1,0,0,0,0,,,,,35,2,107,0,,,,,,,,,,,,1,637.140822354173,None,637.140822354173,None,,,,101,111,636.4063720707054,636.9068357406541,636.8901549990733,636.990238865139,4,1,0.20293049909741967,636.8901549990733,None,636.990238865139,None,636.8901549990733,None,False,None,None,None,None,None,None,None,None,,,,,,,,,,,,,,,,,,,,,,,,,,,,AH17AR05b,1,0xC010,G:\Experimente\CoScience\Tasks\Logfiles\,2021_Oct_12_1635,GoNoGo,2020.1.3,59.95115535989248,
IN DIESEM BLOCK KÖNNEN SIE EINFACH ENTSPANNT AN DIE AUFGABE HERANGEHEN. SIE SOLLEN SICH NICHT VERAUSGABEN.,100,NoGo,nogo,None,2,0,0,0,0,,,,,36,0,108,2,,,,,,,,,,,,0.9,639.3255835254968,None,639.3255835254968,None,,,,102,0,638.1412225776221,638.6416448250275,638.6249646668621,638.7250485329278,None,1,,638.6249646668621,None,638.7250485329278,None,638.6249646668621,None,False,None,None,None,None,None,None,None,None,,,,,,,,,,,,,,,,,,,,,,,,,,,,AH17AR05b,1,0xC010,G:\Experimente\CoScience\Tasks\Logfiles\,2021_Oct_12_1635,GoNoGo,2020.1.3,59.95115535989248,
IN DIESEM BLOCK KÖNNEN SIE EINFACH ENTSPANNT AN DIE AUFGABE HERANGEHEN. SIE SOLLEN SICH NICHT VERAUSGABEN.,100,NoGo,nogo,None,2,0,0,0,0,,,,,36,1,109,2,,,,,,,,,,,,1,640.8106318833998,None,640.8106318833998,None,,,,102,120,640.2263304439657,640.7267532747865,640.7100719497903,None,4,0,0.05592451762277051,640.7100719497903,None,None,None,640.7100719497903,None,False,None,None,None,None,None,None,None,None,,,,,,,,,,,,,,,,,,,,,,,,,,,,AH17AR05b,1,0xC010,G:\Experimente\CoScience\Tasks\Logfiles\,2021_Oct_12_1635,GoNoGo,2020.1.3,59.95115535989248,
IN DIESEM BLOCK KÖNNEN SIE EINFACH ENTSPANNT AN DIE AUFGABE HERANGEHEN. SIE SOLLEN SICH NICHT VERAUSGABEN.,100,Go,go,4,1,0,0,0,0,,,,,36,2,110,1,,,,,,,,,,,,1,642.5788012841003,None,642.5788012841003,None,,,,101,111,641.8110143126578,642.311434226398,642.2947739043811,642.3948391011327,4,1,0.2501767021531123,642.2947739043811,None,642.3948391011327,None,642.2947739043811,None,False,None,None,None,None,None,None,None,None,,,,,,,,,,,,,,,,,,,,,,,,,,,,AH17AR05b,1,0xC010,G:\Experimente\CoScience\Tasks\Logfiles\,2021_Oct_12_1635,GoNoGo,2020.1.3,59.95115535989248,
IN DIESEM BLOCK KÖNNEN SIE EINFACH ENTSPANNT AN DIE AUFGABE HERANGEHEN. SIE SOLLEN SICH NICHT VERAUSGABEN.,100,NoGo,nogo,None,2,0,0,0,0,,,,,37,0,111,2,,,,,,,,,,,,0.9,644.7635434944023,None,644.7635434944023,None,,,,102,0,643.579182546524,644.079605085637,644.0629263860137,644.1630105437871,None,1,,644.0629263860137,None,644.1630105437871,None,644.0629263860137,None,False,None,None,None,None,None,None,None,None,,,,,,,,,,,,,,,,,,,,,,,,,,,,AH17AR05b,1,0xC010,G:\Experimente\CoScience\Tasks\Logfiles\,2021_Oct_12_1635,GoNoGo,2020.1.3,59.95115535989248,
IN DIESEM BLOCK KÖNNEN SIE EINFACH ENTSPANNT AN DIE AUFGABE HERANGEHEN. SIE SOLLEN SICH NICHT VERAUSGABEN.,100,Go,go,4,1,0,0,0,0,,,,,37,1,112,0,,,,,,,,,,,,1,646.498788682311,None,646.498788682311,None,,,,101,111,645.664292454825,646.164714702234,646.1480327938189,646.2481184101343,4,1,0.3098493765464809,646.1480327938189,None,646.2481184101343,None,646.1480327938189,None,False,None,None,None,None,None,None,None,None,,,,,,,,,,,,,,,,,,,,,,,,,,,,AH17AR05b,1,0xC010,G:\Experimente\CoScience\Tasks\Logfiles\,2021_Oct_12_1635,GoNoGo,2020.1.3,59.95115535989248,
IN DIESEM BLOCK KÖNNEN SIE EINFACH ENTSPANNT AN DIE AUFGABE HERANGEHEN. SIE SOLLEN SICH NICHT VERAUSGABEN.,100,NoGo,nogo,None,2,0,0,0,0,,,,,37,2,113,2,,,,,,,,,,,,0.9,648.6835504370538,None,648.6835504370538,None,,,,102,0,647.4991836550143,647.9996079443772,647.9829525813984,648.0830169030232,None,1,,647.9829525813984,None,648.0830169030232,None,647.9829525813984,None,False,None,None,None,None,None,None,None,None,,,,,,,,,,,,,,,,,,,,,,,,,,,,AH17AR05b,1,0xC010,G:\Experimente\CoScience\Tasks\Logfiles\,2021_Oct_12_1635,GoNoGo,2020.1.3,59.95115535989248,
IN DIESEM BLOCK KÖNNEN SIE EINFACH ENTSPANNT AN DIE AUFGABE HERANGEHEN. SIE SOLLEN SICH NICHT VERAUSGABEN.,100,NoGo,nogo,None,2,0,0,0,0,,,,,38,0,114,2,,,,,,,,,,,,1,650.3187245940535,None,650.3187245940535,None,,,,102,120,649.5842947301498,650.0847166858475,650.068044112093,650.1681212688709,4,0,0.21675045980737195,650.068044112093,None,650.1681212688709,None,650.068044112093,None,False,None,None,None,None,None,None,None,None,,,,,,,,,,,,,,,,,,,,,,,,,,,,AH17AR05b,1,0xC010,G:\Experimente\CoScience\Tasks\Logfiles\,2021_Oct_12_1635,GoNoGo,2020.1.3,59.95115535989248,
IN DIESEM BLOCK KÖNNEN SIE EINFACH ENTSPANNT AN DIE AUFGABE HERANGEHEN. SIE SOLLEN SICH NICHT VERAUSGABEN.,100,NoGo,nogo,None,2,0,0,0,0,,,,,38,1,115,2,,,,,,,,,,,,0.9,652.5034245066854,None,652.5034245066854,None,,,,102,0,651.3191283179985,651.8195283955902,651.8028482374284,651.9029315200751,None,1,,651.8028482374284,None,651.9029315200751,None,651.8028482374284,None,False,None,None,None,None,None,None,None,None,,,,,,,,,,,,,,,,,,,,,,,,,,,,AH17AR05b,1,0xC010,G:\Experimente\CoScience\Tasks\Logfiles\,2021_Oct_12_1635,GoNoGo,2020.1.3,59.95115535989248,
IN DIESEM BLOCK KÖNNEN SIE EINFACH ENTSPANNT AN DIE AUFGABE HERANGEHEN. SIE SOLLEN SICH NICHT VERAUSGABEN.,100,Go,go,4,1,0,0,0,0,,,,,38,2,116,1,,,,,,,,,,,,1,654.188244457182,None,654.188244457182,None,,,,101,111,653.4042498946219,653.9046353868143,653.8879537701068,653.98803967813,4,1,0.28075529049237957,653.8879537701068,None,653.98803967813,None,653.8879537701068,None,False,None,None,None,None,None,None,None,None,,,,,,,,,,,,,,,,,,,,,,,,,,,,AH17AR05b,1,0xC010,G:\Experimente\CoScience\Tasks\Logfiles\,2021_Oct_12_1635,GoNoGo,2020.1.3,59.95115535989248,
IN DIESEM BLOCK KÖNNEN SIE EINFACH ENTSPANNT AN DIE AUFGABE HERANGEHEN. SIE SOLLEN SICH NICHT VERAUSGABEN.,100,Go,go,4,1,0,0,0,0,,,,,39,0,117,1,,,,,,,,,,,,1,655.9730776803954,None,655.9730776803954,None,,,,101,111,655.1890659070596,655.6894872793418,655.6728068294688,655.7728912789498,4,1,0.27285408617171925,655.6728068294688,None,655.7728912789498,None,655.6728068294688,None,False,None,None,None,None,None,None,None,None,,,,,,,,,,,,,,,,,,,,,,,,,,,,AH17AR05b,1,0xC010,G:\Experimente\CoScience\Tasks\Logfiles\,2021_Oct_12_1635,GoNoGo,2020.1.3,59.95115535989248,
IN DIESEM BLOCK KÖNNEN SIE EINFACH ENTSPANNT AN DIE AUFGABE HERANGEHEN. SIE SOLLEN SICH NICHT VERAUSGABEN.,100,Go,go,4,1,0,0,0,0,,,,,39,1,118,0,,,,,,,,,,,,1,657.7579371573338,None,657.7579371573338,None,,,,101,111,656.9739137156757,657.4743665924289,657.4576575551655,657.5577437548964,4,1,0.283992666460108,657.4576575551655,None,657.5577437548964,None,657.4576575551655,None,False,None,None,None,None,None,None,None,None,,,,,,,,,,,,,,,,,,,,,,,,,,,,AH17AR05b,1,0xC010,G:\Experimente\CoScience\Tasks\Logfiles\,2021_Oct_12_1635,GoNoGo,2020.1.3,59.95115535989248,
IN DIESEM BLOCK KÖNNEN SIE EINFACH ENTSPANNT AN DIE AUFGABE HERANGEHEN. SIE SOLLEN SICH NICHT VERAUSGABEN.,100,NoGo,nogo,None,2,0,0,0,0,,,,,39,2,119,2,,,,,,,,,,,,0.9,659.9431297648698,None,659.9431297648698,None,,,,102,0,658.7587667750377,659.2591913561082,659.2425117813582,659.3425973976737,None,1,,659.2425117813582,None,659.3425973976737,None,659.2425117813582,None,False,None,None,None,None,None,None,None,None,,,,,,,,,,,,,,,,,,,,,,,,,,,,AH17AR05b,1,0xC010,G:\Experimente\CoScience\Tasks\Logfiles\,2021_Oct_12_1635,GoNoGo,2020.1.3,59.95115535989248,
IN DIESEM BLOCK KÖNNEN SIE EINFACH ENTSPANNT AN DIE AUFGABE HERANGEHEN. SIE SOLLEN SICH NICHT VERAUSGABEN.,100,NoGo,nogo,None,2,0,0,0,0,,,,,40,0,120,2,,,,,,,,,,,,0.9,662.0282355892596,None,662.0282355892596,None,,,,102,0,660.8438775584618,661.3442998058672,661.3276187725824,661.4277029303521,None,1,,661.3276187725824,None,661.4277029303521,None,661.3276187725824,None,False,None,None,None,None,None,None,None,None,,,,,,,,,,,,,,,,,,,,,,,,,,,,AH17AR05b,1,0xC010,G:\Experimente\CoScience\Tasks\Logfiles\,2021_Oct_12_1635,GoNoGo,2020.1.3,59.95115535989248,
IN DIESEM BLOCK KÖNNEN SIE EINFACH ENTSPANNT AN DIE AUFGABE HERANGEHEN. SIE SOLLEN SICH NICHT VERAUSGABEN.,100,Go,go,4,1,0,0,0,0,,,,,40,1,121,1,,,,,,,,,,,,1,663.8297743492367,None,663.8297743492367,None,,,,101,111,662.9289857165168,663.4294062136723,663.4127278057567,663.5128119635301,4,1,0.390779108452989,663.4127278057567,None,663.5128119635301,None,663.4127278057567,None,False,None,None,None,None,None,None,None,None,,,,,,,,,,,,,,,,,,,,,,,,,,,,AH17AR05b,1,0xC010,G:\Experimente\CoScience\Tasks\Logfiles\,2021_Oct_12_1635,GoNoGo,2020.1.3,59.95115535989248,
IN DIESEM BLOCK KÖNNEN SIE EINFACH ENTSPANNT AN DIE AUFGABE HERANGEHEN. SIE SOLLEN SICH NICHT VERAUSGABEN.,100,NoGo,nogo,None,2,0,0,0,0,,,,,40,2,122,2,,,,,,,,,,,,0.9,666.0149675401881,None,666.0149675401881,None,,,,102,0,664.8306001747333,665.3310256309269,665.3143448893497,665.4144299222462,None,1,,665.3143448893497,None,665.4144299222462,None,665.3143448893497,None,False,None,None,None,None,None,None,None,None,,,,,,,,,,,,,,,,,,,,,,,,,,,,AH17AR05b,1,0xC010,G:\Experimente\CoScience\Tasks\Logfiles\,2021_Oct_12_1635,GoNoGo,2020.1.3,59.95115535989248,
IN DIESEM BLOCK KÖNNEN SIE EINFACH ENTSPANNT AN DIE AUFGABE HERANGEHEN. SIE SOLLEN SICH NICHT VERAUSGABEN.,100,Go,go,4,1,0,0,0,0,,,,,41,0,123,0,,,,,,,,,,,,1,667.7001842136342,None,667.7001842136342,None,,,,101,111,666.9157100830344,667.4161340806895,667.3994539225241,667.4995374968821,4,1,0.25899124438365106,667.3994539225241,None,667.4995374968821,None,667.3994539225241,None,False,None,None,None,None,None,None,None,None,,,,,,,,,,,,,,,,,,,,,,,,,,,,AH17AR05b,1,0xC010,G:\Experimente\CoScience\Tasks\Logfiles\,2021_Oct_12_1635,GoNoGo,2020.1.3,59.95115535989248,
IN DIESEM BLOCK KÖNNEN SIE EINFACH ENTSPANNT AN DIE AUFGABE HERANGEHEN. SIE SOLLEN SICH NICHT VERAUSGABEN.,100,Go,go,4,1,0,0,0,0,,,,,41,1,124,1,,,,,,,,,,,,1,669.5851015946209,None,669.5851015946209,None,,,,101,111,668.7005596419003,669.2009859732207,669.1843052316399,669.2843914313671,4,1,0.36607347834069515,669.1843052316399,None,669.2843914313671,None,669.1843052316399,None,False,None,None,None,None,None,None,None,None,,,,,,,,,,,,,,,,,,,,,,,,,,,,AH17AR05b,1,0xC010,G:\Experimente\CoScience\Tasks\Logfiles\,2021_Oct_12_1635,GoNoGo,2020.1.3,59.95115535989248,
IN DIESEM BLOCK KÖNNEN SIE EINFACH ENTSPANNT AN DIE AUFGABE HERANGEHEN. SIE SOLLEN SICH NICHT VERAUSGABEN.,100,NoGo,nogo,None,2,0,0,0,0,,,,,41,2,125,2,,,,,,,,,,,,0.9,671.7698621825293,None,671.7698621825293,None,,,,102,0,670.5855029849045,671.0859307747633,671.0692441990213,671.1693298153332,None,1,,671.0692441990213,None,671.1693298153332,None,671.0692441990213,None,False,None,None,None,None,None,672.7039796271092,None,space,13.14111697930639,,,,,,,,,,,,,,,,,,,,,,,,,,,AH17AR05b,1,0xC010,G:\Experimente\CoScience\Tasks\Logfiles\,2021_Oct_12_1635,GoNoGo,2020.1.3,59.95115535989248,
IN DIESEM BLOCK KÖNNEN SIE EINFACH ENTSPANNT AN DIE AUFGABE HERANGEHEN. SIE SOLLEN SICH NICHT VERAUSGABEN.,100,NoGo,nogo,None,2,0,0,0,0,,,,,42,0,126,2,,,,,,,,,,,,0.9,689.0178755777633,None,689.0178755777633,None,,,,102,0,687.816834763431,688.3172549688825,688.3172549688825,688.4173397100712,None,1,,688.3172549688825,None,688.4006773461006,689.0011700409996,688.3172549688825,None,False,None,None,None,None,None,None,None,None,,,,,,,,,,,,,,,,,,,,,,,,,,,,AH17AR05b,1,0xC010,G:\Experimente\CoScience\Tasks\Logfiles\,2021_Oct_12_1635,GoNoGo,2020.1.3,59.95115535989248,
IN DIESEM BLOCK KÖNNEN SIE EINFACH ENTSPANNT AN DIE AUFGABE HERANGEHEN. SIE SOLLEN SICH NICHT VERAUSGABEN.,100,Go,go,4,1,0,0,0,0,,,,,42,1,127,0,,,,,,,,,,,,1,690.6864129681744,None,690.6864129681744,None,,,,101,111,689.9186230796513,690.4190429933915,690.4023625435184,690.5024478681262,4,1,0.24556800662685419,690.4023625435184,None,690.5024478681262,None,690.4023625435184,None,False,None,None,None,None,None,None,None,None,,,,,,,,,,,,,,,,,,,,,,,,,,,,AH17AR05b,1,0xC010,G:\Experimente\CoScience\Tasks\Logfiles\,2021_Oct_12_1635,GoNoGo,2020.1.3,59.95115535989248,
IN DIESEM BLOCK KÖNNEN SIE EINFACH ENTSPANNT AN DIE AUFGABE HERANGEHEN. SIE SOLLEN SICH NICHT VERAUSGABEN.,100,Go,go,4,1,0,0,0,0,,,,,42,2,128,0,,,,,,,,,,,,1,692.5713466848101,None,692.5713466848101,None,,,,101,111,691.6868108579583,692.1872153111726,692.1705348612995,692.2706190190729,4,1,0.3553520405694144,692.1705348612995,None,692.2706190190729,None,692.1705348612995,None,False,None,None,None,None,None,None,None,None,,,,,,,,,,,,,,,,,,,,,,,,,,,,AH17AR05b,1,0xC010,G:\Experimente\CoScience\Tasks\Logfiles\,2021_Oct_12_1635,GoNoGo,2020.1.3,59.95115535989248,
IN DIESEM BLOCK KÖNNEN SIE EINFACH ENTSPANNT AN DIE AUFGABE HERANGEHEN. SIE SOLLEN SICH NICHT VERAUSGABEN.,100,Go,go,4,1,0,0,0,0,,,,,43,0,129,1,,,,,,,,,,,,1,694.3724312553531,None,694.3724312553531,None,,,,101,111,693.571727363822,694.0721536951387,694.0554717867271,694.1555576947503,4,1,0.2883732462905755,694.0554717867271,None,694.1555576947503,None,694.0554717867271,None,False,None,None,None,None,None,None,None,None,,,,,,,,,,,,,,,,,,,,,,,,,,,,AH17AR05b,1,0xC010,G:\Experimente\CoScience\Tasks\Logfiles\,2021_Oct_12_1635,GoNoGo,2020.1.3,59.95115535989248,
IN DIESEM BLOCK KÖNNEN SIE EINFACH ENTSPANNT AN DIE AUFGABE HERANGEHEN. SIE SOLLEN SICH NICHT VERAUSGABEN.,100,Go,go,4,1,0,0,0,0,,,,,43,1,130,0,,,,,,,,,,,,1,696.1577361704876,None,696.1577361704876,None,,,,101,111,695.3732632067185,695.8736874960814,695.8570125886617,695.9570917873971,4,1,0.25979548348186654,695.8570125886617,None,695.9570917873971,None,695.8570125886617,None,False,None,None,None,None,None,None,None,None,,,,,,,,,,,,,,,,,,,,,,,,,,,,AH17AR05b,1,0xC010,G:\Experimente\CoScience\Tasks\Logfiles\,2021_Oct_12_1635,GoNoGo,2020.1.3,59.95115535989248,
IN DIESEM BLOCK KÖNNEN SIE EINFACH ENTSPANNT AN DIE AUFGABE HERANGEHEN. SIE SOLLEN SICH NICHT VERAUSGABEN.,100,NoGo,nogo,None,2,0,0,0,0,,,,,43,2,131,2,,,,,,,,,,,,0.9,698.3424608783062,None,698.3424608783062,None,,,,102,0,697.1581159743728,697.6585376383628,697.6418563133666,697.7419430965092,None,1,,697.6418563133666,None,697.7419430965092,None,697.6418563133666,None,False,None,None,None,None,None,None,None,None,,,,,,,,,,,,,,,,,,,,,,,,,,,,AH17AR05b,1,0xC010,G:\Experimente\CoScience\Tasks\Logfiles\,2021_Oct_12_1635,GoNoGo,2020.1.3,59.95115535989248,
IN DIESEM BLOCK KÖNNEN SIE EINFACH ENTSPANNT AN DIE AUFGABE HERANGEHEN. SIE SOLLEN SICH NICHT VERAUSGABEN.,100,Go,go,4,1,0,0,0,0,,,,,44,0,132,1,,,,,,,,,,,,1,700.027732976283,None,700.027732976283,None,,,,101,111,699.2432223821743,699.7436466715371,699.7269650548333,699.8270518379795,4,1,0.2528000326710753,699.7269650548333,None,699.8270518379795,None,699.7269650548333,None,False,None,None,None,None,None,None,None,None,,,,,,,,,,,,,,,,,,,,,,,,,,,,AH17AR05b,1,0xC010,G:\Experimente\CoScience\Tasks\Logfiles\,2021_Oct_12_1635,GoNoGo,2020.1.3,59.95115535989248,
IN DIESEM BLOCK KÖNNEN SIE EINFACH ENTSPANNT AN DIE AUFGABE HERANGEHEN. SIE SOLLEN SICH NICHT VERAUSGABEN.,100,Go,go,4,1,0,0,0,0,,,,,44,1,133,1,,,,,,,,,,,,1,701.7286919665057,None,701.7286919665057,None,,,,101,111,701.0280719410403,701.5284979806529,701.5118175307798,701.611902855384,4,1,0.1898707295767963,701.5118175307798,None,701.611902855384,None,701.5118175307798,None,False,None,None,None,None,None,None,None,None,,,,,,,,,,,,,,,,,,,,,,,,,,,,AH17AR05b,1,0xC010,G:\Experimente\CoScience\Tasks\Logfiles\,2021_Oct_12_1635,GoNoGo,2020.1.3,59.95115535989248,
IN DIESEM BLOCK KÖNNEN SIE EINFACH ENTSPANNT AN DIE AUFGABE HERANGEHEN. SIE SOLLEN SICH NICHT VERAUSGABEN.,100,Go,go,4,1,0,0,0,0,,,,,44,2,134,1,,,,,,,,,,,,1,703.463512135786,None,703.463512135786,None,,,,101,111,702.7295242095825,703.2299464569878,703.2132625066188,703.3133892537662,4,1,0.23237580165005056,703.2132625066188,None,703.3133892537662,None,703.2132625066188,None,False,None,None,None,None,None,None,None,None,,,,,,,,,,,,,,,,,,,,,,,,,,,,AH17AR05b,1,0xC010,G:\Experimente\CoScience\Tasks\Logfiles\,2021_Oct_12_1635,GoNoGo,2020.1.3,59.95115535989248,
IN DIESEM BLOCK KÖNNEN SIE EINFACH ENTSPANNT AN DIE AUFGABE HERANGEHEN. SIE SOLLEN SICH NICHT VERAUSGABEN.,100,Go,go,4,1,0,0,0,0,,,,,45,0,135,0,,,,,,,,,,,,1,705.1987628661482,None,705.1987628661482,None,,,,101,111,704.4643397115287,704.9647561247766,704.9480753831958,705.0481621663421,4,1,0.2175754101772327,704.9480753831958,None,705.0481621663421,None,704.9480753831958,None,False,None,None,None,None,None,None,None,None,,,,,,,,,,,,,,,,,,,,,,,,,,,,AH17AR05b,1,0xC010,G:\Experimente\CoScience\Tasks\Logfiles\,2021_Oct_12_1635,GoNoGo,2020.1.3,59.95115535989248,
IN DIESEM BLOCK KÖNNEN SIE EINFACH ENTSPANNT AN DIE AUFGABE HERANGEHEN. SIE SOLLEN SICH NICHT VERAUSGABEN.,100,Go,go,4,1,0,0,0,0,,,,,45,1,136,0,,,,,,,,,,,,1,706.9664699095847,None,706.9664699095847,None,,,,101,111,706.1991438368641,706.6995675428116,706.6828856344,706.7829721258386,4,1,0.26669729601053405,706.6828856344,None,706.7829721258386,None,706.6828856344,None,False,None,None,None,None,None,None,None,None,,,,,,,,,,,,,,,,,,,,,,,,,,,,AH17AR05b,1,0xC010,G:\Experimente\CoScience\Tasks\Logfiles\,2021_Oct_12_1635,GoNoGo,2020.1.3,59.95115535989248,
IN DIESEM BLOCK KÖNNEN SIE EINFACH ENTSPANNT AN DIE AUFGABE HERANGEHEN. SIE SOLLEN SICH NICHT VERAUSGABEN.,100,NoGo,nogo,None,2,0,0,0,0,,,,,45,2,137,2,,,,,,,,,,,,0.9,709.1516648507859,None,709.1516648507859,None,,,,102,0,707.967313529276,708.4677378186352,708.4510570770581,708.5511418182468,None,1,,708.4510570770581,None,708.5511418182468,None,708.4510570770581,None,False,None,None,None,None,None,None,None,None,,,,,,,,,,,,,,,,,,,,,,,,,,,,AH17AR05b,1,0xC010,G:\Experimente\CoScience\Tasks\Logfiles\,2021_Oct_12_1635,GoNoGo,2020.1.3,59.95115535989248,
IN DIESEM BLOCK KÖNNEN SIE EINFACH ENTSPANNT AN DIE AUFGABE HERANGEHEN. SIE SOLLEN SICH NICHT VERAUSGABEN.,100,Go,go,4,1,0,0,0,0,,,,,46,0,138,1,,,,,,,,,,,,1,710.7363603877966,None,710.7363603877966,None,,,,101,111,710.0524240209925,710.5528462683978,710.5361716526859,710.6362531850864,4,1,0.18132660071205464,710.5361716526859,None,710.6362531850864,None,710.5361716526859,None,False,None,None,None,None,None,None,None,None,,,,,,,,,,,,,,,,,,,,,,,,,,,,AH17AR05b,1,0xC010,G:\Experimente\CoScience\Tasks\Logfiles\,2021_Oct_12_1635,GoNoGo,2020.1.3,59.95115535989248,
IN DIESEM BLOCK KÖNNEN SIE EINFACH ENTSPANNT AN DIE AUFGABE HERANGEHEN. SIE SOLLEN SICH NICHT VERAUSGABEN.,100,NoGo,nogo,None,2,0,0,0,0,,,,,46,1,139,2,,,,,,,,,,,,0.9,712.9215494948367,None,712.9215494948367,None,,,,102,0,711.7371917557466,712.2376134197366,712.2209309279096,712.321018586179,None,1,,712.2209309279096,None,712.321018586179,None,712.2209309279096,None,False,None,None,None,None,None,None,None,None,,,,,,,,,,,,,,,,,,,,,,,,,,,,AH17AR05b,1,0xC010,G:\Experimente\CoScience\Tasks\Logfiles\,2021_Oct_12_1635,GoNoGo,2020.1.3,59.95115535989248,
IN DIESEM BLOCK KÖNNEN SIE EINFACH ENTSPANNT AN DIE AUFGABE HERANGEHEN. SIE SOLLEN SICH NICHT VERAUSGABEN.,100,Go,go,4,1,0,0,0,0,,,,,46,2,140,1,,,,,,,,,,,,1,714.6067518745913,None,714.6067518745913,None,,,,101,111,713.8223124572469,714.3227215777915,714.3060399610877,714.4061255773995,4,1,0.2634001198930491,714.3060399610877,None,714.4061255773995,None,714.3060399610877,None,False,None,None,None,None,None,None,None,None,,,,,,,,,,,,,,,,,,,,,,,,,,,,AH17AR05b,1,0xC010,G:\Experimente\CoScience\Tasks\Logfiles\,2021_Oct_12_1635,GoNoGo,2020.1.3,59.95115535989248,
IN DIESEM BLOCK KÖNNEN SIE EINFACH ENTSPANNT AN DIE AUFGABE HERANGEHEN. SIE SOLLEN SICH NICHT VERAUSGABEN.,100,NoGo,nogo,None,2,0,0,0,0,,,,,47,0,141,2,,,,,,,,,,,,1,716.324898303279,None,716.324898303279,None,,,,102,120,715.6071512229137,716.1075746371534,716.0909207327131,716.1909765948039,4,0,0.1914894175606605,716.0909207327131,None,716.1909765948039,None,716.0909207327131,None,False,None,None,None,None,None,None,None,None,,,,,,,,,,,,,,,,,,,,,,,,,,,,AH17AR05b,1,0xC010,G:\Experimente\CoScience\Tasks\Logfiles\,2021_Oct_12_1635,GoNoGo,2020.1.3,59.95115535989248,
IN DIESEM BLOCK KÖNNEN SIE EINFACH ENTSPANNT AN DIE AUFGABE HERANGEHEN. SIE SOLLEN SICH NICHT VERAUSGABEN.,100,NoGo,nogo,None,2,0,0,0,0,,,,,47,1,142,2,,,,,,,,,,,,0.9,718.5096457643267,None,718.5096457643267,None,,,,102,0,717.3252792739986,717.8257032716538,717.8090213632386,717.909106104431,None,1,,717.8090213632386,None,717.909106104431,None,717.8090213632386,None,False,None,None,None,None,None,None,None,None,,,,,,,,,,,,,,,,,,,,,,,,,,,,AH17AR05b,1,0xC010,G:\Experimente\CoScience\Tasks\Logfiles\,2021_Oct_12_1635,GoNoGo,2020.1.3,59.95115535989248,
IN DIESEM BLOCK KÖNNEN SIE EINFACH ENTSPANNT AN DIE AUFGABE HERANGEHEN. SIE SOLLEN SICH NICHT VERAUSGABEN.,100,Go,go,4,1,0,0,0,0,,,,,47,2,143,1,,,,,,,,,,,,1,720.1276709883205,None,720.1276709883205,None,,,,101,111,719.410388890592,719.9108108462897,719.8941283544591,719.9942183463936,4,1,0.2131650761293713,719.8941283544591,None,719.9942183463936,None,719.8941283544591,None,False,None,None,None,None,None,None,None,None,,,,,,,,,,,,,,,,,,,,,,,,,,,,AH17AR05b,1,0xC010,G:\Experimente\CoScience\Tasks\Logfiles\,2021_Oct_12_1635,GoNoGo,2020.1.3,59.95115535989248,
IN DIESEM BLOCK KÖNNEN SIE EINFACH ENTSPANNT AN DIE AUFGABE HERANGEHEN. SIE SOLLEN SICH NICHT VERAUSGABEN.,100,NoGo,nogo,None,2,0,0,0,0,,,,,48,0,144,2,,,,,,,,,,,,0.9,722.3128822651706,None,722.3128822651706,None,,,,102,0,721.1285175250923,721.62893948079,721.6122590309169,721.7123461057708,None,1,,721.6122590309169,None,721.7123461057708,None,721.6122590309169,None,False,None,None,None,None,None,None,None,None,,,,,,,,,,,,,,,,,,,,,,,,,,,,AH17AR05b,1,0xC010,G:\Experimente\CoScience\Tasks\Logfiles\,2021_Oct_12_1635,GoNoGo,2020.1.3,59.95115535989248,
IN DIESEM BLOCK KÖNNEN SIE EINFACH ENTSPANNT AN DIE AUFGABE HERANGEHEN. SIE SOLLEN SICH NICHT VERAUSGABEN.,100,NoGo,nogo,None,2,0,0,0,0,,,,,48,1,145,2,,,,,,,,,,,,0.9,724.3979735041576,None,724.3979735041576,None,,,,102,0,723.2136256831436,723.7140467637182,723.6973674806795,723.7974519301606,None,1,,723.6973674806795,None,723.7974519301606,None,723.6973674806795,None,False,None,None,None,None,None,None,None,None,,,,,,,,,,,,,,,,,,,,,,,,,,,,AH17AR05b,1,0xC010,G:\Experimente\CoScience\Tasks\Logfiles\,2021_Oct_12_1635,GoNoGo,2020.1.3,59.95115535989248,
IN DIESEM BLOCK KÖNNEN SIE EINFACH ENTSPANNT AN DIE AUFGABE HERANGEHEN. SIE SOLLEN SICH NICHT VERAUSGABEN.,100,Go,go,4,1,0,0,0,0,,,,,48,2,146,0,,,,,,,,,,,,1,726.0498365705644,None,726.0498365705644,None,,,,101,111,725.2987326743641,725.7991528798157,725.7824741801924,725.882557462839,4,1,0.2207106883288361,725.7824741801924,None,725.882557462839,None,725.7824741801924,None,False,None,None,None,None,None,None,None,None,,,,,,,,,,,,,,,,,,,,,,,,,,,,AH17AR05b,1,0xC010,G:\Experimente\CoScience\Tasks\Logfiles\,2021_Oct_12_1635,GoNoGo,2020.1.3,59.95115535989248,
IN DIESEM BLOCK KÖNNEN SIE EINFACH ENTSPANNT AN DIE AUFGABE HERANGEHEN. SIE SOLLEN SICH NICHT VERAUSGABEN.,100,Go,go,4,1,0,0,0,0,,,,,49,0,147,1,,,,,,,,,,,,1,727.8847193112197,None,727.8847193112197,None,,,,101,111,727.0502192915301,727.5506450394314,727.5339648812696,727.634049039043,4,1,0.315200760775042,727.5339648812696,None,727.634049039043,None,727.5339648812696,None,False,None,None,None,None,None,None,None,None,,,,,,,,,,,,,,,,,,,,,,,,,,,,AH17AR05b,1,0xC010,G:\Experimente\CoScience\Tasks\Logfiles\,2021_Oct_12_1635,GoNoGo,2020.1.3,59.95115535989248,
IN DIESEM BLOCK KÖNNEN SIE EINFACH ENTSPANNT AN DIE AUFGABE HERANGEHEN. SIE SOLLEN SICH NICHT VERAUSGABEN.,100,NoGo,nogo,None,2,0,0,0,0,,,,,49,1,148,2,,,,,,,,,,,,0.9,730.0694661888483,None,730.0694661888483,None,,,,102,0,728.8851189512534,729.385539448409,729.3688525809594,729.4689454899744,None,1,,729.3688525809594,None,729.4689454899744,None,729.3688525809594,None,False,None,None,None,None,None,None,None,None,,,,,,,,,,,,,,,,,,,,,,,,,,,,AH17AR05b,1,0xC010,G:\Experimente\CoScience\Tasks\Logfiles\,2021_Oct_12_1635,GoNoGo,2020.1.3,59.95115535989248,
IN DIESEM BLOCK KÖNNEN SIE EINFACH ENTSPANNT AN DIE AUFGABE HERANGEHEN. SIE SOLLEN SICH NICHT VERAUSGABEN.,100,Go,go,4,1,0,0,0,0,,,,,49,2,149,0,,,,,,,,,,,,1,731.7546808203406,None,731.7546808203406,None,,,,101,111,730.9702276927201,731.4706476064639,731.4539674482985,731.5540521894873,4,1,0.2650806499841565,731.4539674482985,None,731.5540521894873,None,731.4539674482985,None,False,None,None,None,None,None,None,None,None,,,,,,,,,,,,,,,,,,,,,,,,,,,,AH17AR05b,1,0xC010,G:\Experimente\CoScience\Tasks\Logfiles\,2021_Oct_12_1635,GoNoGo,2020.1.3,59.95115535989248,
IN DIESEM BLOCK KÖNNEN SIE EINFACH ENTSPANNT AN DIE AUFGABE HERANGEHEN. SIE SOLLEN SICH NICHT VERAUSGABEN.,100,Go,go,4,1,0,0,0,0,,,,,50,0,150,1,,,,,,,,,,,,1,733.6058262849365,None,733.6058262849365,None,,,,101,111,732.7550752096286,733.2555018326566,733.2388205076604,733.3389052488492,4,1,0.3361766117232037,733.2388205076604,None,733.3389052488492,None,733.2388205076604,None,False,None,None,None,None,None,None,None,None,,,,,,,,,,,,,,,,,,,,,,,,,,,,AH17AR05b,1,0xC010,G:\Experimente\CoScience\Tasks\Logfiles\,2021_Oct_12_1635,GoNoGo,2020.1.3,59.95115535989248,
IN DIESEM BLOCK KÖNNEN SIE EINFACH ENTSPANNT AN DIE AUFGABE HERANGEHEN. SIE SOLLEN SICH NICHT VERAUSGABEN.,100,Go,go,4,1,0,0,0,0,,,,,50,1,151,0,,,,,,,,,,,,1,735.457849207356,None,735.457849207356,None,,,,101,111,734.6066544440982,735.1070763997996,735.0903965333418,735.1904809828229,4,1,0.3195644215338689,735.0903965333418,None,735.1904809828229,None,735.0903965333418,None,False,None,None,None,None,None,None,None,None,,,,,,,,,,,,,,,,,,,,,,,,,,,,AH17AR05b,1,0xC010,G:\Experimente\CoScience\Tasks\Logfiles\,2021_Oct_12_1635,GoNoGo,2020.1.3,59.95115535989248,
IN DIESEM BLOCK KÖNNEN SIE EINFACH ENTSPANNT AN DIE AUFGABE HERANGEHEN. SIE SOLLEN SICH NICHT VERAUSGABEN.,100,NoGo,nogo,None,2,0,0,0,0,,,,,50,2,152,2,,,,,,,,,,,,0.9,737.6425931679078,None,737.6425931679078,None,,,,102,0,736.4582278444104,736.958652425481,736.9419719756079,737.0420567167967,None,1,,736.9419719756079,None,737.0420567167967,None,736.9419719756079,None,False,None,None,None,None,None,None,None,None,,,,,,,,,,,,,,,,,,,,,,,,,,,,AH17AR05b,1,0xC010,G:\Experimente\CoScience\Tasks\Logfiles\,2021_Oct_12_1635,GoNoGo,2020.1.3,59.95115535989248,
IN DIESEM BLOCK KÖNNEN SIE EINFACH ENTSPANNT AN DIE AUFGABE HERANGEHEN. SIE SOLLEN SICH NICHT VERAUSGABEN.,100,NoGo,nogo,None,2,0,0,0,0,,,,,51,0,153,2,,,,,,,,,,,,0.9,739.7276954917979,None,739.7276954917979,None,,,,102,0,738.5433351273387,739.043761458659,739.0270772165823,739.1271645831439,None,1,,739.0270772165823,None,739.1271645831439,None,739.0270772165823,None,False,None,None,None,None,None,None,None,None,,,,,,,,,,,,,,,,,,,,,,,,,,,,AH17AR05b,1,0xC010,G:\Experimente\CoScience\Tasks\Logfiles\,2021_Oct_12_1635,GoNoGo,2020.1.3,59.95115535989248,
IN DIESEM BLOCK KÖNNEN SIE EINFACH ENTSPANNT AN DIE AUFGABE HERANGEHEN. SIE SOLLEN SICH NICHT VERAUSGABEN.,100,NoGo,nogo,None,2,0,0,0,0,,,,,51,1,154,2,,,,,,,,,,,,0.9,741.8128042332683,None,741.8128042332683,None,,,,102,0,740.6284418268515,741.1288675747528,741.1121871248833,741.2122724494875,None,1,,741.1121871248833,None,741.2122724494875,None,741.1121871248833,None,False,None,None,None,None,None,None,None,None,,,,,,,,,,,,,,,,,,,,,,,,,,,,AH17AR05b,1,0xC010,G:\Experimente\CoScience\Tasks\Logfiles\,2021_Oct_12_1635,GoNoGo,2020.1.3,59.95115535989248,
IN DIESEM BLOCK KÖNNEN SIE EINFACH ENTSPANNT AN DIE AUFGABE HERANGEHEN. SIE SOLLEN SICH NICHT VERAUSGABEN.,100,NoGo,nogo,None,2,0,0,0,0,,,,,51,2,155,2,,,,,,,,,,,,1,743.4980077798537,None,743.4980077798537,None,,,,102,120,742.713552901987,743.213974565977,743.1972955746423,743.2973823577886,4,0,0.2595139852128341,743.1972955746423,None,743.2973823577886,None,743.1972955746423,None,False,None,None,None,None,None,None,None,None,,,,,,,,,,,,,,,,,,,,,,,,,,,,AH17AR05b,1,0xC010,G:\Experimente\CoScience\Tasks\Logfiles\,2021_Oct_12_1635,GoNoGo,2020.1.3,59.95115535989248,
IN DIESEM BLOCK KÖNNEN SIE EINFACH ENTSPANNT AN DIE AUFGABE HERANGEHEN. SIE SOLLEN SICH NICHT VERAUSGABEN.,100,Go,go,4,1,0,0,0,0,,,,,52,0,156,0,,,,,,,,,,,,1,745.2495151082912,None,745.2495151082912,None,,,,101,111,744.4984039193914,744.998828500462,744.982178679933,745.0822310415278,4,1,0.2305718790521496,744.982178679933,None,745.0822310415278,None,744.982178679933,None,False,None,None,None,None,None,None,None,None,,,,,,,,,,,,,,,,,,,,,,,,,,,,AH17AR05b,1,0xC010,G:\Experimente\CoScience\Tasks\Logfiles\,2021_Oct_12_1635,GoNoGo,2020.1.3,59.95115535989248,
IN DIESEM BLOCK KÖNNEN SIE EINFACH ENTSPANNT AN DIE AUFGABE HERANGEHEN. SIE SOLLEN SICH NICHT VERAUSGABEN.,100,NoGo,nogo,None,2,0,0,0,0,,,,,52,1,157,2,,,,,,,,,,,,0.9,747.4342599439624,None,747.4342599439624,None,,,,102,0,746.2498934536343,746.7503183264125,746.7336378765394,746.833724367978,None,1,,746.7336378765394,None,746.833724367978,None,746.7336378765394,None,False,None,None,None,None,None,None,None,None,,,,,,,,,,,,,,,,,,,,,,,,,,,,AH17AR05b,1,0xC010,G:\Experimente\CoScience\Tasks\Logfiles\,2021_Oct_12_1635,GoNoGo,2020.1.3,59.95115535989248,
IN DIESEM BLOCK KÖNNEN SIE EINFACH ENTSPANNT AN DIE AUFGABE HERANGEHEN. SIE SOLLEN SICH NICHT VERAUSGABEN.,100,NoGo,nogo,None,2,0,0,0,0,,,,,52,2,158,2,,,,,,,,,,,,0.9,749.5193631429793,None,749.5193631429793,None,,,,102,0,748.33500277852,748.835425317633,748.8187448677636,748.9188304840754,None,1,,748.8187448677636,None,748.9188304840754,None,748.8187448677636,None,False,None,None,None,None,None,None,None,None,,,,,,,,,,,,,,,,,,,,,,,,,,,,AH17AR05b,1,0xC010,G:\Experimente\CoScience\Tasks\Logfiles\,2021_Oct_12_1635,GoNoGo,2020.1.3,59.95115535989248,
IN DIESEM BLOCK KÖNNEN SIE EINFACH ENTSPANNT AN DIE AUFGABE HERANGEHEN. SIE SOLLEN SICH NICHT VERAUSGABEN.,100,NoGo,nogo,None,2,0,0,0,0,,,,,53,0,159,2,,,,,,,,,,,,0.9,751.604459632712,None,751.604459632712,None,,,,102,0,750.4201091863251,750.9205355176455,750.9038530258149,751.0039371835883,None,1,,750.9038530258149,None,751.0039371835883,None,750.9038530258149,None,False,None,None,None,None,None,None,None,None,,,,,,,,,,,,,,,,,,,,,,,,,,,,AH17AR05b,1,0xC010,G:\Experimente\CoScience\Tasks\Logfiles\,2021_Oct_12_1635,GoNoGo,2020.1.3,59.95115535989248,
IN DIESEM BLOCK KÖNNEN SIE EINFACH ENTSPANNT AN DIE AUFGABE HERANGEHEN. SIE SOLLEN SICH NICHT VERAUSGABEN.,100,Go,go,4,1,0,0,0,0,,,,,53,1,160,1,,,,,,,,,,,,1,753.2896812651961,None,753.2896812651961,None,,,,101,111,752.5052188029185,753.0056407586162,752.9889608921621,753.0890453416432,4,1,0.2586423615539388,752.9889608921621,None,753.0890453416432,None,752.9889608921621,None,False,None,None,None,None,None,None,None,None,,,,,,,,,,,,,,,,,,,,,,,,,,,,AH17AR05b,1,0xC010,G:\Experimente\CoScience\Tasks\Logfiles\,2021_Oct_12_1635,GoNoGo,2020.1.3,59.95115535989248,
IN DIESEM BLOCK KÖNNEN SIE EINFACH ENTSPANNT AN DIE AUFGABE HERANGEHEN. SIE SOLLEN SICH NICHT VERAUSGABEN.,100,Go,go,4,1,0,0,0,0,,,,,53,2,161,1,,,,,,,,,,,,1,755.157945908577,None,755.157945908577,None,,,,101,111,754.2900674866578,754.7904944013935,754.7738122012743,754.8738986927092,4,1,0.34176282093540067,754.7738122012743,None,754.8738986927092,None,754.7738122012743,None,False,None,None,None,None,None,None,None,None,,,,,,,,,,,,,,,,,,,,,,,,,,,,AH17AR05b,1,0xC010,G:\Experimente\CoScience\Tasks\Logfiles\,2021_Oct_12_1635,GoNoGo,2020.1.3,59.95115535989248,
