SubsetIndex,rep_Practice,ImageFilePrac,ColourPrac,CorrAnsPrac,TriggerConditionPrac,TriggerSpecificPrac,Primer,Condition,ImageFile,Colour,CorrAns,TriggerCondition,TriggerSpecific,Blocks.thisRepN,Blocks.thisTrialN,Blocks.thisN,Blocks.thisIndex,Practices.thisRepN,Practices.thisTrialN,Practices.thisN,Practices.thisIndex,trials.thisRepN,trials.thisTrialN,trials.thisN,trials.thisIndex,CountdownLoop.thisRepN,CountdownLoop.thisTrialN,CountdownLoop.thisN,CountdownLoop.thisIndex,jitter,jitter_black,Fixation.started,Fixation.stopped,square1.started,square1.stopped,image_black_practice.started,image_black_practice.stopped,image_prompt_practice.started,image_prompt_practice.stopped,response_practice.keys,response_practice.corr,response_practice.rt,breakslide.keys,breakslide.rt,Trigger_Picture,Trigger_Target,Trigger_Response,image_black.started,image_black.stopped,image_prompt.started,image_prompt.stopped,Response.keys,Response.corr,Response.rt,Response.started,Response.stopped,square2.started,square2.stopped,showReminder,Reminder_Errors_Resp.keys,Reminder_Errors_Resp.started,Reminder_Errors_Resp.stopped,break_slide.started,break_slide.stopped,participant,session,EEGPort,LogFilesFolder,date,expName,psychopyVersion,frameRate,
Subset1,5,PracticeStimuli/practice_yellow.png,yellow,3,9,0,PracticeStimuli/practice_black.png,Scramble,,,,,,0,0,0,0,0,0,0,3,,,,,,,,,1.167955085311913,1.3064309424688758,44.21880116741522,None,44.21880116741522,None,45.43649763643589,46.75428263884896,46.720921447396904,None,3,1,0.755729510790843,,,,,,,,,,,,,,,,,,,,,,,AM04EN20b,1,0xC010,G:\Experimente\CoScience\Tasks\Logfiles\,2022_Feb_16_1133,Stroop,2020.1.3,59.94717155343167,
Subset1,5,PracticeStimuli/practice_green.png,green,1,9,0,PracticeStimuli/practice_black.png,Scramble,,,,,,0,0,0,0,0,1,1,2,,,,,,,,,1.050943385288879,1.108605942938554,47.50493263731914,None,47.50493263731914,None,48.572499515035815,49.69011532677905,49.67343283495029,None,1,1,0.44813999652978964,,,,,,,,,,,,,,,,,,,,,,,AM04EN20b,1,0xC010,G:\Experimente\CoScience\Tasks\Logfiles\,2022_Feb_16_1133,Stroop,2020.1.3,59.94717155343167,
Subset1,5,PracticeStimuli/practice_blue.png,blue,4,9,0,PracticeStimuli/practice_black.png,Scramble,,,,,,0,0,0,0,0,2,2,0,,,,,,,,,1.1018114776535535,1.1430686948030102,50.14049884994165,None,50.14049884994165,None,51.27480152913449,52.425774740124325,52.39241384037996,None,4,1,0.37012851198232966,,,,,,,,,,,,,,,,,,,,,,,AM04EN20b,1,0xC010,G:\Experimente\CoScience\Tasks\Logfiles\,2022_Feb_16_1133,Stroop,2020.1.3,59.94717155343167,
Subset1,5,PracticeStimuli/practice_red.png,red,2,9,0,PracticeStimuli/practice_black.png,Scramble,,,,,,0,0,0,0,0,3,3,1,,,,,,,,,1.175354491690245,1.1396610358249566,52.79275484709433,None,52.79275484709433,None,54.01046152589515,55.16143327834652,55.128074712267335,None,2,1,0.2873896067339956,,,,,,,,,,,,,,,,,,,,,,,AM04EN20b,1,0xC010,G:\Experimente\CoScience\Tasks\Logfiles\,2022_Feb_16_1133,Stroop,2020.1.3,59.94717155343167,
Subset1,5,PracticeStimuli/practice_blue.png,blue,4,9,0,PracticeStimuli/practice_black.png,Scramble,,,,,,0,0,0,0,1,0,4,0,,,,,,,,,1.117313266452102,1.2347527831936584,55.4450120110796,None,55.4450120110796,None,56.56263249015137,57.797012034416184,57.797012034416184,None,4,1,0.7714047347126325,,,,,,,,,,,,,,,,,,,,,,,AM04EN20b,1,0xC010,G:\Experimente\CoScience\Tasks\Logfiles\,2022_Feb_16_1133,Stroop,2020.1.3,59.94717155343167,
Subset1,5,PracticeStimuli/practice_red.png,red,2,9,0,PracticeStimuli/practice_black.png,Scramble,,,,,,0,0,0,0,1,1,5,1,,,,,,,,,1.1615465404260998,1.3534802586899333,58.59769375613541,None,58.59769375613541,None,59.765357626780315,61.13318222856287,61.116509363098885,None,2,1,0.317838968403521,,,,,,,,,,,,,,,,,,,,,,,AM04EN20b,1,0xC010,G:\Experimente\CoScience\Tasks\Logfiles\,2022_Feb_16_1133,Stroop,2020.1.3,59.94717155343167,
Subset1,5,PracticeStimuli/practice_green.png,green,1,9,0,PracticeStimuli/practice_black.png,Scramble,,,,,,0,0,0,0,1,2,6,2,,,,,,,,,1.4298173051869014,1.0698103919666484,61.466801144079,None,61.466801144079,None,62.901365631249064,63.98561937641534,63.96892930017748,None,1,1,0.29634329370492196,,,,,,,,,,,,,,,,,,,,,,,AM04EN20b,1,0xC010,G:\Experimente\CoScience\Tasks\Logfiles\,2022_Feb_16_1133,Stroop,2020.1.3,59.94717155343167,
Subset1,5,PracticeStimuli/practice_yellow.png,yellow,3,9,0,PracticeStimuli/practice_black.png,Scramble,,,,,,0,0,0,0,1,3,7,3,,,,,,,,,1.3390420663596585,1.4923314558762628,64.28586922436261,None,64.28586922436261,None,65.63701833531013,67.13829266193898,67.12161192035819,None,3,1,0.28558043339035066,,,,,,,,,,,,,,,,,,,,,,,AM04EN20b,1,0xC010,G:\Experimente\CoScience\Tasks\Logfiles\,2022_Feb_16_1133,Stroop,2020.1.3,59.94717155343167,
Subset1,5,PracticeStimuli/practice_blue.png,blue,4,9,0,PracticeStimuli/practice_black.png,Scramble,,,,,,0,0,0,0,2,0,8,0,,,,,,,,,1.1179123707508578,1.0547462268454626,67.43854892746276,None,67.43854892746276,None,68.5561729070323,69.62374299353723,69.60706050170847,None,4,1,0.46708905992636574,,,,,,,,,,,,,,,,,,,,,,,AM04EN20b,1,0xC010,G:\Experimente\CoScience\Tasks\Logfiles\,2022_Feb_16_1133,Stroop,2020.1.3,59.94717155343167,
Subset1,5,PracticeStimuli/practice_green.png,green,1,9,0,PracticeStimuli/practice_black.png,Scramble,,,,,,0,0,0,0,2,1,9,2,,,,,,,,,1.2963652815245799,1.3518347138329925,70.0908087168209,None,70.0908087168209,None,71.39191618644327,72.74306150518532,72.74306150518532,None,1,1,0.4840720110496477,,,,,,,,,,,,,,,,,,,,,,,AM04EN20b,1,0xC010,G:\Experimente\CoScience\Tasks\Logfiles\,2022_Feb_16_1133,Stroop,2020.1.3,59.94717155343167,
Subset1,5,PracticeStimuli/practice_yellow.png,yellow,3,9,0,PracticeStimuli/practice_black.png,Scramble,,,,,,0,0,0,0,2,2,10,3,,,,,,,,,1.0594182488566801,1.2691110131707397,73.26017091174799,None,73.26017091174799,None,74.32774624899866,75.6121691848366,75.59548902667302,None,3,1,0.40856133964007313,,,,,,,,,,,,,,,,,,,,,,,AM04EN20b,1,0xC010,G:\Experimente\CoScience\Tasks\Logfiles\,2022_Feb_16_1133,Stroop,2020.1.3,59.94717155343167,
Subset1,5,PracticeStimuli/practice_red.png,red,2,9,0,PracticeStimuli/practice_black.png,Scramble,,,,,,0,0,0,0,2,3,11,1,,,,,,,,,1.0578924083974761,1.3180912995334821,76.02918889117427,None,76.02918889117427,None,77.09676772892271,78.41455418987607,78.41455418987607,None,2,1,0.4934314639231161,,,,,,,,,,,,,,,,,,,,,,,AM04EN20b,1,0xC010,G:\Experimente\CoScience\Tasks\Logfiles\,2022_Feb_16_1133,Stroop,2020.1.3,59.94717155343167,
Subset1,5,PracticeStimuli/practice_red.png,red,2,9,0,PracticeStimuli/practice_black.png,Scramble,,,,,,0,0,0,0,3,0,12,1,,,,,,,,,1.1537508948091766,1.2951105597747512,78.93166330473105,None,78.93166330473105,None,80.09933475978687,81.4004279357141,81.38374748584101,None,2,1,0.47716115557341254,,,,,,,,,,,,,,,,,,,,,,,AM04EN20b,1,0xC010,G:\Experimente\CoScience\Tasks\Logfiles\,2022_Feb_16_1133,Stroop,2020.1.3,59.94717155343167,
Subset1,5,PracticeStimuli/practice_green.png,green,1,9,0,PracticeStimuli/practice_black.png,Scramble,,,,,,0,0,0,0,3,1,13,2,,,,,,,,,1.3625736062386187,1.1219603026223106,81.88417352545184,None,81.88417352545184,None,83.2520065867684,84.38630226496753,84.36962123167905,None,1,1,0.4992288697631011,,,,,,,,,,,,,,,,,,,,,,,AM04EN20b,1,0xC010,G:\Experimente\CoScience\Tasks\Logfiles\,2022_Feb_16_1133,Stroop,2020.1.3,59.94717155343167,
Subset1,5,PracticeStimuli/practice_blue.png,blue,4,9,0,PracticeStimuli/practice_black.png,Scramble,,,,,,0,0,0,0,3,2,14,0,,,,,,,,,1.0254211796447068,1.005043490303907,84.88672801287066,None,84.88672801287066,None,85.92094507574984,86.93847293751423,86.92179015397778,None,4,1,0.4020361222083011,,,,,,,,,,,,,,,,,,,,,,,AM04EN20b,1,0xC010,G:\Experimente\CoScience\Tasks\Logfiles\,2022_Feb_16_1133,Stroop,2020.1.3,59.94717155343167,
Subset1,5,PracticeStimuli/practice_yellow.png,yellow,3,9,0,PracticeStimuli/practice_black.png,Scramble,,,,,,0,0,0,0,3,3,15,3,,,,,,,,,1.3015006353523095,1.3651737681163012,87.35550285363388,None,87.35550285363388,None,88.65661674083458,90.02443346649852,90.02443346649852,None,3,1,0.32830574504441756,,,,,,,,,,,,,,,,,,,,,,,AM04EN20b,1,0xC010,G:\Experimente\CoScience\Tasks\Logfiles\,2022_Feb_16_1133,Stroop,2020.1.3,59.94717155343167,
Subset1,5,PracticeStimuli/practice_green.png,green,1,9,0,PracticeStimuli/practice_black.png,Scramble,,,,,,0,0,0,0,4,0,16,2,,,,,,,,,1.0177787356265613,1.0678012865455826,90.37473166505515,None,90.37473166505515,None,91.39226623610557,92.45983748944491,92.45983748944491,None,1,1,0.5578271833983308,,,,,,,,,,,,,,,,,,,,,,,AM04EN20b,1,0xC010,G:\Experimente\CoScience\Tasks\Logfiles\,2022_Feb_16_1133,Stroop,2020.1.3,59.94717155343167,
Subset1,5,PracticeStimuli/practice_yellow.png,yellow,3,9,0,PracticeStimuli/practice_black.png,Scramble,,,,,,0,0,0,0,4,1,17,3,,,,,,,,,1.131135234388991,1.4675778706230886,93.04367307111715,None,93.04367307111715,None,94.17796904102397,95.6458877186542,95.6458877186542,None,3,1,0.4477283964661183,,,,,,,,,,,,,,,,,,,,,,,AM04EN20b,1,0xC010,G:\Experimente\CoScience\Tasks\Logfiles\,2022_Feb_16_1133,Stroop,2020.1.3,59.94717155343167,
Subset1,5,PracticeStimuli/practice_blue.png,blue,4,9,0,PracticeStimuli/practice_black.png,Scramble,,,,,,0,0,0,0,4,2,18,0,,,,,,,,,1.3101945537795168,1.0951073186058464,96.1129420653233,None,96.1129420653233,None,97.43073552727037,98.53167059743282,98.51497468703383,None,4,1,0.43856088749271294,,,,,,,,,,,,,,,,,,,,,,,AM04EN20b,1,0xC010,G:\Experimente\CoScience\Tasks\Logfiles\,2022_Feb_16_1133,Stroop,2020.1.3,59.94717155343167,
Subset1,5,PracticeStimuli/practice_red.png,red,2,9,0,PracticeStimuli/practice_black.png,Scramble,,,,,,0,0,0,0,4,3,19,1,,,,,,,,,1.4901488584989449,1.1973340268449422,98.98205528742801,None,98.98205528742801,None,100.4833342813854,101.68435175907325,101.66767130920016,None,2,1,0.3528109717226471,,,,,,,,,,,,,,,,,,,,,,,AM04EN20b,1,0xC010,G:\Experimente\CoScience\Tasks\Logfiles\,2022_Feb_16_1133,Stroop,2020.1.3,59.94717155343167,
Subset1,5,,,,,,Stimuli/positiv_15.png,positive_man_woman,Stimuli/positiv_13.png,yellow,3,6,61,0,0,0,0,,,,,0,0,0,11,,,,,1.020635319024674,1.0241551104806903,105.38751168655472,None,105.38751168655472,None,,,,,,,,space,2.9948863578356395,61,99,1,106.52182895115038,107.55601567639133,107.52265302639898,None,3,1,0.41371640434772416,1.0346675184518972,None,107.52265302639898,None,False,None,None,None,,,AM04EN20b,1,0xC010,G:\Experimente\CoScience\Tasks\Logfiles\,2022_Feb_16_1133,Stroop,2020.1.3,59.94717155343167,
Subset1,5,,,,,,Stimuli/man_65.png,erotic_man,Stimuli/man_63.png,yellow,3,3,36,0,0,0,0,,,,,0,1,1,88,,,,,1.198816715927741,1.3399224133650864,107.95635726652108,None,107.95635726652108,None,,,,,,,,,,36,99,1,109.22410529493936,110.57525032197373,110.55857133064092,None,3,1,0.4277116815937916,1.3554464081244078,None,110.55857133064092,None,False,None,None,None,,,AM04EN20b,1,0xC010,G:\Experimente\CoScience\Tasks\Logfiles\,2022_Feb_16_1133,Stroop,2020.1.3,59.94717155343167,
Subset1,5,,,,,,Stimuli/neutral_couple_55.png,neutral_couple,Stimuli/neutral_couple_53.png,yellow,3,5,55,0,0,0,0,,,,,0,2,2,14,,,,,1.1010611001708535,1.151964321644879,111.00895368697093,None,111.00895368697093,None,,,,,,,,,,55,99,1,112.17662980935529,113.34427413555932,113.32759310227266,None,3,1,0.3736298837411596,1.1566450365171477,None,113.32759310227266,None,False,None,None,None,,,AM04EN20b,1,0xC010,G:\Experimente\CoScience\Tasks\Logfiles\,2022_Feb_16_1133,Stroop,2020.1.3,59.94717155343167,
Subset1,5,,,,,,Stimuli/tree_65.png,tree,Stimuli/tree_62.png,red,2,1,16,0,0,0,0,,,,,0,3,3,56,,,,,1.4665700154384231,1.2997464341939557,113.72793323386213,None,113.72793323386213,None,,,,,,,,,,16,99,1,115.26257283585437,116.56367797181338,116.54699752194028,None,2,1,0.5271695421797631,1.3113687379409384,None,116.54699752194028,None,False,None,None,None,,,AM04EN20b,1,0xC010,G:\Experimente\CoScience\Tasks\Logfiles\,2022_Feb_16_1133,Stroop,2020.1.3,59.94717155343167,
Subset1,5,,,,,,Stimuli/couple_85.png,erotic_couple,Stimuli/couple_84.png,blue,4,2,28,0,0,0,0,,,,,0,4,4,89,,,,,1.058221336874372,1.4583532614085857,117.09746753653963,None,117.09746753653963,None,,,,,,,,,,28,99,1,118.21509384977435,119.6829999839556,119.66631836725173,None,4,1,0.6817646003528353,1.4593021468244842,None,119.66631836725173,None,False,None,None,None,,,AM04EN20b,1,0xC010,G:\Experimente\CoScience\Tasks\Logfiles\,2022_Feb_16_1133,Stroop,2020.1.3,59.94717155343167,
Subset1,5,,,,,,Stimuli/woman_15.png,erotic_woman,Stimuli/woman_11.png,green,1,7,71,0,0,0,0,,,,,0,5,5,73,,,,,1.2957475848016022,1.094747219046015,120.36691709803017,None,120.36691709803017,None,,,,,,,,,,71,99,1,121.71806795922566,122.81899982059986,122.80232024585166,None,1,1,0.5347303231992555,1.1024513102802302,None,122.80232024585166,None,False,None,None,None,,,AM04EN20b,1,0xC010,G:\Experimente\CoScience\Tasks\Logfiles\,2022_Feb_16_1133,Stroop,2020.1.3,59.94717155343167,
Subset1,5,,,,,,Stimuli/couple_65.png,erotic_couple,Stimuli/couple_64.png,blue,4,2,26,0,0,0,0,,,,,0,6,6,34,,,,,1.4765879746770147,1.0024195148379182,123.3694704186164,None,123.3694704186164,None,,,,,,,,,,26,99,1,124.92079134560663,125.9383215410362,125.9049635583724,None,4,1,0.5840173157903337,1.0026401037303003,None,125.9049635583724,None,False,None,None,None,,,AM04EN20b,1,0xC010,G:\Experimente\CoScience\Tasks\Logfiles\,2022_Feb_16_1133,Stroop,2020.1.3,59.94717155343167,
Subset1,5,,,,,,Stimuli/positiv_35.png,positive_man_woman,Stimuli/positiv_33.png,yellow,3,6,63,0,0,0,0,,,,,0,7,7,2,,,,,1.1001346606986504,1.0169660377412622,126.50547054696835,None,126.50547054696835,None,,,,,,,,,,63,99,1,127.68981486748453,128.70736635760295,128.69066344621024,None,3,1,0.4672410398234206,1.0267003881162964,None,128.69066344621024,None,False,None,None,None,,,AM04EN20b,1,0xC010,G:\Experimente\CoScience\Tasks\Logfiles\,2022_Feb_16_1133,Stroop,2020.1.3,59.94717155343167,
Subset1,5,,,,,,Stimuli/man_45.png,erotic_man,Stimuli/man_43.png,yellow,3,3,34,0,0,0,0,,,,,0,8,8,110,,,,,1.077024528997951,1.1890862667823061,129.17441078619777,None,129.17441078619777,None,,,,,,,,,,34,99,1,130.32539070647363,131.52641139294974,131.49304611758453,None,3,1,0.3468064531643904,1.2002259278851852,None,131.49304611758453,None,False,None,None,None,,,AM04EN20b,1,0xC010,G:\Experimente\CoScience\Tasks\Logfiles\,2022_Feb_16_1133,Stroop,2020.1.3,59.94717155343167,
Subset1,5,,,,,,Stimuli/man_65.png,erotic_man,Stimuli/man_64.png,blue,4,3,36,0,0,0,0,,,,,0,9,9,75,,,,,1.1889291064292493,1.1722400975046376,131.8600285582179,None,131.8600285582179,None,,,,,,,,,,36,99,1,133.11109526164,134.29543403970456,134.26207080629683,None,4,1,0.48071795185933297,1.1747351072099264,None,134.26207080629683,None,False,None,None,None,,,AM04EN20b,1,0xC010,G:\Experimente\CoScience\Tasks\Logfiles\,2022_Feb_16_1133,Stroop,2020.1.3,59.94717155343167,
Subset1,5,,,,,,Stimuli/neutral_couple_35.png,neutral_couple,Stimuli/neutral_couple_32.png,red,2,5,53,0,0,0,0,,,,,0,10,10,68,,,,,1.0598585840714612,1.3482543932023356,134.76250676398013,None,134.76250676398013,None,,,,,,,,,,53,99,1,135.8967989416833,137.24794396871766,137.23126293542919,None,2,1,0.3114593132886512,1.360613432865648,None,137.23126293542919,None,False,None,None,None,,,AM04EN20b,1,0xC010,G:\Experimente\CoScience\Tasks\Logfiles\,2022_Feb_16_1133,Stroop,2020.1.3,59.94717155343167,
Subset1,5,,,,,,Stimuli/couple_55.png,erotic_couple,Stimuli/couple_53.png,yellow,3,2,25,0,0,0,0,,,,,0,11,11,58,,,,,1.0522361228178418,1.4624141487705256,137.56488039240685,None,137.56488039240685,None,,,,,,,,,,25,99,1,138.6991810296422,140.16709095602891,140.13373851581855,None,3,1,0.6299056178595492,1.462495387366289,None,140.13373851581855,None,False,None,None,None,,,AM04EN20b,1,0xC010,G:\Experimente\CoScience\Tasks\Logfiles\,2022_Feb_16_1133,Stroop,2020.1.3,59.94717155343167,
Subset1,5,,,,,,Stimuli/man_35.png,erotic_man,Stimuli/man_31.png,green,1,3,33,0,0,0,0,,,,,0,12,12,49,,,,,1.043236892809841,1.2365917945285414,140.78428860427994,None,140.78428860427994,None,,,,,,,,,,33,99,1,141.90204501930384,143.1529684940724,143.11960555237238,None,1,1,0.4749847217917704,1.2495791382061725,None,143.11960555237238,None,False,None,None,None,,,AM04EN20b,1,0xC010,G:\Experimente\CoScience\Tasks\Logfiles\,2022_Feb_16_1133,Stroop,2020.1.3,59.94717155343167,
Subset1,5,,,,,,Stimuli/neutral_couple_65.png,neutral_couple,Stimuli/neutral_couple_64.png,blue,4,5,56,0,0,0,0,,,,,0,13,13,83,,,,,1.2268444189878929,1.4282392869126395,143.62004121834798,None,143.62004121834798,None,,,,,,,,,,56,99,2,144.93782067830944,146.37237291374004,146.33901259741288,None,2,0,0.48049479519977467,1.4286242027246772,None,146.33901259741288,None,False,None,None,None,,,AM04EN20b,1,0xC010,G:\Experimente\CoScience\Tasks\Logfiles\,2022_Feb_16_1133,Stroop,2020.1.3,59.94717155343167,
Subset1,5,,,,,,Stimuli/positiv_55.png,positive_man_woman,Stimuli/positiv_53.png,yellow,3,6,65,0,0,0,0,,,,,0,14,14,85,,,,,1.0617776984836498,1.2292805336319699,146.83946139025102,None,146.83946139025102,None,,,,,,,,,,65,99,1,147.97373781571878,149.20815440690603,149.17475470999125,None,3,1,0.5347262392842822,1.2309897508348513,None,149.17475470999125,None,False,None,None,None,,,AM04EN20b,1,0xC010,G:\Experimente\CoScience\Tasks\Logfiles\,2022_Feb_16_1133,Stroop,2020.1.3,59.94717155343167,
Subset1,5,,,,,,Stimuli/woman_45.png,erotic_woman,Stimuli/woman_44.png,blue,4,7,74,0,0,0,0,,,,,0,15,15,109,,,,,1.1761448533717114,1.4154003183447947,149.74190750812886,None,149.74190750812886,None,,,,,,,,,,74,99,1,150.9929715861781,152.41084366344512,152.39416438040462,None,4,1,0.6452057052265445,1.4221483714663918,None,152.39416438040462,None,False,None,None,None,,,AM04EN20b,1,0xC010,G:\Experimente\CoScience\Tasks\Logfiles\,2022_Feb_16_1133,Stroop,2020.1.3,59.94717155343167,
Subset1,5,,,,,,Stimuli/tree_75.png,tree,Stimuli/tree_72.png,red,2,1,17,0,0,0,0,,,,,0,16,16,42,,,,,1.3902597773805443,1.1333866736303015,153.06142875687146,None,153.06142875687146,None,,,,,,,,,,17,99,1,154.52931738857114,155.6636107331069,155.64692824127815,None,2,1,0.5064010956557468,1.1475524965098884,None,155.64692824127815,None,False,None,None,None,,,AM04EN20b,1,0xC010,G:\Experimente\CoScience\Tasks\Logfiles\,2022_Feb_16_1133,Stroop,2020.1.3,59.94717155343167,
Subset1,5,,,,,,Stimuli/tree_65.png,tree,Stimuli/tree_63.png,yellow,3,1,16,0,0,0,0,,,,,0,17,17,87,,,,,1.4188644482352852,1.0266595486485075,156.18071984796188,None,156.18071984796188,None,,,,,,,,,,16,99,1,157.64863735875952,158.68284858747757,158.6661655122316,None,3,1,0.5240876466014015,1.0295473420283088,None,158.6661655122316,None,False,None,None,None,,,AM04EN20b,1,0xC010,G:\Experimente\CoScience\Tasks\Logfiles\,2022_Feb_16_1133,Stroop,2020.1.3,59.94717155343167,
Subset1,5,,,,,,Stimuli/man_85.png,erotic_man,Stimuli/man_84.png,blue,4,3,38,0,0,0,0,,,,,0,18,18,19,,,,,1.489301285796422,1.408389807976801,159.21663873562102,None,159.21663873562102,None,,,,,,,,,,38,99,1,160.78464565493596,162.2025072307133,162.1858276559651,None,4,1,0.5513696422349312,1.4199745630576217,None,162.1858276559651,None,False,None,None,None,,,AM04EN20b,1,0xC010,G:\Experimente\CoScience\Tasks\Logfiles\,2022_Feb_16_1133,Stroop,2020.1.3,59.94717155343167,
Subset1,5,,,,,,Stimuli/positiv_75.png,positive_man_woman,Stimuli/positiv_74.png,blue,4,6,67,0,0,0,0,,,,,0,19,19,69,,,,,1.4157810792053318,1.4923272349891448,162.76965711177036,None,162.76965711177036,None,,,,,,,,,,67,99,1,164.2542597397678,165.75553056589888,165.7388501160276,None,4,1,0.8202410383637471,1.5012875993452326,None,165.7388501160276,None,False,None,None,None,,,AM04EN20b,1,0xC010,G:\Experimente\CoScience\Tasks\Logfiles\,2022_Feb_16_1133,Stroop,2020.1.3,59.94717155343167,
Subset1,5,,,,,,Stimuli/tree_45.png,tree,Stimuli/tree_43.png,yellow,3,1,14,0,0,0,0,,,,,0,20,20,44,,,,,1.0787861535520817,1.051554760014418,166.58957639615073,None,166.58957639615073,None,,,,,,,,,,14,99,1,167.7405557330112,168.79144828672543,168.77476433635638,None,3,1,0.41428202626229904,1.0579389075810468,None,168.77476433635638,None,False,None,None,None,,,AM04EN20b,1,0xC010,G:\Experimente\CoScience\Tasks\Logfiles\,2022_Feb_16_1133,Stroop,2020.1.3,59.94717155343167,
Subset1,5,,,,,,Stimuli/neutral_couple_15.png,neutral_couple,Stimuli/neutral_couple_13.png,yellow,3,5,51,0,0,0,0,,,,,0,21,21,47,,,,,1.4640777251398145,1.0988587242256351,169.20846945160338,None,169.20846945160338,None,,,,,,,,,,51,99,1,170.74310963701282,171.84404820767304,171.8273630904714,None,3,1,0.45261071414643084,1.1105855018195143,None,171.8273630904714,None,False,None,None,None,,,AM04EN20b,1,0xC010,G:\Experimente\CoScience\Tasks\Logfiles\,2022_Feb_16_1133,Stroop,2020.1.3,59.94717155343167,
Subset1,5,,,,,,Stimuli/couple_65.png,erotic_couple,Stimuli/couple_61.png,green,1,2,26,0,0,0,0,,,,,0,22,22,101,,,,,1.218298824007409,1.4654218679905726,172.31111655632776,None,172.31111655632776,None,,,,,,,,,,26,99,1,173.57885845887722,175.04676926038883,175.04676926038883,None,1,1,0.46015049218476634,1.478445196080429,None,175.04676926038883,None,False,None,None,None,,,AM04EN20b,1,0xC010,G:\Experimente\CoScience\Tasks\Logfiles\,2022_Feb_16_1133,Stroop,2020.1.3,59.94717155343167,
Subset1,5,,,,,,Stimuli/neutral_couple_55.png,neutral_couple,Stimuli/neutral_couple_51.png,green,1,5,55,0,0,0,0,,,,,0,23,23,50,,,,,1.3143989874686581,1.2475844595887935,175.53051485012838,None,175.53051485012838,None,,,,,,,,,,55,99,2,176.89834557777976,178.14940848899641,178.11604729754436,None,3,0,0.45680635106691625,1.2471265444110031,None,178.11604729754436,None,False,None,None,None,,,AM04EN20b,1,0xC010,G:\Experimente\CoScience\Tasks\Logfiles\,2022_Feb_16_1133,Stroop,2020.1.3,59.94717155343167,
Subset1,5,,,,,,Stimuli/tree_45.png,tree,Stimuli/tree_42.png,red,2,1,14,0,0,0,0,,,,,0,24,24,64,,,,,1.4198424166904577,1.3543471874522544,178.599793762407,None,178.599793762407,None,,,,,,,,,,14,99,1,180.08438822257995,181.45221924193902,181.41885688365437,None,2,1,0.46690586726981564,1.3664584746293258,None,181.41885688365437,None,False,None,None,None,,,AM04EN20b,1,0xC010,G:\Experimente\CoScience\Tasks\Logfiles\,2022_Feb_16_1133,Stroop,2020.1.3,59.94717155343167,
Subset1,5,,,,,,Stimuli/positiv_45.png,positive_man_woman,Stimuli/positiv_43.png,yellow,3,6,64,0,0,0,0,,,,,0,25,25,20,,,,,1.401642678253451,1.3229515165862944,181.902603348517,None,181.902603348517,None,,,,,,,,,,64,99,1,183.35384274310672,184.6883058617277,184.67162278648357,None,3,1,0.6170287492859643,1.3275840009791864,None,184.67162278648357,None,False,None,None,None,,,AM04EN20b,1,0xC010,G:\Experimente\CoScience\Tasks\Logfiles\,2022_Feb_16_1133,Stroop,2020.1.3,59.94717155343167,
Subset1,5,,,,,,Stimuli/neutral_35.png,neutral_man_woman,Stimuli/neutral_33.png,yellow,3,4,43,0,0,0,0,,,,,0,26,26,9,,,,,1.2937037571383057,1.476434335549693,185.30550000948097,None,185.30550000948097,None,,,,,,,,,,43,99,1,186.67332898688437,188.15792373876502,188.1412470810974,None,3,1,0.6303659331679228,1.4912295056856237,None,188.1412470810974,None,False,None,None,None,,,AM04EN20b,1,0xC010,G:\Experimente\CoScience\Tasks\Logfiles\,2022_Feb_16_1133,Stroop,2020.1.3,59.94717155343167,
Subset1,5,,,,,,Stimuli/neutral_35.png,neutral_man_woman,Stimuli/neutral_34.png,blue,4,4,43,0,0,0,0,,,,,0,27,27,84,,,,,1.350728672523875,1.214548482677443,188.79179804468185,None,188.79179804468185,None,,,,,,,,,,43,99,1,190.17630863878912,191.3940199849185,191.37732932526524,None,4,1,0.494207407342401,1.2297650437485572,None,191.37732932526524,None,False,None,None,None,,,AM04EN20b,1,0xC010,G:\Experimente\CoScience\Tasks\Logfiles\,2022_Feb_16_1133,Stroop,2020.1.3,59.94717155343167,
Subset1,5,,,,,,Stimuli/tree_25.png,tree,Stimuli/tree_24.png,blue,4,1,12,0,0,0,0,,,,,0,28,28,61,,,,,1.125381071785447,1.3523434188997359,191.89443727328944,None,191.89443727328944,None,,,,,,,,,,12,99,1,193.07878917821472,194.44660707071125,194.42992662083998,None,4,1,0.5685637899878202,1.3571541545788932,None,194.42992662083998,None,False,None,None,None,,,AM04EN20b,1,0xC010,G:\Experimente\CoScience\Tasks\Logfiles\,2022_Feb_16_1133,Stroop,2020.1.3,59.94717155343167,
Subset1,5,,,,,,Stimuli/positiv_45.png,positive_man_woman,Stimuli/positiv_43.png,yellow,3,6,64,0,0,0,0,,,,,0,29,29,24,,,,,1.4715595329940578,1.4810394694222901,195.03043740163957,None,195.03043740163957,None,,,,,,,,,,64,99,1,196.53172252146578,198.0163111474776,198.0163111474776,None,3,1,0.45611062736134045,1.4914885132657218,None,198.0163111474776,None,False,None,None,None,,,AM04EN20b,1,0xC010,G:\Experimente\CoScience\Tasks\Logfiles\,2022_Feb_16_1133,Stroop,2020.1.3,59.94717155343167,
Subset1,5,,,,,,Stimuli/neutral_75.png,neutral_man_woman,Stimuli/neutral_72.png,red,2,4,47,0,0,0,0,,,,,0,30,30,32,,,,,1.0684941746990917,1.3519563720254995,198.50005732063255,None,198.50005732063255,None,,,,,,,,,,47,99,1,199.6176801333695,200.9688234101559,200.9688234101559,None,2,1,0.5225415939203231,1.362167157467411,None,200.9688234101559,None,False,None,None,None,,,AM04EN20b,1,0xC010,G:\Experimente\CoScience\Tasks\Logfiles\,2022_Feb_16_1133,Stroop,2020.1.3,59.94717155343167,
Subset1,5,,,,,,Stimuli/positiv_35.png,positive_man_woman,Stimuli/positiv_32.png,red,2,6,63,0,0,0,0,,,,,0,31,31,97,,,,,1.4831116819212145,1.1031250144044922,201.51929225792264,None,201.51929225792264,None,,,,,,,,,,63,99,1,203.053931568209,204.17154562970245,204.1381853133753,None,2,1,0.40013418570379145,1.112866454594041,None,204.1381853133753,None,False,None,None,None,,,AM04EN20b,1,0xC010,G:\Experimente\CoScience\Tasks\Logfiles\,2022_Feb_16_1133,Stroop,2020.1.3,59.94717155343167,
Subset1,5,,,,,,Stimuli/positiv_65.png,positive_man_woman,Stimuli/positiv_61.png,green,1,6,66,0,0,0,0,,,,,0,32,32,67,,,,,1.3426950334414016,1.1821535746044156,204.5552088119166,None,204.5552088119166,None,,,,,,,,,,66,99,1,205.98976396442959,207.17410040882896,207.15742200091336,None,1,1,0.5197960377299751,1.1904145317275834,None,207.15742200091336,None,False,None,None,None,,,AM04EN20b,1,0xC010,G:\Experimente\CoScience\Tasks\Logfiles\,2022_Feb_16_1133,Stroop,2020.1.3,59.94717155343167,
Subset1,5,,,,,,Stimuli/tree_15.png,tree,Stimuli/tree_11.png,green,1,1,11,0,0,0,0,,,,,0,33,33,0,,,,,1.4209505142399135,1.2630318614043032,207.70789055697242,None,207.70789055697242,None,,,,,,,,,,11,99,1,209.22585904375228,210.49359219506005,210.46023042019078,None,1,1,0.32094245037660585,1.2641262395773083,None,210.46023042019078,None,False,None,None,None,,,AM04EN20b,1,0xC010,G:\Experimente\CoScience\Tasks\Logfiles\,2022_Feb_16_1133,Stroop,2020.1.3,59.94717155343167,
Subset1,5,,,,,,Stimuli/positiv_25.png,positive_man_woman,Stimuli/positiv_21.png,green,1,6,62,0,0,0,0,,,,,0,34,34,4,,,,,1.2030062500999965,1.3236905725440713,210.8105303689972,None,210.8105303689972,None,,,,,,,,,,62,99,1,212.11163783861957,213.44610766652477,213.41274297457676,None,1,1,0.4463553266632516,1.3263857809815818,None,213.41274297457676,None,False,None,None,None,,,AM04EN20b,1,0xC010,G:\Experimente\CoScience\Tasks\Logfiles\,2022_Feb_16_1133,Stroop,2020.1.3,59.94717155343167,
Subset1,5,,,,,,Stimuli/neutral_65.png,neutral_man_woman,Stimuli/neutral_61.png,green,1,4,46,0,0,0,0,,,,,0,35,35,53,,,,,1.399495296098769,1.1860548425433328,213.87980694761063,None,213.87980694761063,None,,,,,,,,,,46,99,1,215.33104575878497,216.53206352818052,216.51538307830742,None,1,1,0.33566524750676763,1.1958786902887368,None,216.51538307830742,None,False,None,None,None,,,AM04EN20b,1,0xC010,G:\Experimente\CoScience\Tasks\Logfiles\,2022_Feb_16_1133,Stroop,2020.1.3,59.94717155343167,
Subset1,5,,,,,,Stimuli/woman_85.png,erotic_woman,Stimuli/woman_83.png,yellow,3,7,78,0,0,0,0,,,,,0,36,36,18,,,,,1.2803129270136295,1.463131235130806,216.88236231015253,None,216.88236231015253,None,,,,,,,,,,78,99,1,218.23351171280774,219.7014274733574,219.68474644006892,None,3,1,0.6411970531662519,1.4699325716846943,None,219.68474644006892,None,False,None,None,None,,,AM04EN20b,1,0xC010,G:\Experimente\CoScience\Tasks\Logfiles\,2022_Feb_16_1133,Stroop,2020.1.3,59.94717155343167,
Subset1,5,,,,,,Stimuli/neutral_couple_55.png,neutral_couple,Stimuli/neutral_couple_51.png,green,1,5,55,0,0,0,0,,,,,0,37,37,81,,,,,1.1030189775452346,1.055725996957151,220.35198135402243,None,220.35198135402243,None,,,,,,,,,,55,99,1,221.4862884088343,222.5538532445953,222.53717308643172,None,1,1,0.46171463076279906,1.0584274893990369,None,222.53717308643172,None,False,None,None,None,,,AM04EN20b,1,0xC010,G:\Experimente\CoScience\Tasks\Logfiles\,2022_Feb_16_1133,Stroop,2020.1.3,59.94717155343167,
Subset1,5,,,,,,Stimuli/neutral_couple_55.png,neutral_couple,Stimuli/neutral_couple_52.png,red,2,5,55,0,0,0,0,,,,,0,38,38,98,,,,,1.2366930622813852,1.273105182012199,223.02091809275407,None,223.02091809275407,None,,,,,,,,,,55,99,1,224.32202527066875,225.60645083187956,225.57308964042568,None,2,1,0.45775236028384825,1.2748528114098008,None,225.57308964042568,None,False,None,None,None,,,AM04EN20b,1,0xC010,G:\Experimente\CoScience\Tasks\Logfiles\,2022_Feb_16_1133,Stroop,2020.1.3,59.94717155343167,
Subset1,5,,,,,,Stimuli/neutral_couple_75.png,neutral_couple,Stimuli/neutral_couple_74.png,blue,4,5,57,0,0,0,0,,,,,0,39,39,60,,,,,1.4041027132804234,1.2223965274033055,226.05683523016523,None,226.05683523016523,None,,,,,,,,,,57,99,1,227.52475419950315,228.75913345205845,228.7424515436469,None,4,1,0.6883070285584836,1.2270153161316557,None,228.7424515436469,None,False,None,None,None,,,AM04EN20b,1,0xC010,G:\Experimente\CoScience\Tasks\Logfiles\,2022_Feb_16_1133,Stroop,2020.1.3,59.94717155343167,
Subset1,5,,,,,,Stimuli/woman_45.png,erotic_woman,Stimuli/woman_43.png,yellow,3,7,74,0,0,0,0,,,,,0,40,40,111,,,,,1.1339805225658601,1.251502788758753,229.45973568333466,None,229.45973568333466,None,,,,,,,,,,74,99,1,230.64408000385083,231.8951341638258,231.8784537139545,None,3,1,0.49223633603105554,1.2630409689372755,None,231.8784537139545,None,False,None,None,None,,,AM04EN20b,1,0xC010,G:\Experimente\CoScience\Tasks\Logfiles\,2022_Feb_16_1133,Stroop,2020.1.3,59.94717155343167,
Subset1,5,,,,,,Stimuli/neutral_couple_25.png,neutral_couple,Stimuli/neutral_couple_23.png,yellow,3,5,52,0,0,0,0,,,,,0,41,41,72,,,,,1.0951035133731823,1.42391664377103,232.39556020343844,None,232.39556020343844,None,,,,,,,,,,52,99,1,233.56322115700277,234.99777397585058,234.9810929425621,None,3,1,0.4115274271207454,1.4366343891724682,None,234.9810929425621,None,False,None,None,None,,,AM04EN20b,1,0xC010,G:\Experimente\CoScience\Tasks\Logfiles\,2022_Feb_16_1133,Stroop,2020.1.3,59.94717155343167,
Subset1,5,,,,,,Stimuli/neutral_couple_15.png,neutral_couple,Stimuli/neutral_couple_13.png,yellow,3,5,51,0,0,0,0,,,,,0,42,42,71,,,,,1.1084498978757638,1.0512095970287172,235.41479572414391,None,235.41479572414391,None,,,,,,,,,,51,99,1,236.54910452920558,237.5999886233858,237.5999886233858,None,3,1,0.2795945841480716,1.0590779983576795,None,237.5999886233858,None,False,None,None,None,,,AM04EN20b,1,0xC010,G:\Experimente\CoScience\Tasks\Logfiles\,2022_Feb_16_1133,Stroop,2020.1.3,59.94717155343167,
Subset1,5,,,,,,Stimuli/woman_55.png,erotic_woman,Stimuli/woman_53.png,yellow,3,7,75,0,0,0,0,,,,,0,43,43,35,,,,,1.0165594088490701,1.0071792474973411,237.9002440137865,None,237.9002440137865,None,,,,,,,,,,75,99,1,238.98449980091027,240.0020419563698,239.96867143025884,None,3,1,0.46386072690620495,1.0068693745924975,None,239.96867143025884,None,False,None,None,None,,,AM04EN20b,1,0xC010,G:\Experimente\CoScience\Tasks\Logfiles\,2022_Feb_16_1133,Stroop,2020.1.3,59.94717155343167,
Subset1,5,,,,,,Stimuli/neutral_couple_55.png,neutral_couple,Stimuli/neutral_couple_54.png,blue,4,5,55,0,0,0,0,,,,,0,44,44,27,,,,,1.3067907963446816,1.163303484650747,240.45241526975042,None,240.45241526975042,None,,,,,,,,,,55,99,1,241.8202457056941,242.98790724267383,242.97122504255276,None,4,1,0.6662530246485403,1.1774255305808765,None,242.97122504255276,None,False,None,None,None,,,AM04EN20b,1,0xC010,G:\Experimente\CoScience\Tasks\Logfiles\,2022_Feb_16_1133,Stroop,2020.1.3,59.94717155343167,
Subset1,5,,,,,,Stimuli/man_65.png,erotic_man,Stimuli/man_61.png,green,1,3,36,0,0,0,0,,,,,0,45,45,38,,,,,1.4489558160113203,1.0151701581204349,243.65514274004272,None,243.65514274004272,None,,,,,,,,,,36,99,1,245.15641998375213,246.17394697039344,246.1572781888426,None,1,1,0.4680875765916426,1.0170511524665926,None,246.1572781888426,None,False,None,None,None,,,AM04EN20b,1,0xC010,G:\Experimente\CoScience\Tasks\Logfiles\,2022_Feb_16_1133,Stroop,2020.1.3,59.94717155343167,
Subset1,5,,,,,,Stimuli/tree_45.png,tree,Stimuli/tree_41.png,green,1,1,14,0,0,0,0,,,,,0,46,46,21,,,,,1.000702621757821,1.08155069548714,246.65769606062895,None,246.65769606062895,None,,,,,,,,,,14,99,1,247.70859298996402,248.79284527659001,248.79284527659001,None,1,1,0.3534894846543466,1.0953444269925967,None,248.79284527659001,None,False,None,None,None,,,AM04EN20b,1,0xC010,G:\Experimente\CoScience\Tasks\Logfiles\,2022_Feb_16_1133,Stroop,2020.1.3,59.94717155343167,
Subset1,5,,,,,,Stimuli/tree_35.png,tree,Stimuli/tree_34.png,blue,4,1,13,0,0,0,0,,,,,0,47,47,55,,,,,1.474469634217301,1.0952635423712522,249.17651866858614,None,249.17651866858614,None,,,,,,,,,,13,99,2,250.72782355163326,251.8287606637532,251.81207933875703,None,3,0,0.4691671880955255,1.1052619173697167,None,251.81207933875703,None,False,None,None,None,,,AM04EN20b,1,0xC010,G:\Experimente\CoScience\Tasks\Logfiles\,2022_Feb_16_1133,Stroop,2020.1.3,59.94717155343167,
Subset1,5,,,,,,Stimuli/couple_35.png,erotic_couple,Stimuli/couple_32.png,red,2,2,23,0,0,0,0,,,,,0,48,48,52,,,,,1.3677295439151602,1.4696937524367812,252.31250800374073,None,252.31250800374073,None,,,,,,,,,,23,99,1,253.7470628645442,255.23165586617688,255.19829321618454,None,2,1,0.7779025315885519,1.4722086821075209,None,255.19829321618454,None,False,None,None,None,,,AM04EN20b,1,0xC010,G:\Experimente\CoScience\Tasks\Logfiles\,2022_Feb_16_1133,Stroop,2020.1.3,59.94717155343167,
Subset1,5,,,,,,Stimuli/neutral_couple_35.png,neutral_couple,Stimuli/neutral_couple_31.png,green,1,5,53,0,0,0,0,,,,,0,49,49,103,,,,,1.3822919223239005,1.4887611878510276,255.99897581302685,None,255.99897581302685,None,,,,,,,,,,53,99,1,257.43353067383214,258.93480675070896,258.9014449758397,None,1,1,0.495684033505313,1.4940399085789977,None,258.9014449758397,None,False,None,None,None,,,AM04EN20b,1,0xC010,G:\Experimente\CoScience\Tasks\Logfiles\,2022_Feb_16_1133,Stroop,2020.1.3,59.94717155343167,
Subset1,5,,,,,,Stimuli/neutral_85.png,neutral_man_woman,Stimuli/neutral_82.png,red,2,4,48,0,0,0,0,,,,,0,50,50,63,,,,,1.4167059181032757,1.1364634008022676,259.4185505901987,None,259.4185505901987,None,,,,,,,,,,48,99,1,260.9031520513636,262.0541343053046,262.03744568760703,None,2,1,0.8026466671617527,1.1460659522745118,None,262.03744568760703,None,False,None,None,None,,,AM04EN20b,1,0xC010,G:\Experimente\CoScience\Tasks\Logfiles\,2022_Feb_16_1133,Stroop,2020.1.3,59.94717155343167,
Subset1,5,,,,,,Stimuli/woman_45.png,erotic_woman,Stimuli/woman_41.png,green,1,7,74,0,0,0,0,,,,,0,51,51,92,,,,,1.002416133426192,1.1151652718845788,262.8714903510281,None,262.8714903510281,None,,,,,,,,,,74,99,1,263.93907589806076,265.0566806248971,265.0399978413607,None,1,1,0.4879916921545373,1.1243288308196497,None,265.0399978413607,None,False,None,None,None,,,AM04EN20b,1,0xC010,G:\Experimente\CoScience\Tasks\Logfiles\,2022_Feb_16_1133,Stroop,2020.1.3,59.94717155343167,
Subset1,5,,,,,,Stimuli/neutral_35.png,neutral_man_woman,Stimuli/neutral_31.png,green,1,4,43,0,0,0,0,,,,,0,52,52,94,,,,,1.270950746980911,1.0986495731915265,265.5571445865553,None,265.5571445865553,None,,,,,,,,,,43,99,1,266.89157940949553,267.9925121459946,267.9591506628349,None,1,1,0.4097748451404186,1.0986722324578295,None,267.9591506628349,None,False,None,None,None,,,AM04EN20b,1,0xC010,G:\Experimente\CoScience\Tasks\Logfiles\,2022_Feb_16_1133,Stroop,2020.1.3,59.94717155343167,
Subset1,5,,,,,,Stimuli/tree_15.png,tree,Stimuli/tree_13.png,yellow,3,1,11,0,0,0,0,,,,,0,53,53,62,,,,,1.127258005161883,1.3486736163362132,268.3928522775841,None,268.3928522775841,None,,,,,,,,,,11,99,1,269.57719747322517,270.9283471675881,270.9116725518779,None,3,1,0.43218181579504744,1.3614688083871442,None,270.9116725518779,None,False,None,None,None,,,AM04EN20b,1,0xC010,G:\Experimente\CoScience\Tasks\Logfiles\,2022_Feb_16_1133,Stroop,2020.1.3,59.94717155343167,
Subset1,5,,,,,,Stimuli/man_75.png,erotic_man,Stimuli/man_71.png,green,1,3,37,0,0,0,0,,,,,0,54,54,78,,,,,1.2693254719478864,1.466399523323261,271.3620479072142,None,271.3620479072142,None,,,,,,,,,,37,99,1,272.6965180268289,274.16443378737677,274.16443378737677,None,1,1,0.48635375143931014,1.475909961392972,None,274.16443378737677,None,False,None,None,None,,,AM04EN20b,1,0xC010,G:\Experimente\CoScience\Tasks\Logfiles\,2022_Feb_16_1133,Stroop,2020.1.3,59.94717155343167,
Subset1,5,,,,,,Stimuli/tree_45.png,tree,Stimuli/tree_44.png,blue,4,1,14,0,0,0,0,,,,,0,55,55,46,,,,,1.1118134840196419,1.2158775585496873,274.6815402768607,None,274.6815402768607,None,,,,,,,,,,14,99,1,275.84919977188474,277.0668982828611,277.0502184164052,None,4,1,0.8574624024786317,1.21891983425121,None,277.0502184164052,None,False,None,None,None,,,AM04EN20b,1,0xC010,G:\Experimente\CoScience\Tasks\Logfiles\,2022_Feb_16_1133,Stroop,2020.1.3,59.94717155343167,
Subset1,5,,,,,,Stimuli/positiv_15.png,positive_man_woman,Stimuli/positiv_12.png,red,2,6,61,0,0,0,0,,,,,0,56,56,43,,,,,1.2668796423288922,1.1686385889231887,277.9343038460247,None,277.9343038460247,None,,,,,,,,,,61,99,1,279.2520940991835,280.41975476104017,280.4030708106711,None,2,1,0.3165854989019863,1.1712016475685232,None,280.4030708106711,None,False,None,None,None,,,AM04EN20b,1,0xC010,G:\Experimente\CoScience\Tasks\Logfiles\,2022_Feb_16_1133,Stroop,2020.1.3,59.94717155343167,
Subset1,5,,,,,,Stimuli/man_55.png,erotic_man,Stimuli/man_52.png,red,2,3,35,0,0,0,0,,,,,0,57,57,90,,,,,1.4188131913407895,1.0564925819450162,280.73668914277187,None,280.73668914277187,None,,,,,,,,,,35,99,1,282.2212865200254,283.28887119193496,283.2721790737396,None,2,1,0.40840790120455495,1.066194537183037,None,283.2721790737396,None,False,None,None,None,,,AM04EN20b,1,0xC010,G:\Experimente\CoScience\Tasks\Logfiles\,2022_Feb_16_1133,Stroop,2020.1.3,59.94717155343167,
Subset1,5,,,,,,Stimuli/neutral_couple_35.png,neutral_couple,Stimuli/neutral_couple_33.png,yellow,3,5,53,0,0,0,0,,,,,0,58,58,45,,,,,1.227296963022793,1.2468370934249808,283.7058844806943,None,283.7058844806943,None,,,,,,,,,,53,99,1,285.0069881581112,286.258053402993,286.24137091116427,None,3,1,0.9021549932404014,1.2526849538444367,None,286.24137091116427,None,False,None,None,None,,,AM04EN20b,1,0xC010,G:\Experimente\CoScience\Tasks\Logfiles\,2022_Feb_16_1133,Stroop,2020.1.3,59.94717155343167,
Subset1,5,,,,,,Stimuli/neutral_35.png,neutral_man_woman,Stimuli/neutral_32.png,red,2,4,43,0,0,0,0,,,,,0,59,59,108,,,,,1.4992102455667395,1.165300007608911,287.17549973235873,None,287.17549973235873,None,,,,,,,,,,43,99,1,288.72682211788924,289.894480154373,289.8777994127922,None,2,1,0.43665399195197097,1.1762169841204013,None,289.8777994127922,None,False,None,None,None,,,AM04EN20b,1,0xC010,G:\Experimente\CoScience\Tasks\Logfiles\,2022_Feb_16_1133,Stroop,2020.1.3,59.94717155343167,
Subset1,5,,,,,,Stimuli/neutral_couple_65.png,neutral_couple,Stimuli/neutral_couple_61.png,green,1,5,56,0,0,0,0,,,,,0,60,60,80,,,,,1.1857437715815302,1.1378197425391838,290.34486776144695,None,290.34486776144695,None,,,,,,,,,,56,99,1,291.5959318394962,292.7469082592761,292.71354473415886,None,1,1,0.6638531424978282,1.138504091935829,None,292.71354473415886,None,False,None,None,None,,,AM04EN20b,1,0xC010,G:\Experimente\CoScience\Tasks\Logfiles\,2022_Feb_16_1133,Stroop,2020.1.3,59.94717155343167,
Subset1,5,,,,,,Stimuli/woman_35.png,erotic_woman,Stimuli/woman_33.png,yellow,3,7,73,0,0,0,0,,,,,0,61,61,65,,,,,1.1569375844346586,1.14549672086344,293.39746914093485,None,293.39746914093485,None,,,,,,,,,,73,99,1,294.63184781007476,295.7828230630221,295.7661414463182,None,3,1,0.6831796761180158,1.1534753368123347,None,295.7661414463182,None,False,None,None,None,,,AM04EN20b,1,0xC010,G:\Experimente\CoScience\Tasks\Logfiles\,2022_Feb_16_1133,Stroop,2020.1.3,59.94717155343167,
Subset1,5,,,,,,Stimuli/tree_55.png,tree,Stimuli/tree_51.png,green,1,1,15,0,0,0,0,,,,,0,62,62,106,,,,,1.2790784592738476,1.3968735930961476,296.46673930197176,None,296.46673930197176,None,,,,,,,,,,15,99,1,297.81788987145956,299.2190619544144,299.2023995904419,None,1,1,0.4958473900151148,1.406809486928978,None,299.2023995904419,None,False,None,None,None,,,AM04EN20b,1,0xC010,G:\Experimente\CoScience\Tasks\Logfiles\,2022_Feb_16_1133,Stroop,2020.1.3,59.94717155343167,
Subset1,5,,,,,,Stimuli/woman_25.png,erotic_woman,Stimuli/woman_23.png,yellow,3,7,72,0,0,0,0,,,,,0,63,63,59,,,,,1.055486432363208,1.3511522594141705,299.71950724675844,None,299.71950724675844,None,,,,,,,,,,72,99,1,300.83713151803386,302.18827304457227,302.18827304457227,None,3,1,0.4389281479325291,1.3595024044025195,None,302.18827304457227,None,False,None,None,None,,,AM04EN20b,1,0xC010,G:\Experimente\CoScience\Tasks\Logfiles\,2022_Feb_16_1133,Stroop,2020.1.3,59.94717155343167,
Subset1,5,,,,,,Stimuli/woman_25.png,erotic_woman,Stimuli/woman_22.png,red,2,7,72,0,0,0,0,,,,,0,64,64,25,,,,,1.0535895521820338,1.072136615050362,302.6553384761464,None,302.6553384761464,None,,,,,,,,,,72,99,1,303.75627471314147,304.84052991684985,304.8071661000249,None,2,1,0.30299307047607726,1.078896555949541,None,304.8071661000249,None,False,None,None,None,,,AM04EN20b,1,0xC010,G:\Experimente\CoScience\Tasks\Logfiles\,2022_Feb_16_1133,Stroop,2020.1.3,59.94717155343167,
Subset1,5,,,,,,Stimuli/couple_25.png,erotic_couple,Stimuli/couple_21.png,green,1,2,22,0,0,0,0,,,,,0,65,65,107,,,,,1.2584193433814272,1.3309072346942108,305.140788516037,None,305.140788516037,None,,,,,,,,,,22,99,1,306.4752577605286,307.8097214625668,307.7930427629417,None,1,1,0.9240161781290226,1.3305946322816453,None,307.7930427629417,None,False,None,None,None,,,AM04EN20b,1,0xC010,G:\Experimente\CoScience\Tasks\Logfiles\,2022_Feb_16_1133,Stroop,2020.1.3,59.94717155343167,
Subset1,5,,,,,,Stimuli/man_25.png,erotic_man,Stimuli/man_23.png,yellow,3,3,32,0,0,0,0,,,,,0,66,66,28,,,,,1.2642743108197625,1.1137148550595644,308.74385203400743,None,308.74385203400743,None,,,,,,,,,,32,99,1,310.07831952824927,311.1959367985328,311.1625785241613,None,3,1,0.658446042032665,1.1152283271858323,None,311.1625785241613,None,False,None,None,None,,,AM04EN20b,1,0xC010,G:\Experimente\CoScience\Tasks\Logfiles\,2022_Feb_16_1133,Stroop,2020.1.3,59.94717155343167,
Subset1,5,,,,,,Stimuli/couple_65.png,erotic_couple,Stimuli/couple_63.png,yellow,3,2,26,0,0,0,0,,,,,0,67,67,17,,,,,1.1918627884421222,1.1559424366127737,311.8465344354063,None,311.8465344354063,None,,,,,,,,,,26,99,1,313.09755796603713,314.2652165859363,314.2318516022806,None,3,1,0.420100435081622,1.1598162822683662,None,314.2318516022806,None,False,None,None,None,,,AM04EN20b,1,0xC010,G:\Experimente\CoScience\Tasks\Logfiles\,2022_Feb_16_1133,Stroop,2020.1.3,59.94717155343167,
Subset1,5,,,,,,Stimuli/couple_45.png,erotic_couple,Stimuli/couple_42.png,red,2,2,24,0,0,0,0,,,,,0,68,68,104,,,,,1.3503029011317913,1.0309423577396677,314.68224562693285,None,314.68224562693285,None,,,,,,,,,,24,99,1,316.10011099491385,317.13432864121023,317.1176411903434,None,2,1,0.5022462978595286,1.0395633422176616,None,317.1176411903434,None,False,None,None,None,,,AM04EN20b,1,0xC010,G:\Experimente\CoScience\Tasks\Logfiles\,2022_Feb_16_1133,Stroop,2020.1.3,59.94717155343167,
Subset1,5,,,,,,Stimuli/couple_35.png,erotic_couple,Stimuli/couple_32.png,red,2,2,23,0,0,0,0,,,,,0,69,69,41,,,,,1.1825316900998055,1.214028930511244,317.65144067314577,None,317.65144067314577,None,,,,,,,,,,23,99,1,318.8691330582533,320.0868324443527,320.07015549497737,None,2,1,0.4416497840629745,1.218545164429088,None,320.07015549497737,None,False,None,None,None,,,AM04EN20b,1,0xC010,G:\Experimente\CoScience\Tasks\Logfiles\,2022_Feb_16_1133,Stroop,2020.1.3,59.94717155343167,
Subset1,5,,,,,,Stimuli/neutral_couple_25.png,neutral_couple,Stimuli/neutral_couple_24.png,blue,4,5,52,0,0,0,0,,,,,0,70,70,82,,,,,1.2548493121850113,1.0409037287818133,320.5372180094728,None,320.5372180094728,None,,,,,,,,,,52,99,1,321.83832693763543,322.88921832451706,322.8558577164804,None,4,1,0.6908927287404367,1.0476531649583194,None,322.8558577164804,None,False,None,None,None,,,AM04EN20b,1,0xC010,G:\Experimente\CoScience\Tasks\Logfiles\,2022_Feb_16_1133,Stroop,2020.1.3,59.94717155343167,
Subset1,5,,,,,,Stimuli/man_65.png,erotic_man,Stimuli/man_62.png,red,2,3,36,0,0,0,0,,,,,0,71,71,10,,,,,1.4185737670044472,1.4914167492255213,323.57313456346674,None,323.57313456346674,None,,,,,,,,,,36,99,1,325.05773106559536,326.55900772588757,326.542325817476,None,2,1,0.50033385986535,1.504333031414717,None,326.542325817476,None,False,None,None,None,,,AM04EN20b,1,0xC010,G:\Experimente\CoScience\Tasks\Logfiles\,2022_Feb_16_1133,Stroop,2020.1.3,59.94717155343167,
Subset1,5,,,,,,Stimuli/couple_25.png,erotic_couple,Stimuli/couple_22.png,red,2,2,22,0,0,0,0,,,,,0,72,72,7,,,,,1.3720788853698447,1.0443117752794815,327.0594320152504,None,327.0594320152504,None,,,,,,,,,,22,99,1,328.49399241850733,329.54488818101163,329.51151794660836,None,2,1,0.8760908787262451,1.046565006412493,None,329.51151794660836,None,False,None,None,None,,,AM04EN20b,1,0xC010,G:\Experimente\CoScience\Tasks\Logfiles\,2022_Feb_16_1133,Stroop,2020.1.3,59.94717155343167,
Subset1,5,,,,,,Stimuli/neutral_couple_65.png,neutral_couple,Stimuli/neutral_couple_61.png,green,1,5,56,0,0,0,0,,,,,0,73,73,39,,,,,1.4400342457746786,1.1115220981330691,330.41228732659874,None,330.41228732659874,None,,,,,,,,,,56,99,2,331.8802097964326,332.9978188988898,332.9978188988898,None,3,0,0.7147139000335301,1.123747923402334,None,332.9978188988898,None,False,None,None,None,,,AM04EN20b,1,0xC010,G:\Experimente\CoScience\Tasks\Logfiles\,2022_Feb_16_1133,Stroop,2020.1.3,59.94717155343167,
Subset1,5,,,,,,Stimuli/man_15.png,erotic_man,Stimuli/man_12.png,red,2,3,31,0,0,0,0,,,,,0,74,74,22,,,,,1.116846651378675,1.3977275847786907,333.7317794045375,None,333.7317794045375,None,,,,,,,,,,31,99,1,334.9161237250537,336.3173171026974,336.30062848499983,None,2,1,0.5628264760071033,1.4034975212125573,None,336.30062848499983,None,False,None,None,None,,,AM04EN20b,1,0xC010,G:\Experimente\CoScience\Tasks\Logfiles\,2022_Feb_16_1133,Stroop,2020.1.3,59.94717155343167,
Subset1,5,,,,,,Stimuli/positiv_75.png,positive_man_woman,Stimuli/positiv_71.png,green,1,6,67,0,0,0,0,,,,,0,75,75,26,,,,,1.3444915324197715,1.2549886138265265,336.8844617330087,None,336.8844617330087,None,,,,,,,,,,67,99,1,338.2856516101565,339.5534226835098,339.52003407150005,None,1,1,0.6243739580550027,1.2593068141559343,None,339.52003407150005,None,False,None,None,None,,,AM04EN20b,1,0xC010,G:\Experimente\CoScience\Tasks\Logfiles\,2022_Feb_16_1133,Stroop,2020.1.3,59.94717155343167,
Subset1,5,,,,,,Stimuli/tree_15.png,tree,Stimuli/tree_13.png,yellow,3,1,11,0,0,0,0,,,,,0,76,76,37,,,,,1.362314374829411,1.4591054946459436,340.1705894107072,None,340.1705894107072,None,,,,,,,,,,11,99,1,341.5551087560543,343.0230128482817,343.0230128482817,None,3,1,0.4803165615794569,1.4739766954444349,None,343.0230128482817,None,False,None,None,None,,,AM04EN20b,1,0xC010,G:\Experimente\CoScience\Tasks\Logfiles\,2022_Feb_16_1133,Stroop,2020.1.3,59.94717155343167,
Subset1,5,,,,,,Stimuli/neutral_75.png,neutral_man_woman,Stimuli/neutral_71.png,green,1,4,47,0,0,0,0,,,,,0,77,77,66,,,,,1.1346101419892907,1.085988842680269,343.5234415132654,None,343.5234415132654,None,,,,,,,,,,47,99,1,344.70778379182593,345.8087252795667,345.77535737882863,None,1,1,0.5479099847289035,1.0954853219791403,None,345.77535737882863,None,False,None,None,None,,,AM04EN20b,1,0xC010,G:\Experimente\CoScience\Tasks\Logfiles\,2022_Feb_16_1133,Stroop,2020.1.3,59.94717155343167,
Subset1,5,,,,,,Stimuli/woman_15.png,erotic_woman,Stimuli/woman_14.png,blue,4,7,71,0,0,0,0,,,,,0,78,78,99,,,,,1.1936017260917047,1.2952616297471302,346.3425049262205,None,346.3425049262205,None,,,,,,,,,,71,99,1,347.5768911797695,348.8779980659765,348.8446389164801,None,4,1,0.627558243159001,1.295428818131768,None,348.8446389164801,None,False,None,None,None,,,AM04EN20b,1,0xC010,G:\Experimente\CoScience\Tasks\Logfiles\,2022_Feb_16_1133,Stroop,2020.1.3,59.94717155343167,
Subset1,5,,,,,,Stimuli/tree_15.png,tree,Stimuli/tree_12.png,red,2,1,11,0,0,0,0,,,,,0,79,79,8,,,,,1.382104486032239,1.2284992614891919,349.4951945473931,None,349.4951945473931,None,,,,,,,,,,11,99,1,350.92974299062007,352.1641292441709,352.1307630936808,None,2,1,0.5233682945436158,1.2330102083251404,None,352.1307630936808,None,False,None,None,None,,,AM04EN20b,1,0xC010,G:\Experimente\CoScience\Tasks\Logfiles\,2022_Feb_16_1133,Stroop,2020.1.3,59.94717155343167,
Subset1,5,,,,,,Stimuli/positiv_75.png,positive_man_woman,Stimuli/positiv_74.png,blue,4,6,67,0,0,0,0,,,,,0,80,80,23,,,,,1.12252004490432,1.40120262427116,352.68123339998965,None,352.68123339998965,None,,,,,,,,,,67,99,1,353.84889814575763,355.25009998293535,355.23340407253636,None,4,1,0.6136504783280543,1.4039078377572878,None,355.23340407253636,None,False,None,None,None,,,AM04EN20b,1,0xC010,G:\Experimente\CoScience\Tasks\Logfiles\,2022_Feb_16_1133,Stroop,2020.1.3,59.94717155343167,
Subset1,5,,,,,,Stimuli/neutral_couple_45.png,neutral_couple,Stimuli/neutral_couple_44.png,blue,4,5,54,0,0,0,0,,,,,0,81,81,91,,,,,1.136812444185829,1.2863241226485171,355.8672783784532,None,355.8672783784532,None,,,,,,,,,,54,99,1,357.0683005234696,358.3694053677209,358.3527252095555,None,4,1,0.3932656278957438,1.2993664976220316,None,358.3527252095555,None,False,None,None,None,,,AM04EN20b,1,0xC010,G:\Experimente\CoScience\Tasks\Logfiles\,2022_Feb_16_1133,Stroop,2020.1.3,59.94717155343167,
Subset1,5,,,,,,Stimuli/positiv_55.png,positive_man_woman,Stimuli/positiv_54.png,blue,4,6,65,0,0,0,0,,,,,0,82,82,40,,,,,1.3172904083425303,1.2252089859580662,358.76974579101807,None,358.76974579101807,None,,,,,,,,,,65,99,1,360.13757681037714,361.3719581048899,361.35527794672635,None,4,1,0.356638764791569,1.2406199962970277,None,361.35527794672635,None,False,None,None,None,,,AM04EN20b,1,0xC010,G:\Experimente\CoScience\Tasks\Logfiles\,2022_Feb_16_1133,Stroop,2020.1.3,59.94717155343167,
Subset1,5,,,,,,Stimuli/couple_85.png,erotic_couple,Stimuli/couple_83.png,yellow,3,2,28,0,0,0,0,,,,,0,83,83,51,,,,,1.2077214758837878,1.4583664201549802,361.7389396704002,None,361.7389396704002,None,,,,,,,,,,28,99,1,363.00668390661303,364.4745979169129,364.45791484166875,None,3,1,0.4619552899075643,1.4684174400572374,None,364.45791484166875,None,False,None,None,None,,,AM04EN20b,1,0xC010,G:\Experimente\CoScience\Tasks\Logfiles\,2022_Feb_16_1133,Stroop,2020.1.3,59.94717155343167,
Subset1,5,,,,,,Stimuli/tree_15.png,tree,Stimuli/tree_12.png,red,2,1,11,0,0,0,0,,,,,0,84,84,79,,,,,1.4036373108785531,1.4619935534590451,364.94166364019657,None,364.94166364019657,None,,,,,,,,,,11,99,1,366.37622579370145,367.84413046934424,367.84413046934424,None,2,1,0.5516727269023249,1.47443467708581,None,367.84413046934424,None,False,None,None,None,,,AM04EN20b,1,0xC010,G:\Experimente\CoScience\Tasks\Logfiles\,2022_Feb_16_1133,Stroop,2020.1.3,59.94717155343167,
Subset1,5,,,,,,Stimuli/neutral_65.png,neutral_man_woman,Stimuli/neutral_64.png,blue,4,4,46,0,0,0,0,,,,,0,85,85,57,,,,,1.4053836770742856,1.3348073879370306,368.42796167539564,None,368.42796167539564,None,,,,,,,,,,46,99,1,369.8958786027779,371.2303481389754,371.2136668139792,None,4,1,0.5070119323172548,1.3497771496331552,None,371.2136668139792,None,False,None,None,None,,,AM04EN20b,1,0xC010,G:\Experimente\CoScience\Tasks\Logfiles\,2022_Feb_16_1133,Stroop,2020.1.3,59.94717155343167,
Subset1,5,,,,,,Stimuli/woman_15.png,erotic_woman,Stimuli/woman_13.png,yellow,3,7,71,0,0,0,0,,,,,0,86,86,95,,,,,1.3912363351352233,1.372884316087032,371.7474537533344,None,371.7474537533344,None,,,,,,,,,,71,99,1,373.19869110596846,374.58319819957796,374.5665183331221,None,3,1,0.6040958727699035,1.3879491902916925,None,374.5665183331221,None,False,None,None,None,,,AM04EN20b,1,0xC010,G:\Experimente\CoScience\Tasks\Logfiles\,2022_Feb_16_1133,Stroop,2020.1.3,59.94717155343167,
Subset1,5,,,,,,Stimuli/woman_85.png,erotic_woman,Stimuli/woman_84.png,blue,4,7,78,0,0,0,0,,,,,0,87,87,30,,,,,1.336676144123714,1.4973213415823747,375.20039176391583,None,375.20039176391583,None,,,,,,,,,,78,99,1,376.60158601668263,378.1028588847712,378.086179310023,None,4,1,0.66436042280111,1.5052802949758188,None,378.086179310023,None,False,None,None,None,,,AM04EN20b,1,0xC010,G:\Experimente\CoScience\Tasks\Logfiles\,2022_Feb_16_1133,Stroop,2020.1.3,59.94717155343167,
Subset1,5,,,,,,Stimuli/woman_55.png,erotic_woman,Stimuli/woman_53.png,yellow,3,7,75,0,0,0,0,,,,,0,88,88,33,,,,,1.362406549213284,1.1247122149632225,378.770116551952,None,378.770116551952,None,,,,,,,,,,75,99,1,380.1712880514933,381.30558372969244,381.2889024046963,None,3,1,0.5025820538303378,1.1351440818998526,None,381.2889024046963,None,False,None,None,None,,,AM04EN20b,1,0xC010,G:\Experimente\CoScience\Tasks\Logfiles\,2022_Feb_16_1133,Stroop,2020.1.3,59.94717155343167,
Subset1,5,,,,,,Stimuli/couple_35.png,erotic_couple,Stimuli/couple_34.png,blue,4,2,23,0,0,0,0,,,,,0,89,89,96,,,,,1.3734441574987615,1.0633146997268048,381.82269226113203,None,381.82269226113203,None,,,,,,,,,,23,99,1,383.2572570400098,384.3248201255228,384.30813938394203,None,4,1,0.6842718310654163,1.0715005024667335,None,384.30813938394203,None,False,None,None,None,,,AM04EN20b,1,0xC010,G:\Experimente\CoScience\Tasks\Logfiles\,2022_Feb_16_1133,Stroop,2020.1.3,59.94717155343167,
Subset1,5,,,,,,Stimuli/couple_85.png,erotic_couple,Stimuli/couple_82.png,red,2,2,28,0,0,0,0,,,,,0,90,90,102,,,,,1.4831990638055705,1.4892762746516506,385.0254249821701,None,385.0254249821701,None,,,,,,,,,,28,99,1,386.5433864679562,388.04465291846645,388.0112896850569,None,2,1,0.5170566074066301,1.491062240287647,None,388.0112896850569,None,False,None,None,None,,,AM04EN20b,1,0xC010,G:\Experimente\CoScience\Tasks\Logfiles\,2022_Feb_16_1133,Stroop,2020.1.3,59.94717155343167,
Subset1,5,,,,,,Stimuli/neutral_75.png,neutral_man_woman,Stimuli/neutral_74.png,blue,4,4,47,0,0,0,0,,,,,0,91,91,100,,,,,1.0322429483654088,1.2531926855641962,388.5450777912447,None,388.5450777912447,None,,,,,,,,,,47,99,2,389.62933503690874,390.8970786897062,390.86371516458894,None,3,0,0.5085816133487242,1.2624537606279773,None,390.86371516458894,None,False,None,None,None,,,AM04EN20b,1,0xC010,G:\Experimente\CoScience\Tasks\Logfiles\,2022_Feb_16_1133,Stroop,2020.1.3,59.94717155343167,
Subset1,5,,,,,,Stimuli/couple_15.png,erotic_couple,Stimuli/couple_11.png,green,1,2,21,0,0,0,0,,,,,0,92,92,3,,,,,1.2150247500299611,1.141633822444942,391.3975140639741,None,391.3975140639741,None,,,,,,,,,,21,99,1,392.68193291589887,393.8329093356788,393.7995481442267,None,1,1,0.7206813716693432,1.1500719789619325,None,393.7995481442267,None,False,None,None,None,,,AM04EN20b,1,0xC010,G:\Experimente\CoScience\Tasks\Logfiles\,2022_Feb_16_1133,Stroop,2020.1.3,59.94717155343167,
Subset1,5,,,,,,Stimuli/woman_65.png,erotic_woman,Stimuli/woman_62.png,red,2,7,76,0,0,0,0,,,,,0,93,93,105,,,,,1.4614829346620068,1.1845467133817098,394.5501867660805,None,394.5501867660805,None,,,,,,,,,,76,99,1,396.084825201242,397.2691666046794,397.2524858630986,None,2,1,0.44665724449623667,1.186734226253975,None,397.2524858630986,None,False,None,None,None,,,AM04EN20b,1,0xC010,G:\Experimente\CoScience\Tasks\Logfiles\,2022_Feb_16_1133,Stroop,2020.1.3,59.94717155343167,
Subset1,5,,,,,,Stimuli/couple_15.png,erotic_couple,Stimuli/couple_14.png,blue,4,2,21,0,0,0,0,,,,,0,94,94,12,,,,,1.2174588094658352,1.1559169631945263,397.7195504195497,None,397.7195504195497,None,,,,,,,,,,21,99,1,398.9706162478469,400.13827836824385,400.1215935427517,None,4,1,0.5804850229797012,1.1696367213771737,None,400.1215935427517,None,False,None,None,None,,,AM04EN20b,1,0xC010,G:\Experimente\CoScience\Tasks\Logfiles\,2022_Feb_16_1133,Stroop,2020.1.3,59.94717155343167,
Subset1,5,,,,,,Stimuli/woman_25.png,erotic_woman,Stimuli/woman_22.png,red,2,7,72,0,0,0,0,,,,,0,95,95,77,,,,,1.0797690518060072,1.1031734792089827,400.7221057820916,None,400.7221057820916,None,,,,,,,,,,72,99,1,401.82304960349575,402.9406584142471,402.9239788394989,None,2,1,0.39203753699075605,1.1090058735426283,None,402.9239788394989,None,False,None,None,None,,,AM04EN20b,1,0xC010,G:\Experimente\CoScience\Tasks\Logfiles\,2022_Feb_16_1133,Stroop,2020.1.3,59.94717155343167,
Subset1,5,,,,,,Stimuli/woman_15.png,erotic_woman,Stimuli/woman_13.png,yellow,3,7,71,0,0,0,0,,,,,0,96,96,48,,,,,1.0129847503660532,1.2443582341410122,403.34099825412704,None,403.34099825412704,None,,,,,,,,,,71,99,1,404.37522202629225,405.6262843540935,405.6262843540935,None,3,1,0.5276992840026651,1.258449659213511,None,405.6262843540935,None,False,None,None,None,,,AM04EN20b,1,0xC010,G:\Experimente\CoScience\Tasks\Logfiles\,2022_Feb_16_1133,Stroop,2020.1.3,59.94717155343167,
Subset1,5,,,,,,Stimuli/neutral_couple_85.png,neutral_couple,Stimuli/neutral_couple_81.png,green,1,5,58,0,0,0,0,,,,,0,97,97,76,,,,,1.4220477620864438,1.4096395989887387,406.1767441589109,None,406.1767441589109,None,,,,,,,,,,58,99,1,407.67802431970085,409.0958931881796,409.06253258014294,None,1,1,0.6633662817566801,1.4170099341172318,None,409.06253258014294,None,False,None,None,None,,,AM04EN20b,1,0xC010,G:\Experimente\CoScience\Tasks\Logfiles\,2022_Feb_16_1133,Stroop,2020.1.3,59.94717155343167,
Subset1,5,,,,,,Stimuli/neutral_couple_65.png,neutral_couple,Stimuli/neutral_couple_62.png,red,2,5,56,0,0,0,0,,,,,0,98,98,86,,,,,1.0078853493359432,1.3232327010170866,409.7464508610501,None,409.7464508610501,None,,,,,,,,,,56,99,1,410.814032907585,412.1485024437843,412.1318103255908,None,2,1,0.5360015868918708,1.3242935341459088,None,412.1318103255908,None,False,None,None,None,,,AM04EN20b,1,0xC010,G:\Experimente\CoScience\Tasks\Logfiles\,2022_Feb_16_1133,Stroop,2020.1.3,59.94717155343167,
Subset1,5,,,,,,Stimuli/tree_15.png,tree,Stimuli/tree_11.png,green,1,1,11,0,0,0,0,,,,,0,99,99,6,,,,,1.0413984180795923,1.279605363927012,412.6989604983537,None,412.6989604983537,None,,,,,,,,,,11,99,1,413.766543711723,415.0509593548595,415.0509593548595,None,1,1,0.5648229259204527,1.289234485142515,None,415.0509593548595,None,False,None,None,None,,,AM04EN20b,1,0xC010,G:\Experimente\CoScience\Tasks\Logfiles\,2022_Feb_16_1133,Stroop,2020.1.3,59.94717155343167,
Subset1,5,,,,,,Stimuli/positiv_65.png,positive_man_woman,Stimuli/positiv_63.png,yellow,3,6,66,0,0,0,0,,,,,0,100,100,16,,,,,1.4463177014073163,1.1322735220626963,415.6347928945761,None,415.6347928945761,None,,,,,,,,,,66,99,1,417.1360771392774,418.2703663999,418.2536856583192,None,3,1,0.4650275591193349,1.1412429388419696,None,418.2536856583192,None,False,None,None,None,,,AM04EN20b,1,0xC010,G:\Experimente\CoScience\Tasks\Logfiles\,2022_Feb_16_1133,Stroop,2020.1.3,59.94717155343167,
Subset1,5,,,,,,Stimuli/couple_85.png,erotic_couple,Stimuli/couple_81.png,green,1,2,28,0,0,0,0,,,,,0,101,101,31,,,,,1.1210547744830106,1.406268898485866,418.73743299830676,None,418.73743299830676,None,,,,,,,,,,28,99,1,419.905094826996,421.322966904263,421.2896027957304,None,1,1,0.4390448311514774,1.407262101141896,None,421.2896027957304,None,False,None,None,None,,,AM04EN20b,1,0xC010,G:\Experimente\CoScience\Tasks\Logfiles\,2022_Feb_16_1133,Stroop,2020.1.3,59.94717155343167,
Subset1,5,,,,,,Stimuli/neutral_45.png,neutral_man_woman,Stimuli/neutral_43.png,yellow,3,4,44,0,0,0,0,,,,,0,102,102,36,,,,,1.1589180809811819,1.4095792933748656,421.75666735218147,None,421.75666735218147,None,,,,,,,,,,44,99,1,422.991058273059,424.40892451616673,424.40892451616673,None,3,1,0.2856635701864434,1.4234899368002516,None,424.40892451616673,None,False,None,None,None,,,AM04EN20b,1,0xC010,G:\Experimente\CoScience\Tasks\Logfiles\,2022_Feb_16_1133,Stroop,2020.1.3,59.94717155343167,
Subset1,5,,,,,,Stimuli/couple_25.png,erotic_couple,Stimuli/couple_24.png,blue,4,2,22,0,0,0,0,,,,,0,103,103,1,,,,,1.0033537234289092,1.2291865344064017,424.7258606481464,None,424.7258606481464,None,,,,,,,,,,22,99,1,425.7934362771048,427.0278178633271,427.0111353714983,None,4,1,0.6853841138727148,1.241169574266678,None,427.0111353714983,None,False,None,None,None,,,AM04EN20b,1,0xC010,G:\Experimente\CoScience\Tasks\Logfiles\,2022_Feb_16_1133,Stroop,2020.1.3,59.94717155343167,
Subset1,5,,,,,,Stimuli/neutral_couple_45.png,neutral_couple,Stimuli/neutral_couple_42.png,red,2,5,54,0,0,0,0,,,,,0,104,104,93,,,,,1.4367944051711588,1.0782182854984066,427.7284148438557,None,427.7284148438557,None,,,,,,,,,,54,99,1,429.2130133879418,430.2972677165235,430.26390477482346,None,2,1,0.5185306081966701,1.0780138473801344,None,430.26390477482346,None,False,None,None,None,,,AM04EN20b,1,0xC010,G:\Experimente\CoScience\Tasks\Logfiles\,2022_Feb_16_1133,Stroop,2020.1.3,59.94717155343167,
Subset1,5,,,,,,Stimuli/tree_75.png,tree,Stimuli/tree_71.png,green,1,1,17,0,0,0,0,,,,,0,105,105,15,,,,,1.1495960320112464,1.3959837848029732,430.81437362259203,None,430.81437362259203,None,,,,,,,,,,17,99,1,432.0153963510238,433.41658972866753,433.3832250367195,None,1,1,0.5781755703246745,1.4003733279678272,None,433.3832250367195,None,False,None,None,None,,,AM04EN20b,1,0xC010,G:\Experimente\CoScience\Tasks\Logfiles\,2022_Feb_16_1133,Stroop,2020.1.3,59.94717155343167,
Subset1,5,,,,,,Stimuli/woman_15.png,erotic_woman,Stimuli/woman_14.png,blue,4,7,71,0,0,0,0,,,,,0,106,106,29,,,,,1.4130541951614792,1.2394253653716159,433.9837364009363,None,433.9837364009363,None,,,,,,,,,,71,99,1,435.4183008881064,436.66935388124875,436.65267401479286,None,4,1,0.7446160173967655,1.2410209781864978,None,436.65267401479286,None,False,None,None,None,,,AM04EN20b,1,0xC010,G:\Experimente\CoScience\Tasks\Logfiles\,2022_Feb_16_1133,Stroop,2020.1.3,59.94717155343167,
Subset1,5,,,,,,Stimuli/positiv_25.png,positive_man_woman,Stimuli/positiv_24.png,blue,4,6,62,0,0,0,0,,,,,0,107,107,54,,,,,1.4801357299552793,1.4784426171126368,437.4199960036003,None,437.4199960036003,None,,,,,,,,,,62,99,1,438.9546350221772,440.43922860722523,440.42254844906165,None,4,1,0.5226626527637563,1.4811335774938925,None,440.42254844906165,None,False,None,None,None,,,AM04EN20b,1,0xC010,G:\Experimente\CoScience\Tasks\Logfiles\,2022_Feb_16_1133,Stroop,2020.1.3,59.94717155343167,
Subset1,5,,,,,,Stimuli/couple_75.png,erotic_couple,Stimuli/couple_72.png,red,2,2,27,0,0,0,0,,,,,0,108,108,70,,,,,1.2409550257466015,1.1842172642011985,440.9730170051207,None,440.9730170051207,None,,,,,,,,,,27,99,1,442.29080638315645,443.4751442860961,443.4584644196402,None,2,1,0.7026882355603448,1.1894706519815372,None,443.4584644196402,None,False,None,None,None,,,AM04EN20b,1,0xC010,G:\Experimente\CoScience\Tasks\Logfiles\,2022_Feb_16_1133,Stroop,2020.1.3,59.94717155343167,
Subset1,5,,,,,,Stimuli/neutral_45.png,neutral_man_woman,Stimuli/neutral_44.png,blue,4,4,44,0,0,0,0,,,,,0,109,109,74,,,,,1.068812295688097,1.4149241242016015,444.19242317503813,None,444.19242317503813,None,,,,,,,,,,44,99,1,445.31004132044654,446.72791573137874,446.7112309058848,None,4,1,0.5188482782668871,1.42950308991567,None,446.7112309058848,None,False,None,None,None,,,AM04EN20b,1,0xC010,G:\Experimente\CoScience\Tasks\Logfiles\,2022_Feb_16_1133,Stroop,2020.1.3,59.94717155343167,
Subset1,5,,,,,,Stimuli/woman_45.png,erotic_woman,Stimuli/woman_44.png,blue,4,7,74,0,0,0,0,,,,,0,110,110,13,,,,,1.1804279199748757,1.4859302448920357,447.26170062877645,None,447.26170062877645,None,,,,,,,,,,74,99,1,448.47940409879084,449.98068046737535,449.9473189842138,None,4,1,0.5167138504439208,1.4894763111187785,None,449.9473189842138,None,False,None,None,None,,,AM04EN20b,1,0xC010,G:\Experimente\CoScience\Tasks\Logfiles\,2022_Feb_16_1133,Stroop,2020.1.3,59.94717155343167,
Subset1,5,,,,,,Stimuli/woman_85.png,erotic_woman,Stimuli/woman_81.png,green,1,7,78,0,0,0,0,,,,,0,111,111,5,,,,,1.4116264166903902,1.0522475004369254,450.48110913235905,None,450.48110913235905,None,,,,,,,,,,78,99,1,451.9490228509512,453.0165978964942,452.99991511295775,None,1,1,0.9640163531530561,1.0597922163542535,None,452.99991511295775,None,False,None,None,None,,,AM04EN20b,1,0xC010,G:\Experimente\CoScience\Tasks\Logfiles\,2022_Feb_16_1133,Stroop,2020.1.3,59.94717155343167,
Subset2,3,PracticeStimuli/practice_blue.png,blue,4,9,0,PracticeStimuli/practice_black.png,Scramble,,,,,,0,1,1,1,0,0,0,0,,,,,,,,,1.1029303491018325,1.277395236876059,484.2935919033516,None,484.2935919033516,None,485.4278855395951,486.71231255934435,486.6789507844769,None,4,1,0.7233172456344619,,,,,,,,,,,,,,,,,,,,,453.98408703401583,None,AM04EN20b,1,0xC010,G:\Experimente\CoScience\Tasks\Logfiles\,2022_Feb_16_1133,Stroop,2020.1.3,59.94717155343167,
Subset2,3,PracticeStimuli/practice_red.png,red,2,9,0,PracticeStimuli/practice_black.png,Scramble,,,,,,0,1,1,1,0,1,1,1,,,,,,,,,1.1359435799319408,1.0917231491760557,487.4295905731633,None,487.4295905731633,None,488.59724977647966,489.6981953481318,489.66482482202264,None,2,1,0.30139917767519364,,,,,,,,,,,,,,,,,,,,,,,AM04EN20b,1,0xC010,G:\Experimente\CoScience\Tasks\Logfiles\,2022_Feb_16_1133,Stroop,2020.1.3,59.94717155343167,
Subset2,3,PracticeStimuli/practice_green.png,green,1,9,0,PracticeStimuli/practice_black.png,Scramble,,,,,,0,1,1,1,0,2,2,2,,,,,,,,,1.3085578709745733,1.2906814113463367,489.9984419872908,None,489.9984419872908,None,491.33290889811724,492.6340175345722,492.60065575970293,None,1,1,0.41949193208529323,,,,,,,,,,,,,,,,,,,,,,,AM04EN20b,1,0xC010,G:\Experimente\CoScience\Tasks\Logfiles\,2022_Feb_16_1133,Stroop,2020.1.3,59.94717155343167,
Subset2,3,PracticeStimuli/practice_yellow.png,yellow,3,9,0,PracticeStimuli/practice_black.png,Scramble,,,,,,0,1,1,1,0,3,3,3,,,,,,,,,1.4947045447315406,1.2418875259446092,493.05103899115784,None,493.05103899115784,None,494.56899405936565,495.82006047108007,495.7866989879185,None,3,1,0.2103865569260961,,,,,,,,,,,,,,,,,,,,,,,AM04EN20b,1,0xC010,G:\Experimente\CoScience\Tasks\Logfiles\,2022_Feb_16_1133,Stroop,2020.1.3,59.94717155343167,
Subset2,3,PracticeStimuli/practice_green.png,green,1,9,0,PracticeStimuli/practice_black.png,Scramble,,,,,,0,1,1,1,1,0,4,2,,,,,,,,,1.2758134206471021,1.2108190216980839,496.0202322871228,None,496.0202322871228,None,497.32133742307997,498.53904060138484,498.5056785348097,None,1,1,0.45633465914579574,,,,,,,,,,,,,,,,,,,,,,,AM04EN20b,1,0xC010,G:\Experimente\CoScience\Tasks\Logfiles\,2022_Feb_16_1133,Stroop,2020.1.3,59.94717155343167,
Subset2,3,PracticeStimuli/practice_blue.png,blue,4,9,0,PracticeStimuli/practice_black.png,Scramble,,,,,,0,1,1,1,1,1,5,0,,,,,,,,,1.27146928410062,1.2644067961841179,498.98942441625695,None,498.98942441625695,None,500.2905304273372,501.55827466355186,501.5249143472229,None,4,1,0.3920346199120104,,,,,,,,,,,,,,,,,,,,,,,AM04EN20b,1,0xC010,G:\Experimente\CoScience\Tasks\Logfiles\,2022_Feb_16_1133,Stroop,2020.1.3,59.94717155343167,
Subset2,3,PracticeStimuli/practice_red.png,red,2,9,0,PracticeStimuli/practice_black.png,Scramble,,,,,,0,1,1,1,1,2,6,1,,,,,,,,,1.1250923793444252,1.0394469450619748,501.9419363872257,None,501.9419363872257,None,503.0929148489613,504.1438091529235,504.11044708634654,None,2,1,0.31445282132699504,,,,,,,,,,,,,,,,,,,,,,,AM04EN20b,1,0xC010,G:\Experimente\CoScience\Tasks\Logfiles\,2022_Feb_16_1133,Stroop,2020.1.3,59.94717155343167,
Subset2,3,PracticeStimuli/practice_yellow.png,yellow,3,9,0,PracticeStimuli/practice_black.png,Scramble,,,,,,0,1,1,1,1,3,7,3,,,,,,,,,1.3800326323868335,1.046802248779798,504.4440648350319,None,504.4440648350319,None,505.845254420472,506.89615076638984,506.8627878246898,None,3,1,0.20506638546066824,,,,,,,,,,,,,,,,,,,,,,,AM04EN20b,1,0xC010,G:\Experimente\CoScience\Tasks\Logfiles\,2022_Feb_16_1133,Stroop,2020.1.3,59.94717155343167,
Subset2,3,PracticeStimuli/practice_yellow.png,yellow,3,9,0,PracticeStimuli/practice_black.png,Scramble,,,,,,0,1,1,1,2,0,8,3,,,,,,,,,1.1062114780503087,1.024081845747367,507.0963184985212,None,507.0963184985212,None,508.2306185523412,509.2648312395995,509.23146888131487,None,3,1,0.4913168722487171,,,,,,,,,,,,,,,,,,,,,,,AM04EN20b,1,0xC010,G:\Experimente\CoScience\Tasks\Logfiles\,2022_Feb_16_1133,Stroop,2020.1.3,59.94717155343167,
Subset2,3,PracticeStimuli/practice_red.png,red,2,9,0,PracticeStimuli/practice_black.png,Scramble,,,,,,0,1,1,1,2,1,9,1,,,,,,,,,1.0883717137340088,1.1316403308239267,509.74857770446215,None,509.74857770446215,None,510.8661932244977,512.0004964871059,511.96714317177066,None,2,1,0.5076032245415263,,,,,,,,,,,,,,,,,,,,,,,AM04EN20b,1,0xC010,G:\Experimente\CoScience\Tasks\Logfiles\,2022_Feb_16_1133,Stroop,2020.1.3,59.94717155343167,
Subset2,3,PracticeStimuli/practice_green.png,green,1,9,0,PracticeStimuli/practice_black.png,Scramble,,,,,,0,1,1,1,2,2,10,2,,,,,,,,,1.1115002366696398,1.0408051210856573,512.5009184428036,None,512.5009184428036,None,513.6352190800408,514.6861122171704,514.6527478169301,None,1,1,0.4579078406750341,,,,,,,,,,,,,,,,,,,,,,,AM04EN20b,1,0xC010,G:\Experimente\CoScience\Tasks\Logfiles\,2022_Feb_16_1133,Stroop,2020.1.3,59.94717155343167,
Subset2,3,PracticeStimuli/practice_blue.png,blue,4,9,0,PracticeStimuli/practice_black.png,Scramble,,,,,,0,1,1,1,2,3,11,0,,,,,,,,,1.414015739775266,1.4873510673554278,515.136493990085,None,515.136493990085,None,516.5710462255174,518.0723246360576,518.038968987059,None,4,1,0.24564064193327795,,,,,,,,,,,,,,,,,,,,,,,AM04EN20b,1,0xC010,G:\Experimente\CoScience\Tasks\Logfiles\,2022_Feb_16_1133,Stroop,2020.1.3,59.94717155343167,
Subset2,3,,,,,,Stimuli/man_85.png,erotic_man,Stimuli/man_81.png,green,1,3,38,0,1,1,1,,,,,0,0,0,39,,,,,1.2842194392709916,1.4593655270166064,518.3725814849986,None,518.3725814849986,None,,,,,,,,None,,38,99,1,519.940592196519,521.4084974555772,521.3751345138771,None,1,1,0.8103760554349719,1.4634245066845324,None,521.3751345138771,None,False,None,None,None,,,AM04EN20b,1,0xC010,G:\Experimente\CoScience\Tasks\Logfiles\,2022_Feb_16_1133,Stroop,2020.1.3,59.94717155343167,
Subset2,3,,,,,,Stimuli/neutral_couple_15.png,neutral_couple,Stimuli/neutral_couple_11.png,green,1,5,51,0,1,1,1,,,,,0,1,1,63,,,,,1.294085483643605,1.2673095712007125,522.2091774270484,None,522.2091774270484,None,,,,,,,,,,51,99,1,523.5770069878672,524.8447506406646,524.828072232749,None,1,1,0.915343697721255,1.277766683149821,None,524.828072232749,None,False,None,None,None,,,AM04EN20b,1,0xC010,G:\Experimente\CoScience\Tasks\Logfiles\,2022_Feb_16_1133,Stroop,2020.1.3,59.94717155343167,
Subset2,3,,,,,,Stimuli/woman_75.png,erotic_woman,Stimuli/woman_73.png,yellow,3,7,77,0,1,1,1,,,,,0,2,2,62,,,,,1.2254436141509162,1.1839469579185509,525.7621998871091,None,525.7621998871091,None,,,,,,,,,,77,99,1,527.0633076484391,528.247646134796,528.2309662683401,None,3,1,0.5703785057830828,1.1946968934553297,None,528.2309662683401,None,False,None,None,None,,,AM04EN20b,1,0xC010,G:\Experimente\CoScience\Tasks\Logfiles\,2022_Feb_16_1133,Stroop,2020.1.3,59.94717155343167,
Subset2,3,,,,,,Stimuli/woman_55.png,erotic_woman,Stimuli/woman_51.png,green,1,7,75,0,1,1,1,,,,,0,3,3,0,,,,,1.0134048528386583,1.1087687513449647,528.8314773408474,None,528.8314773408474,None,,,,,,,,,,75,99,1,529.9324144529674,531.0500425164482,531.0166687815508,None,1,1,0.481650834211905,1.113974186755513,None,531.0166687815508,None,False,None,None,None,,,AM04EN20b,1,0xC010,G:\Experimente\CoScience\Tasks\Logfiles\,2022_Feb_16_1133,Stroop,2020.1.3,59.94717155343167,
Subset2,3,,,,,,Stimuli/positiv_85.png,positive_man_woman,Stimuli/positiv_81.png,green,1,6,68,0,1,1,1,,,,,0,4,4,90,,,,,1.1026210721751624,1.1984822140088616,531.5170939460368,None,531.5170939460368,None,,,,,,,,,,68,99,1,532.7181230920469,533.9191478624361,533.885777336327,None,1,1,0.45648109658941394,1.1994969494644465,None,533.885777336327,None,False,None,None,None,,,AM04EN20b,1,0xC010,G:\Experimente\CoScience\Tasks\Logfiles\,2022_Feb_16_1133,Stroop,2020.1.3,59.94717155343167,
Subset2,3,,,,,,Stimuli/man_35.png,erotic_man,Stimuli/man_32.png,red,2,3,33,0,1,1,1,,,,,0,5,5,22,,,,,1.2923692313375934,1.309063807555234,534.3695211758168,None,534.3695211758168,None,,,,,,,,,,33,99,1,535.7206717453046,537.0384576228425,537.0050967230982,None,2,1,0.5040931015428214,1.3086786937910801,None,537.0050967230982,None,False,None,None,None,,,AM04EN20b,1,0xC010,G:\Experimente\CoScience\Tasks\Logfiles\,2022_Feb_16_1133,Stroop,2020.1.3,59.94717155343167,
Subset2,3,,,,,,Stimuli/couple_75.png,erotic_couple,Stimuli/couple_72.png,red,2,2,27,0,1,1,1,,,,,0,6,6,60,,,,,1.2352985859051682,1.3285465164829144,537.5388845375783,None,537.5388845375783,None,,,,,,,,,,27,99,1,538.8066302323314,540.1410962680329,540.1244166932847,None,2,1,0.4276927205701213,1.3365512815471448,None,540.1244166932847,None,False,None,None,None,,,AM04EN20b,1,0xC010,G:\Experimente\CoScience\Tasks\Logfiles\,2022_Feb_16_1133,Stroop,2020.1.3,59.94717155343167,
Subset2,3,,,,,,Stimuli/neutral_couple_55.png,neutral_couple,Stimuli/neutral_couple_54.png,blue,4,5,55,0,1,1,1,,,,,0,7,7,4,,,,,1.2391777032170608,1.0680566298940866,540.5747990496147,None,540.5747990496147,None,,,,,,,,,,55,99,1,541.8592272361984,542.9268002397839,542.9101200816203,None,4,1,0.6249462892556039,1.0725047366104263,None,542.9101200816203,None,False,None,None,None,,,AM04EN20b,1,0xC010,G:\Experimente\CoScience\Tasks\Logfiles\,2022_Feb_16_1133,Stroop,2020.1.3,59.94717155343167,
Subset2,3,,,,,,Stimuli/man_85.png,erotic_man,Stimuli/man_82.png,red,2,3,38,0,1,1,1,,,,,0,8,8,54,,,,,1.3381027206229015,1.309755861745436,543.560674253993,None,543.560674253993,None,,,,,,,,,,38,99,1,544.9618635477254,546.2796599267531,546.2629713090555,None,2,1,0.3739956856388744,1.3185130473721074,None,546.2629713090555,None,False,None,None,None,,,AM04EN20b,1,0xC010,G:\Experimente\CoScience\Tasks\Logfiles\,2022_Feb_16_1133,Stroop,2020.1.3,59.94717155343167,
Subset2,3,,,,,,Stimuli/couple_45.png,erotic_couple,Stimuli/couple_44.png,blue,4,2,24,0,1,1,1,,,,,0,9,9,50,,,,,1.4218555820705592,1.2905323663482222,546.663314066016,None,546.663314066016,None,,,,,,,,,,24,99,1,548.1479105681465,549.4490145372711,549.4156536375267,None,4,1,0.2602735929831397,1.2932079572110524,None,549.4156536375267,None,False,None,None,None,,,AM04EN20b,1,0xC010,G:\Experimente\CoScience\Tasks\Logfiles\,2022_Feb_16_1133,Stroop,2020.1.3,59.94717155343167,
Subset2,3,,,,,,Stimuli/positiv_45.png,positive_man_woman,Stimuli/positiv_44.png,blue,4,6,64,0,1,1,1,,,,,0,10,10,37,,,,,1.470836922057733,1.3090799551482797,549.6992291614715,None,549.6992291614715,None,,,,,,,,,,64,99,1,551.2338681800484,552.5516555161266,552.5182919910094,None,4,1,0.5775545238811901,1.317599709458591,None,552.5182919910094,None,False,None,None,None,,,AM04EN20b,1,0xC010,G:\Experimente\CoScience\Tasks\Logfiles\,2022_Feb_16_1133,Stroop,2020.1.3,59.94717155343167,
Subset2,3,,,,,,Stimuli/neutral_25.png,neutral_man_woman,Stimuli/neutral_23.png,yellow,3,4,42,0,1,1,1,,,,,0,11,11,19,,,,,1.4622321905117197,1.2279535763634755,553.1188042303511,None,553.1188042303511,None,,,,,,,,,,42,99,1,554.6534447074682,555.8878251268561,555.8544642271117,None,3,1,0.4763117017228069,1.2279090220908984,None,555.8544642271117,None,False,None,None,None,,,AM04EN20b,1,0xC010,G:\Experimente\CoScience\Tasks\Logfiles\,2022_Feb_16_1133,Stroop,2020.1.3,59.94717155343167,
Subset2,3,,,,,,Stimuli/tree_55.png,tree,Stimuli/tree_54.png,blue,4,1,15,0,1,1,1,,,,,0,12,12,106,,,,,1.0421737935970918,1.0154618927706605,556.3548899750149,None,556.3548899750149,None,,,,,,,,,,15,99,1,557.4558282539674,558.4733572825644,558.4566771244008,None,4,1,0.5250534919650818,1.0228905642670725,None,558.4566771244008,None,False,None,None,None,,,AM04EN20b,1,0xC010,G:\Experimente\CoScience\Tasks\Logfiles\,2022_Feb_16_1133,Stroop,2020.1.3,59.94717155343167,
Subset2,3,,,,,,Stimuli/positiv_55.png,positive_man_woman,Stimuli/positiv_51.png,green,1,6,65,0,1,1,1,,,,,0,13,13,15,,,,,1.2862908729873235,1.4023860245239514,559.0071468472925,None,559.0071468472925,None,,,,,,,,,,65,99,1,560.374974949571,561.7928490687955,561.7594855436782,None,1,1,0.42617146307566145,1.4129923266209516,None,561.7594855436782,None,False,None,None,None,,,AM04EN20b,1,0xC010,G:\Experimente\CoScience\Tasks\Logfiles\,2022_Feb_16_1133,Stroop,2020.1.3,59.94717155343167,
Subset2,3,,,,,,Stimuli/man_45.png,erotic_man,Stimuli/man_44.png,blue,4,3,34,0,1,1,1,,,,,0,14,14,105,,,,,1.1451537528851574,1.049609383066806,562.2098708170888,None,562.2098708170888,None,,,,,,,,,,34,99,0,563.4108932538147,564.4617860992366,564.4451053576558,565.4459565617544,None,0,,1.0541806285455095,2.0550376668034005,564.4451053576558,565.4459565617544,False,None,None,None,,,AM04EN20b,1,0xC010,G:\Experimente\CoScience\Tasks\Logfiles\,2022_Feb_16_1133,Stroop,2020.1.3,59.94717155343167,
Subset2,3,,,,,,Stimuli/neutral_couple_65.png,neutral_couple,Stimuli/neutral_couple_63.png,yellow,3,5,56,0,1,1,1,,,,,0,15,15,53,,,,,1.4205245703077345,1.0021733028301716,565.462636719918,None,565.462636719918,None,,,,,,,,,,56,99,1,566.9472349722946,567.964766917974,567.9314028094414,None,3,1,0.5701168436607986,1.0138861200921383,None,567.9314028094414,None,False,None,None,None,,,AM04EN20b,1,0xC010,G:\Experimente\CoScience\Tasks\Logfiles\,2022_Feb_16_1133,Stroop,2020.1.3,59.94717155343167,
Subset2,3,,,,,,Stimuli/man_45.png,erotic_man,Stimuli/man_41.png,green,1,3,34,0,1,1,1,,,,,0,16,16,82,,,,,1.3993279017050875,1.4618834026300287,568.5319156321966,None,568.5319156321966,None,,,,,,,,,,34,99,1,569.9831506511655,571.4510643697577,571.417702011473,None,1,1,0.31675031395025144,1.4616746084175247,None,571.417702011473,None,False,None,None,None,,,AM04EN20b,1,0xC010,G:\Experimente\CoScience\Tasks\Logfiles\,2022_Feb_16_1133,Stroop,2020.1.3,59.94717155343167,
Subset2,3,,,,,,Stimuli/tree_85.png,tree,Stimuli/tree_82.png,red,2,1,18,0,1,1,1,,,,,0,17,17,102,,,,,1.4750200834020561,1.169453131069818,571.7513200518661,None,571.7513200518661,None,,,,,,,,,,18,99,1,573.3026421456889,574.4869809237516,574.4536171069267,None,2,1,0.4287936267628538,1.1822537947591627,None,574.4536171069267,None,False,None,None,None,,,AM04EN20b,1,0xC010,G:\Experimente\CoScience\Tasks\Logfiles\,2022_Feb_16_1133,Stroop,2020.1.3,59.94717155343167,
Subset2,3,,,,,,Stimuli/man_25.png,erotic_man,Stimuli/man_22.png,red,2,3,32,0,1,1,1,,,,,0,18,18,101,,,,,1.2782538117535334,1.0461202818049027,574.9040020886296,None,574.9040020886296,None,,,,,,,,,,32,99,1,576.2551497410368,577.3060463786642,577.2726825618392,None,2,1,0.36063020607798535,1.0489257996796368,None,577.2726825618392,None,False,None,None,None,,,AM04EN20b,1,0xC010,G:\Experimente\CoScience\Tasks\Logfiles\,2022_Feb_16_1133,Stroop,2020.1.3,59.94717155343167,
Subset2,3,,,,,,Stimuli/neutral_65.png,neutral_man_woman,Stimuli/neutral_63.png,yellow,3,4,46,0,1,1,1,,,,,0,19,19,65,,,,,1.0431661529052298,1.1342573861677416,577.6563416601402,None,577.6563416601402,None,,,,,,,,,,46,99,1,578.7572796473833,579.891578242663,579.8748960425437,None,3,1,0.5823548715979996,1.1396449621297506,None,579.8748960425437,None,False,None,None,None,,,AM04EN20b,1,0xC010,G:\Experimente\CoScience\Tasks\Logfiles\,2022_Feb_16_1133,Stroop,2020.1.3,59.94717155343167,
Subset2,3,,,,,,Stimuli/neutral_couple_65.png,neutral_couple,Stimuli/neutral_couple_62.png,red,2,5,56,0,1,1,1,,,,,0,20,20,2,,,,,1.480585026746181,1.102178149367016,580.4754085735913,None,580.4754085735913,None,,,,,,,,,,56,99,1,581.9933651003412,583.1109826623324,583.0776197206324,None,2,1,0.44058154917365755,1.1056360621169006,None,583.0776197206324,None,False,None,None,None,,,AM04EN20b,1,0xC010,G:\Experimente\CoScience\Tasks\Logfiles\,2022_Feb_16_1133,Stroop,2020.1.3,59.94717155343167,
Subset2,3,,,,,,Stimuli/neutral_couple_35.png,neutral_couple,Stimuli/neutral_couple_34.png,blue,4,5,53,0,1,1,1,,,,,0,21,21,16,,,,,1.054818345150725,1.4184665629635578,583.5446851522065,None,583.5446851522065,None,,,,,,,,,,53,99,1,584.6623038810303,586.080174499757,586.0634928830532,None,4,1,0.27763051382862614,1.423721057091825,None,586.0634928830532,None,False,None,None,None,,,AM04EN20b,1,0xC010,G:\Experimente\CoScience\Tasks\Logfiles\,2022_Feb_16_1133,Stroop,2020.1.3,59.94717155343167,
Subset2,3,,,,,,Stimuli/tree_15.png,tree,Stimuli/tree_14.png,blue,4,1,11,0,1,1,1,,,,,0,22,22,88,,,,,1.4031920490518723,1.3985189899516741,586.3637494402847,None,586.3637494402847,None,,,,,,,,,,11,99,1,587.8316663676669,589.2328547862726,589.2161737529841,None,4,1,0.5918832234310685,1.4035541125740565,None,589.2161737529841,None,False,None,None,None,,,AM04EN20b,1,0xC010,G:\Experimente\CoScience\Tasks\Logfiles\,2022_Feb_16_1133,Stroop,2020.1.3,59.94717155343167,
Subset2,3,,,,,,Stimuli/neutral_85.png,neutral_man_woman,Stimuli/neutral_83.png,yellow,3,4,48,0,1,1,1,,,,,0,23,23,108,,,,,1.279323400635179,1.4537630792485097,589.8333664421971,None,589.8333664421971,None,,,,,,,,,,48,99,1,591.1678362701041,592.6357517389442,592.6023887972442,None,3,1,0.41862672599927464,1.460511860121187,None,592.6023887972442,None,False,None,None,None,,,AM04EN20b,1,0xC010,G:\Experimente\CoScience\Tasks\Logfiles\,2022_Feb_16_1133,Stroop,2020.1.3,59.94717155343167,
Subset2,3,,,,,,Stimuli/man_25.png,erotic_man,Stimuli/man_21.png,green,1,3,32,0,1,1,1,,,,,0,24,24,45,,,,,1.109672869303889,1.1488725809982487,593.0527717369914,None,593.0527717369914,None,,,,,,,,,,32,99,1,594.2204326905558,595.3714105688741,595.3547371199966,None,1,1,0.6841919030593999,1.15364636524464,None,595.3547371199966,None,False,None,None,None,,,AM04EN20b,1,0xC010,G:\Experimente\CoScience\Tasks\Logfiles\,2022_Feb_16_1133,Stroop,2020.1.3,59.94717155343167,
Subset2,3,,,,,,Stimuli/positiv_75.png,positive_man_woman,Stimuli/positiv_72.png,red,2,6,67,0,1,1,1,,,,,0,25,25,76,,,,,1.302738450097796,1.361206874615542,596.0553259327007,None,596.0553259327007,None,,,,,,,,,,67,99,1,597.4398441112171,598.8076655042096,598.7743048961747,None,2,1,0.4435604718091781,1.3670249716669787,None,598.7743048961747,None,False,None,None,None,,,AM04EN20b,1,0xC010,G:\Experimente\CoScience\Tasks\Logfiles\,2022_Feb_16_1133,Stroop,2020.1.3,59.94717155343167,
Subset2,3,,,,,,Stimuli/woman_45.png,erotic_woman,Stimuli/woman_43.png,yellow,3,7,74,0,1,1,1,,,,,0,26,26,84,,,,,1.3571398598869575,1.4143913792125422,599.2413679940837,None,599.2413679940837,None,,,,,,,,,,74,99,1,600.6425660390578,602.0604334489963,602.0437500820426,None,3,1,0.6410255288301414,1.4203038722771453,None,602.0437500820426,None,False,None,None,None,,,AM04EN20b,1,0xC010,G:\Experimente\CoScience\Tasks\Logfiles\,2022_Feb_16_1133,Stroop,2020.1.3,59.94717155343167,
Subset2,3,,,,,,Stimuli/tree_25.png,tree,Stimuli/tree_23.png,yellow,3,1,12,0,1,1,1,,,,,0,27,27,44,,,,,1.155169994309949,1.1624539619347827,602.7109864545364,None,602.7109864545364,None,,,,,,,,,,12,99,1,603.9286913830911,605.0963482527422,605.0796748038629,None,3,1,0.3660387650834309,1.1755743512767367,None,605.0796748038629,None,False,None,None,None,,,AM04EN20b,1,0xC010,G:\Experimente\CoScience\Tasks\Logfiles\,2022_Feb_16_1133,Stroop,2020.1.3,59.94717155343167,
Subset2,3,,,,,,Stimuli/neutral_couple_45.png,neutral_couple,Stimuli/neutral_couple_43.png,yellow,3,5,54,0,1,1,1,,,,,0,28,28,58,,,,,1.0280578366793507,1.1848929300475632,605.463326901172,None,605.463326901172,None,,,,,,,,,,54,99,1,606.5809441714555,607.7652849914757,607.7486030830623,None,3,1,0.28705880980123766,1.2004062034629897,None,607.7486030830623,None,False,None,None,None,,,AM04EN20b,1,0xC010,G:\Experimente\CoScience\Tasks\Logfiles\,2022_Feb_16_1133,Stroop,2020.1.3,59.94717155343167,
Subset2,3,,,,,,Stimuli/couple_65.png,erotic_couple,Stimuli/couple_64.png,blue,4,2,26,0,1,1,1,,,,,0,29,29,30,,,,,1.4483431176868438,1.0678826809521018,608.0655412569995,None,608.0655412569995,None,,,,,,,,,,26,99,1,609.550136884005,610.6177107627154,610.5843504463865,None,4,1,0.4422620792647649,1.0675001057425106,None,610.5843504463865,None,False,None,None,None,,,AM04EN20b,1,0xC010,G:\Experimente\CoScience\Tasks\Logfiles\,2022_Feb_16_1133,Stroop,2020.1.3,59.94717155343167,
Subset2,3,,,,,,Stimuli/woman_25.png,erotic_woman,Stimuli/woman_24.png,blue,4,7,72,0,1,1,1,,,,,0,30,30,70,,,,,1.4850516731612813,1.4721871258823147,611.0514155862529,None,611.0514155862529,None,,,,,,,,,,72,99,2,612.6027335961626,614.0873298065835,614.0706481898796,None,3,0,0.38588220537167217,1.4850552130410506,None,614.0706481898796,None,False,None,None,None,,,AM04EN20b,1,0xC010,G:\Experimente\CoScience\Tasks\Logfiles\,2022_Feb_16_1133,Stroop,2020.1.3,59.94717155343167,
Subset2,3,,,,,,Stimuli/neutral_25.png,neutral_man_woman,Stimuli/neutral_23.png,yellow,3,4,42,0,1,1,1,,,,,0,31,31,9,,,,,1.1753510870449106,1.0503007936600028,614.4876702298807,None,614.4876702298807,None,,,,,,,,,,42,99,1,615.7053734081856,616.7562645033595,616.7395849286113,None,3,1,0.46888656494775205,1.0535688000763912,None,616.7395849286113,None,False,None,None,None,,,AM04EN20b,1,0xC010,G:\Experimente\CoScience\Tasks\Logfiles\,2022_Feb_16_1133,Stroop,2020.1.3,59.94717155343167,
Subset2,3,,,,,,Stimuli/positiv_35.png,positive_man_woman,Stimuli/positiv_33.png,yellow,3,6,63,0,1,1,1,,,,,0,32,32,35,,,,,1.4736755839884745,1.294226517024946,617.2400112599316,None,617.2400112599316,None,,,,,,,,,,63,99,1,618.757970995468,620.0590749645944,620.0423948064308,None,3,1,0.4209440547710983,1.3023867261181294,None,620.0423948064308,None,False,None,None,None,,,AM04EN20b,1,0xC010,G:\Experimente\CoScience\Tasks\Logfiles\,2022_Feb_16_1133,Stroop,2020.1.3,59.94717155343167,
Subset2,3,,,,,,Stimuli/neutral_55.png,neutral_man_woman,Stimuli/neutral_54.png,blue,4,4,45,0,1,1,1,,,,,0,33,33,26,,,,,1.081958779903946,1.0685507065378115,620.4927768710531,None,620.4927768710531,None,,,,,,,,,,45,99,1,621.643758541577,622.7113303783317,622.6946505118758,None,4,1,0.33366908930111094,1.077543526489535,None,622.6946505118758,None,False,None,None,None,,,AM04EN20b,1,0xC010,G:\Experimente\CoScience\Tasks\Logfiles\,2022_Feb_16_1133,Stroop,2020.1.3,59.94717155343167,
Subset2,3,,,,,,Stimuli/neutral_75.png,neutral_man_woman,Stimuli/neutral_72.png,red,2,4,47,0,1,1,1,,,,,0,34,34,13,,,,,1.3974113004608089,1.4797739755449437,623.0449475435998,None,623.0449475435998,None,,,,,,,,,,47,99,1,624.4795131976025,625.9640968645763,625.9474158312878,None,2,1,0.3458639444470464,1.4895795757693122,None,625.9474158312878,None,False,None,None,None,,,AM04EN20b,1,0xC010,G:\Experimente\CoScience\Tasks\Logfiles\,2022_Feb_16_1133,Stroop,2020.1.3,59.94717155343167,
Subset2,3,,,,,,Stimuli/positiv_65.png,positive_man_woman,Stimuli/positiv_64.png,blue,4,6,66,0,1,1,1,,,,,0,35,35,87,,,,,1.1632438126517735,1.1093297293840694,626.3143947714252,None,626.3143947714252,None,,,,,,,,,,66,99,1,627.5321081595121,628.6497158034308,628.6330365203903,None,4,1,0.4641743130632676,1.1244090505333588,None,628.6330365203903,None,False,None,None,None,,,AM04EN20b,1,0xC010,G:\Experimente\CoScience\Tasks\Logfiles\,2022_Feb_16_1133,Stroop,2020.1.3,59.94717155343167,
Subset2,3,,,,,,Stimuli/neutral_couple_15.png,neutral_couple,Stimuli/neutral_couple_12.png,red,2,5,51,0,1,1,1,,,,,0,36,36,68,,,,,1.1062300377218945,1.2092848402638317,629.1167800681724,None,629.1167800681724,None,,,,,,,,,,51,99,1,630.3178004629408,631.5355036412457,631.5021421580859,None,2,1,0.2890272557415301,1.2153317376905761,None,631.5021421580859,None,False,None,None,None,,,AM04EN20b,1,0xC010,G:\Experimente\CoScience\Tasks\Logfiles\,2022_Feb_16_1133,Stroop,2020.1.3,59.94717155343167,
Subset2,3,,,,,,Stimuli/positiv_45.png,positive_man_woman,Stimuli/positiv_44.png,blue,4,6,64,0,1,1,1,,,,,0,37,37,77,,,,,1.2130439314090493,1.1456823392938955,631.8190779983579,None,631.8190779983579,None,,,,,,,,,,64,99,1,633.0701409095745,634.2211211215599,634.2044360043583,None,4,1,0.40265658523640013,1.1561806081226678,None,634.2044360043583,None,False,None,None,None,,,AM04EN20b,1,0xC010,G:\Experimente\CoScience\Tasks\Logfiles\,2022_Feb_16_1133,Stroop,2020.1.3,59.94717155343167,
Subset2,3,,,,,,Stimuli/man_55.png,erotic_man,Stimuli/man_53.png,yellow,3,3,35,0,1,1,1,,,,,0,38,38,109,,,,,1.0901982547427818,1.1342897027715897,634.6381387859401,None,634.6381387859401,None,,,,,,,,,,35,99,2,635.7891210398811,636.9234190517454,636.9067383101647,None,4,0,0.38633201918855775,1.1365522733540274,None,636.9067383101647,None,False,None,None,None,,,AM04EN20b,1,0xC010,G:\Experimente\CoScience\Tasks\Logfiles\,2022_Feb_16_1133,Stroop,2020.1.3,59.94717155343167,
Subset2,3,,,,,,Stimuli/couple_75.png,erotic_couple,Stimuli/couple_71.png,green,1,2,27,0,1,1,1,,,,,0,39,39,55,,,,,1.1640848505749966,1.2706838094744595,637.3237591833349,None,637.3237591833349,None,,,,,,,,,,27,99,1,638.5414629450552,639.825888506266,639.8092077646852,None,1,1,0.7477585882497806,1.2848196004506462,None,639.8092077646852,None,False,None,None,None,,,AM04EN20b,1,0xC010,G:\Experimente\CoScience\Tasks\Logfiles\,2022_Feb_16_1133,Stroop,2020.1.3,59.94717155343167,
Subset2,3,,,,,,Stimuli/woman_75.png,erotic_woman,Stimuli/woman_73.png,yellow,3,7,77,0,1,1,1,,,,,0,40,40,36,,,,,1.221566038177086,1.31693667085584,640.5765274198275,None,640.5765274198275,None,,,,,,,,,,77,99,1,641.8442763233707,643.1620578252878,643.1453776671242,None,3,1,0.3345412963808485,1.3195791236212244,None,643.1453776671242,None,False,None,None,None,,,AM04EN20b,1,0xC010,G:\Experimente\CoScience\Tasks\Logfiles\,2022_Feb_16_1133,Stroop,2020.1.3,59.94717155343167,
Subset2,3,,,,,,Stimuli/positiv_65.png,positive_man_woman,Stimuli/positiv_61.png,green,1,6,66,0,1,1,1,,,,,0,41,41,48,,,,,1.3634064077670958,1.0826819731665402,643.5123568989693,None,643.5123568989693,None,,,,,,,,,,66,99,1,644.9135511517361,645.9978040217793,645.9811232801985,None,1,1,0.4487210789702658,1.0977831938234885,None,645.9811232801985,None,False,None,None,None,,,AM04EN20b,1,0xC010,G:\Experimente\CoScience\Tasks\Logfiles\,2022_Feb_16_1133,Stroop,2020.1.3,59.94717155343167,
Subset2,3,,,,,,Stimuli/neutral_couple_55.png,neutral_couple,Stimuli/neutral_couple_52.png,red,2,5,55,0,1,1,1,,,,,0,42,42,43,,,,,1.3343362941760577,1.1855479483921907,646.4481875449419,None,646.4481875449419,None,,,,,,,,,,55,99,1,647.8160136052647,649.0170520859319,648.9836774759096,None,2,1,0.49011095115747594,1.1892673022975941,None,648.9836774759096,None,False,None,None,None,,,AM04EN20b,1,0xC010,G:\Experimente\CoScience\Tasks\Logfiles\,2022_Feb_16_1133,Stroop,2020.1.3,59.94717155343167,
Subset2,3,,,,,,Stimuli/neutral_35.png,neutral_man_woman,Stimuli/neutral_32.png,red,2,4,43,0,1,1,1,,,,,0,43,43,98,,,,,1.2764830167956513,1.1018981842713163,649.5007833819764,None,649.5007833819764,None,,,,,,,,,,43,99,1,650.8185698429297,651.919506663342,651.9028265051784,None,2,1,0.4388995605404489,1.1082967312668188,None,651.9028265051784,None,False,None,None,None,,,AM04EN20b,1,0xC010,G:\Experimente\CoScience\Tasks\Logfiles\,2022_Feb_16_1133,Stroop,2020.1.3,59.94717155343167,
Subset2,3,,,,,,Stimuli/couple_25.png,erotic_couple,Stimuli/couple_23.png,yellow,3,2,22,0,1,1,1,,,,,0,44,44,8,,,,,1.4092833884165046,1.4919742680564143,652.36989076992,None,652.36989076992,None,,,,,,,,,,22,99,1,653.8878490469178,655.3891236652544,655.3557642240503,None,3,1,0.8608777203589852,1.4958552369625977,None,655.3557642240503,None,False,None,None,None,,,AM04EN20b,1,0xC010,G:\Experimente\CoScience\Tasks\Logfiles\,2022_Feb_16_1133,Stroop,2020.1.3,59.94717155343167,
Subset2,3,,,,,,Stimuli/couple_75.png,erotic_couple,Stimuli/couple_74.png,blue,4,2,27,0,1,1,1,,,,,0,45,45,21,,,,,1.3904799160451593,1.4781309027872027,656.2398487785467,None,656.2398487785467,None,,,,,,,,,,27,99,1,657.6910840892215,659.1756802996424,659.1590048088074,None,4,1,0.5685623314457189,1.489609738384388,None,659.1590048088074,None,False,None,None,None,,,AM04EN20b,1,0xC010,G:\Experimente\CoScience\Tasks\Logfiles\,2022_Feb_16_1133,Stroop,2020.1.3,59.94717155343167,
Subset2,3,,,,,,Stimuli/tree_35.png,tree,Stimuli/tree_32.png,red,2,1,13,0,1,1,1,,,,,0,46,46,96,,,,,1.160404682230014,1.4272661116534242,659.7595097554477,None,659.7595097554477,None,,,,,,,,,,13,99,1,661.0439347332413,662.4784872603814,662.4451257772198,None,2,1,0.4344014223679551,1.429947011232798,None,662.4451257772198,None,False,None,None,None,,,AM04EN20b,1,0xC010,G:\Experimente\CoScience\Tasks\Logfiles\,2022_Feb_16_1133,Stroop,2020.1.3,59.94717155343167,
Subset2,3,,,,,,Stimuli/tree_55.png,tree,Stimuli/tree_53.png,yellow,3,1,15,0,1,1,1,,,,,0,47,47,40,,,,,1.309164303586344,1.23259732343381,662.9121955844148,None,662.9121955844148,None,,,,,,,,,,15,99,1,664.2800225198625,665.5144029392504,665.4977312406209,None,3,1,0.5986978152523079,1.2361454864749248,None,665.4977312406209,None,False,None,None,None,,,AM04EN20b,1,0xC010,G:\Experimente\CoScience\Tasks\Logfiles\,2022_Feb_16_1133,Stroop,2020.1.3,59.94717155343167,
Subset2,3,,,,,,Stimuli/man_15.png,erotic_man,Stimuli/man_11.png,green,1,3,31,0,1,1,1,,,,,0,48,48,57,,,,,1.06573174615861,1.1311690807823158,666.1149140117595,None,666.1149140117595,None,,,,,,,,,,31,99,1,667.2158493736297,668.350147385494,668.3334669356227,None,1,1,0.5498933077797119,1.143607903537486,None,668.3334669356227,None,False,None,None,None,,,AM04EN20b,1,0xC010,G:\Experimente\CoScience\Tasks\Logfiles\,2022_Feb_16_1133,Stroop,2020.1.3,59.94717155343167,
Subset2,3,,,,,,Stimuli/woman_45.png,erotic_woman,Stimuli/woman_42.png,red,2,7,74,0,1,1,1,,,,,0,49,49,104,,,,,1.4425369237791226,1.0262359295087964,668.900615941553,None,668.900615941553,None,,,,,,,,,,74,99,1,670.4018937686797,671.436106455938,671.4027440976533,None,2,1,0.5525723545360961,1.0260097984737513,None,671.4027440976533,None,False,None,None,None,,,AM04EN20b,1,0xC010,G:\Experimente\CoScience\Tasks\Logfiles\,2022_Feb_16_1133,Stroop,2020.1.3,59.94717155343167,
Subset2,3,,,,,,Stimuli/woman_55.png,erotic_woman,Stimuli/woman_54.png,blue,4,7,75,0,1,1,1,,,,,0,50,50,61,,,,,1.0752479013010148,1.0626647844381265,671.986575011997,None,671.986575011997,None,,,,,,,,,,75,99,1,673.1208724404441,674.1884474859871,674.1717929981314,None,4,1,0.49945231813217106,1.0716801946291525,None,674.1717929981314,None,False,None,None,None,,,AM04EN20b,1,0xC010,G:\Experimente\CoScience\Tasks\Logfiles\,2022_Feb_16_1133,Stroop,2020.1.3,59.94717155343167,
Subset2,3,,,,,,Stimuli/positiv_45.png,positive_man_woman,Stimuli/positiv_41.png,green,1,6,64,0,1,1,1,,,,,0,51,51,85,,,,,1.1639451533643081,1.1129579912182601,674.6888720670577,None,674.6888720670577,None,,,,,,,,,,64,99,1,675.9065761204874,677.0241919322307,677.0075117740671,None,1,1,0.4156685146372183,1.125165449517226,None,677.0075117740671,None,False,None,None,None,,,AM04EN20b,1,0xC010,G:\Experimente\CoScience\Tasks\Logfiles\,2022_Feb_16_1133,Stroop,2020.1.3,59.94717155343167,
Subset2,3,,,,,,Stimuli/positiv_75.png,positive_man_woman,Stimuli/positiv_73.png,yellow,3,6,67,0,1,1,1,,,,,0,52,52,49,,,,,1.1609586014204636,1.049491612572073,677.4412142639412,None,677.4412142639412,None,,,,,,,,,,67,99,1,678.675595558454,679.7264907375411,679.6931283792564,None,3,1,0.3870119906605396,1.0501678925684246,None,679.6931283792564,None,False,None,None,None,,,AM04EN20b,1,0xC010,G:\Experimente\CoScience\Tasks\Logfiles\,2022_Feb_16_1133,Stroop,2020.1.3,59.94717155343167,
Subset2,3,,,,,,Stimuli/neutral_45.png,neutral_man_woman,Stimuli/neutral_41.png,green,1,4,44,0,1,1,1,,,,,0,53,53,66,,,,,1.374604362802553,1.2077889925584808,680.1101518777978,None,680.1101518777978,None,,,,,,,,,,44,99,1,681.5447052800628,682.7624069998274,682.7457256748312,None,1,1,0.559335022322557,1.2209612072037999,None,682.7457256748312,None,False,None,None,None,,,AM04EN20b,1,0xC010,G:\Experimente\CoScience\Tasks\Logfiles\,2022_Feb_16_1133,Stroop,2020.1.3,59.94717155343167,
Subset2,3,,,,,,Stimuli/positiv_25.png,positive_man_woman,Stimuli/positiv_22.png,red,2,6,62,0,1,1,1,,,,,0,54,54,12,,,,,1.15140935868988,1.2140111223829595,683.329553963802,None,683.329553963802,None,,,,,,,,,,62,99,1,684.5305781507759,685.7482795788328,685.7316105055743,None,2,1,0.3973822119351098,1.2273108163881261,None,685.7316105055743,None,False,None,None,None,,,AM04EN20b,1,0xC010,G:\Experimente\CoScience\Tasks\Logfiles\,2022_Feb_16_1133,Stroop,2020.1.3,59.94717155343167,
Subset2,3,,,,,,Stimuli/couple_15.png,erotic_couple,Stimuli/couple_11.png,green,1,2,21,0,1,1,1,,,,,0,55,55,93,,,,,1.313629338275113,1.4506330260078801,686.1486331289925,None,686.1486331289925,None,,,,,,,,,,21,99,1,687.499768821368,688.9510026735043,688.9176423571771,None,1,1,0.6552926779822883,1.44993052972859,None,688.9176423571771,None,False,None,None,None,,,AM04EN20b,1,0xC010,G:\Experimente\CoScience\Tasks\Logfiles\,2022_Feb_16_1133,Stroop,2020.1.3,59.94717155343167,
Subset2,3,,,,,,Stimuli/neutral_75.png,neutral_man_woman,Stimuli/neutral_73.png,yellow,3,4,47,0,1,1,1,,,,,0,56,56,89,,,,,1.1482075437882069,1.406139889472584,689.601555095629,None,689.601555095629,None,,,,,,,,,,47,99,1,690.8025807411432,692.2204510681622,692.1870878347545,None,3,1,0.5797776309518667,1.406453690617127,None,692.1870878347545,None,False,None,None,None,,,AM04EN20b,1,0xC010,G:\Experimente\CoScience\Tasks\Logfiles\,2022_Feb_16_1133,Stroop,2020.1.3,59.94717155343167,
Subset2,3,,,,,,Stimuli/couple_65.png,erotic_couple,Stimuli/couple_62.png,red,2,2,26,0,1,1,1,,,,,0,57,57,29,,,,,1.2232535212032332,1.2404357351139284,692.7875989072618,None,692.7875989072618,None,,,,,,,,,,26,99,1,694.0720259270129,695.3230961309309,695.3064089717736,None,2,1,0.46638458497909596,1.2536943512204743,None,695.3064089717736,None,False,None,None,None,,,AM04EN20b,1,0xC010,G:\Experimente\CoScience\Tasks\Logfiles\,2022_Feb_16_1133,Stroop,2020.1.3,59.94717155343167,
Subset2,3,,,,,,Stimuli/neutral_couple_25.png,neutral_couple,Stimuli/neutral_couple_21.png,green,1,5,52,0,1,1,1,,,,,0,58,58,23,,,,,1.1096844000300612,1.0842903325314737,695.790152227848,None,695.790152227848,None,,,,,,,,,,52,99,1,696.9578131814123,698.0420680934112,698.0253864767074,None,1,1,0.6633534466018318,1.0983160569248867,None,698.0253864767074,None,False,None,None,None,,,AM04EN20b,1,0xC010,G:\Experimente\CoScience\Tasks\Logfiles\,2022_Feb_16_1133,Stroop,2020.1.3,59.94717155343167,
Subset2,3,,,,,,Stimuli/neutral_75.png,neutral_man_woman,Stimuli/neutral_73.png,yellow,3,4,47,0,1,1,1,,,,,0,59,59,67,,,,,1.1984634922632473,1.086684190400203,698.7093024239493,None,698.7093024239493,None,,,,,,,,,,47,99,1,699.9436845935852,701.0446222891205,701.0112783084442,None,3,1,0.2954072025622736,1.0905859685517498,None,701.0112783084442,None,False,None,None,None,,,AM04EN20b,1,0xC010,G:\Experimente\CoScience\Tasks\Logfiles\,2022_Feb_16_1133,Stroop,2020.1.3,59.94717155343167,
Subset2,3,,,,,,Stimuli/man_65.png,erotic_man,Stimuli/man_63.png,yellow,3,3,36,0,1,1,1,,,,,0,60,60,41,,,,,1.2302668535812866,1.2183190332673033,701.3281966462328,None,701.3281966462328,None,,,,,,,,,,36,99,1,702.5959426326954,703.8136431856274,703.7969647777118,None,3,1,0.43064480606517463,1.2195200527403358,None,703.7969647777118,None,False,None,None,None,,,AM04EN20b,1,0xC010,G:\Experimente\CoScience\Tasks\Logfiles\,2022_Feb_16_1133,Stroop,2020.1.3,59.94717155343167,
Subset2,3,,,,,,Stimuli/man_15.png,erotic_man,Stimuli/man_11.png,green,1,3,31,0,1,1,1,,,,,0,61,61,86,,,,,1.2779711760264485,1.4736269052807045,704.2473468423341,None,704.2473468423341,None,,,,,,,,,,31,99,1,705.5651321364548,707.0497268883355,707.0330575233693,None,1,1,0.5324631682124163,1.488395532785944,None,707.0330575233693,None,False,None,None,None,,,AM04EN20b,1,0xC010,G:\Experimente\CoScience\Tasks\Logfiles\,2022_Feb_16_1133,Stroop,2020.1.3,59.94717155343167,
Subset2,3,,,,,,Stimuli/neutral_couple_35.png,neutral_couple,Stimuli/neutral_couple_34.png,blue,4,5,53,0,1,1,1,,,,,0,62,62,83,,,,,1.1319247292465677,1.0493047078521371,707.5835167447713,None,707.5835167447713,None,,,,,,,,,,53,99,2,708.7511744895473,709.8020711271747,709.7853895104708,None,2,0,0.5760878157925617,1.0561463324283977,None,709.7853895104708,None,False,None,None,None,,,AM04EN20b,1,0xC010,G:\Experimente\CoScience\Tasks\Logfiles\,2022_Feb_16_1133,Stroop,2020.1.3,59.94717155343167,
Subset2,3,,,,,,Stimuli/couple_55.png,erotic_couple,Stimuli/couple_52.png,red,2,2,25,0,1,1,1,,,,,0,63,63,11,,,,,1.1963980077959802,1.2334339650561401,710.3858999995628,None,710.3858999995628,None,,,,,,,,,,25,99,1,711.7036867522256,712.9380715472344,712.9213893471133,None,2,1,0.40702170453732833,1.2460303347197623,None,712.9213893471133,None,False,None,None,None,,,AM04EN20b,1,0xC010,G:\Experimente\CoScience\Tasks\Logfiles\,2022_Feb_16_1133,Stroop,2020.1.3,59.94717155343167,
