"Onset","Duration","Participant","date_time","Running","Trial","Event","ImageCondition","ImageFile","Colour","Accuracy","RT","Post_Trial","Post_TrialCondition","TaskPerf"
44.2188011674152,1.16795508531191,"AM04EN20b","2022_Feb_16_1133","Practice",0,"Fixation","Scramble","","",1,0.755729510790843,"post_correct","post_erotic_man",94.4196428571429
45.4364976364359,1.30643094246888,"AM04EN20b","2022_Feb_16_1133","Practice",0,"Picture","Scramble","","",1,0.755729510790843,"post_correct","post_erotic_man",94.4196428571429
46.7209214473969,0.755729510790843,"AM04EN20b","2022_Feb_16_1133","Practice",0,"Target","Scramble","","",1,0.755729510790843,"post_correct","post_erotic_man",94.4196428571429
47.4766509581877,0,"AM04EN20b","2022_Feb_16_1133","Practice",0,"Response","Scramble","","",1,0.755729510790843,"post_correct","post_erotic_man",94.4196428571429
47.5049326373191,1.05094338528888,"AM04EN20b","2022_Feb_16_1133","Practice",1,"Fixation","Scramble","","",1,0.44813999652979,"post_correct",NA,94.4196428571429
48.5724995150358,1.10860594293855,"AM04EN20b","2022_Feb_16_1133","Practice",1,"Picture","Scramble","","",1,0.44813999652979,"post_correct",NA,94.4196428571429
49.6734328349503,0.44813999652979,"AM04EN20b","2022_Feb_16_1133","Practice",1,"Target","Scramble","","",1,0.44813999652979,"post_correct",NA,94.4196428571429
50.1215728314801,0,"AM04EN20b","2022_Feb_16_1133","Practice",1,"Response","Scramble","","",1,0.44813999652979,"post_correct",NA,94.4196428571429
50.1404988499417,1.10181147765355,"AM04EN20b","2022_Feb_16_1133","Practice",2,"Fixation","Scramble","","",1,0.37012851198233,"post_correct",NA,94.4196428571429
51.2748015291345,1.14306869480301,"AM04EN20b","2022_Feb_16_1133","Practice",2,"Picture","Scramble","","",1,0.37012851198233,"post_correct",NA,94.4196428571429
52.39241384038,0.37012851198233,"AM04EN20b","2022_Feb_16_1133","Practice",2,"Target","Scramble","","",1,0.37012851198233,"post_correct",NA,94.4196428571429
52.7625423523623,0,"AM04EN20b","2022_Feb_16_1133","Practice",2,"Response","Scramble","","",1,0.37012851198233,"post_correct",NA,94.4196428571429
52.7927548470943,1.17535449169024,"AM04EN20b","2022_Feb_16_1133","Practice",3,"Fixation","Scramble","","",1,0.287389606733996,"post_correct",NA,94.4196428571429
54.0104615258952,1.13966103582496,"AM04EN20b","2022_Feb_16_1133","Practice",3,"Picture","Scramble","","",1,0.287389606733996,"post_correct",NA,94.4196428571429
55.1280747122673,0.287389606733996,"AM04EN20b","2022_Feb_16_1133","Practice",3,"Target","Scramble","","",1,0.287389606733996,"post_correct",NA,94.4196428571429
55.4154643190013,0,"AM04EN20b","2022_Feb_16_1133","Practice",3,"Response","Scramble","","",1,0.287389606733996,"post_correct",NA,94.4196428571429
55.4450120110796,1.1173132664521,"AM04EN20b","2022_Feb_16_1133","Practice",4,"Fixation","Scramble","","",1,0.771404734712632,"post_correct",NA,94.4196428571429
56.5626324901514,1.23475278319366,"AM04EN20b","2022_Feb_16_1133","Practice",4,"Picture","Scramble","","",1,0.771404734712632,"post_correct",NA,94.4196428571429
57.7970120344162,0.771404734712632,"AM04EN20b","2022_Feb_16_1133","Practice",4,"Target","Scramble","","",1,0.771404734712632,"post_correct",NA,94.4196428571429
58.5684167691288,0,"AM04EN20b","2022_Feb_16_1133","Practice",4,"Response","Scramble","","",1,0.771404734712632,"post_correct",NA,94.4196428571429
58.5976937561354,1.1615465404261,"AM04EN20b","2022_Feb_16_1133","Practice",5,"Fixation","Scramble","","",1,0.317838968403521,"post_correct",NA,94.4196428571429
59.7653576267803,1.35348025868993,"AM04EN20b","2022_Feb_16_1133","Practice",5,"Picture","Scramble","","",1,0.317838968403521,"post_correct",NA,94.4196428571429
61.1165093630989,0.317838968403521,"AM04EN20b","2022_Feb_16_1133","Practice",5,"Target","Scramble","","",1,0.317838968403521,"post_correct",NA,94.4196428571429
61.4343483315024,0,"AM04EN20b","2022_Feb_16_1133","Practice",5,"Response","Scramble","","",1,0.317838968403521,"post_correct",NA,94.4196428571429
61.466801144079,1.4298173051869,"AM04EN20b","2022_Feb_16_1133","Practice",6,"Fixation","Scramble","","",1,0.296343293704922,"post_correct",NA,94.4196428571429
62.9013656312491,1.06981039196665,"AM04EN20b","2022_Feb_16_1133","Practice",6,"Picture","Scramble","","",1,0.296343293704922,"post_correct",NA,94.4196428571429
63.9689293001775,0.296343293704922,"AM04EN20b","2022_Feb_16_1133","Practice",6,"Target","Scramble","","",1,0.296343293704922,"post_correct",NA,94.4196428571429
64.2652725938824,0,"AM04EN20b","2022_Feb_16_1133","Practice",6,"Response","Scramble","","",1,0.296343293704922,"post_correct",NA,94.4196428571429
64.2858692243626,1.33904206635966,"AM04EN20b","2022_Feb_16_1133","Practice",7,"Fixation","Scramble","","",1,0.285580433390351,"post_correct",NA,94.4196428571429
65.6370183353101,1.49233145587626,"AM04EN20b","2022_Feb_16_1133","Practice",7,"Picture","Scramble","","",1,0.285580433390351,"post_correct",NA,94.4196428571429
67.1216119203582,0.285580433390351,"AM04EN20b","2022_Feb_16_1133","Practice",7,"Target","Scramble","","",1,0.285580433390351,"post_correct",NA,94.4196428571429
67.4071923537486,0,"AM04EN20b","2022_Feb_16_1133","Practice",7,"Response","Scramble","","",1,0.285580433390351,"post_correct",NA,94.4196428571429
67.4385489274628,1.11791237075086,"AM04EN20b","2022_Feb_16_1133","Practice",8,"Fixation","Scramble","","",1,0.467089059926366,"post_correct",NA,94.4196428571429
68.5561729070323,1.05474622684546,"AM04EN20b","2022_Feb_16_1133","Practice",8,"Picture","Scramble","","",1,0.467089059926366,"post_correct",NA,94.4196428571429
69.6070605017085,0.467089059926366,"AM04EN20b","2022_Feb_16_1133","Practice",8,"Target","Scramble","","",1,0.467089059926366,"post_correct",NA,94.4196428571429
70.0741495616349,0,"AM04EN20b","2022_Feb_16_1133","Practice",8,"Response","Scramble","","",1,0.467089059926366,"post_correct",NA,94.4196428571429
70.0908087168209,1.29636528152458,"AM04EN20b","2022_Feb_16_1133","Practice",9,"Fixation","Scramble","","",1,0.484072011049648,"post_correct",NA,94.4196428571429
71.3919161864433,1.35183471383299,"AM04EN20b","2022_Feb_16_1133","Practice",9,"Picture","Scramble","","",1,0.484072011049648,"post_correct",NA,94.4196428571429
72.7430615051853,0.484072011049648,"AM04EN20b","2022_Feb_16_1133","Practice",9,"Target","Scramble","","",1,0.484072011049648,"post_correct",NA,94.4196428571429
73.2271335162349,0,"AM04EN20b","2022_Feb_16_1133","Practice",9,"Response","Scramble","","",1,0.484072011049648,"post_correct",NA,94.4196428571429
73.260170911748,1.05941824885668,"AM04EN20b","2022_Feb_16_1133","Practice",10,"Fixation","Scramble","","",1,0.408561339640073,"post_correct",NA,94.4196428571429
74.3277462489987,1.26911101317074,"AM04EN20b","2022_Feb_16_1133","Practice",10,"Picture","Scramble","","",1,0.408561339640073,"post_correct",NA,94.4196428571429
75.595489026673,0.408561339640073,"AM04EN20b","2022_Feb_16_1133","Practice",10,"Target","Scramble","","",1,0.408561339640073,"post_correct",NA,94.4196428571429
76.0040503663131,0,"AM04EN20b","2022_Feb_16_1133","Practice",10,"Response","Scramble","","",1,0.408561339640073,"post_correct",NA,94.4196428571429
76.0291888911743,1.05789240839748,"AM04EN20b","2022_Feb_16_1133","Practice",11,"Fixation","Scramble","","",1,0.493431463923116,"post_correct",NA,94.4196428571429
77.0967677289227,1.31809129953348,"AM04EN20b","2022_Feb_16_1133","Practice",11,"Picture","Scramble","","",1,0.493431463923116,"post_correct",NA,94.4196428571429
78.4145541898761,0.493431463923116,"AM04EN20b","2022_Feb_16_1133","Practice",11,"Target","Scramble","","",1,0.493431463923116,"post_correct",NA,94.4196428571429
78.9079856537992,0,"AM04EN20b","2022_Feb_16_1133","Practice",11,"Response","Scramble","","",1,0.493431463923116,"post_correct",NA,94.4196428571429
78.931663304731,1.15375089480918,"AM04EN20b","2022_Feb_16_1133","Practice",12,"Fixation","Scramble","","",1,0.477161155573413,"post_correct",NA,94.4196428571429
80.0993347597869,1.29511055977475,"AM04EN20b","2022_Feb_16_1133","Practice",12,"Picture","Scramble","","",1,0.477161155573413,"post_correct",NA,94.4196428571429
81.383747485841,0.477161155573413,"AM04EN20b","2022_Feb_16_1133","Practice",12,"Target","Scramble","","",1,0.477161155573413,"post_correct",NA,94.4196428571429
81.8609086414144,0,"AM04EN20b","2022_Feb_16_1133","Practice",12,"Response","Scramble","","",1,0.477161155573413,"post_correct",NA,94.4196428571429
81.8841735254518,1.36257360623862,"AM04EN20b","2022_Feb_16_1133","Practice",13,"Fixation","Scramble","","",1,0.499228869763101,"post_correct",NA,94.4196428571429
83.2520065867684,1.12196030262231,"AM04EN20b","2022_Feb_16_1133","Practice",13,"Picture","Scramble","","",1,0.499228869763101,"post_correct",NA,94.4196428571429
84.369621231679,0.499228869763101,"AM04EN20b","2022_Feb_16_1133","Practice",13,"Target","Scramble","","",1,0.499228869763101,"post_correct",NA,94.4196428571429
84.8688501014421,0,"AM04EN20b","2022_Feb_16_1133","Practice",13,"Response","Scramble","","",1,0.499228869763101,"post_correct",NA,94.4196428571429
84.8867280128707,1.02542117964471,"AM04EN20b","2022_Feb_16_1133","Practice",14,"Fixation","Scramble","","",1,0.402036122208301,"post_correct",NA,94.4196428571429
85.9209450757498,1.00504349030391,"AM04EN20b","2022_Feb_16_1133","Practice",14,"Picture","Scramble","","",1,0.402036122208301,"post_correct",NA,94.4196428571429
86.9217901539778,0.402036122208301,"AM04EN20b","2022_Feb_16_1133","Practice",14,"Target","Scramble","","",1,0.402036122208301,"post_correct",NA,94.4196428571429
87.3238262761861,0,"AM04EN20b","2022_Feb_16_1133","Practice",14,"Response","Scramble","","",1,0.402036122208301,"post_correct",NA,94.4196428571429
87.3555028536339,1.30150063535231,"AM04EN20b","2022_Feb_16_1133","Practice",15,"Fixation","Scramble","","",1,0.328305745044418,"post_correct",NA,94.4196428571429
88.6566167408346,1.3651737681163,"AM04EN20b","2022_Feb_16_1133","Practice",15,"Picture","Scramble","","",1,0.328305745044418,"post_correct",NA,94.4196428571429
90.0244334664985,0.328305745044418,"AM04EN20b","2022_Feb_16_1133","Practice",15,"Target","Scramble","","",1,0.328305745044418,"post_correct",NA,94.4196428571429
90.3527392115429,0,"AM04EN20b","2022_Feb_16_1133","Practice",15,"Response","Scramble","","",1,0.328305745044418,"post_correct",NA,94.4196428571429
90.3747316650552,1.01777873562656,"AM04EN20b","2022_Feb_16_1133","Practice",16,"Fixation","Scramble","","",1,0.557827183398331,"post_correct",NA,94.4196428571429
91.3922662361056,1.06780128654558,"AM04EN20b","2022_Feb_16_1133","Practice",16,"Picture","Scramble","","",1,0.557827183398331,"post_correct",NA,94.4196428571429
92.4598374894449,0.557827183398331,"AM04EN20b","2022_Feb_16_1133","Practice",16,"Target","Scramble","","",1,0.557827183398331,"post_correct",NA,94.4196428571429
93.0176646728432,0,"AM04EN20b","2022_Feb_16_1133","Practice",16,"Response","Scramble","","",1,0.557827183398331,"post_correct",NA,94.4196428571429
93.0436730711172,1.13113523438899,"AM04EN20b","2022_Feb_16_1133","Practice",17,"Fixation","Scramble","","",1,0.447728396466118,"post_correct",NA,94.4196428571429
94.177969041024,1.46757787062309,"AM04EN20b","2022_Feb_16_1133","Practice",17,"Picture","Scramble","","",1,0.447728396466118,"post_correct",NA,94.4196428571429
95.6458877186542,0.447728396466118,"AM04EN20b","2022_Feb_16_1133","Practice",17,"Target","Scramble","","",1,0.447728396466118,"post_correct",NA,94.4196428571429
96.0936161151203,0,"AM04EN20b","2022_Feb_16_1133","Practice",17,"Response","Scramble","","",1,0.447728396466118,"post_correct",NA,94.4196428571429
96.1129420653233,1.31019455377952,"AM04EN20b","2022_Feb_16_1133","Practice",18,"Fixation","Scramble","","",1,0.438560887492713,"post_correct",NA,94.4196428571429
97.4307355272704,1.09510731860585,"AM04EN20b","2022_Feb_16_1133","Practice",18,"Picture","Scramble","","",1,0.438560887492713,"post_correct",NA,94.4196428571429
98.5149746870338,0.438560887492713,"AM04EN20b","2022_Feb_16_1133","Practice",18,"Target","Scramble","","",1,0.438560887492713,"post_correct",NA,94.4196428571429
98.9535355745265,0,"AM04EN20b","2022_Feb_16_1133","Practice",18,"Response","Scramble","","",1,0.438560887492713,"post_correct",NA,94.4196428571429
98.982055287428,1.49014885849894,"AM04EN20b","2022_Feb_16_1133","Practice",19,"Fixation","Scramble","","",1,0.352810971722647,"post_correct",NA,94.4196428571429
100.483334281385,1.19733402684494,"AM04EN20b","2022_Feb_16_1133","Practice",19,"Picture","Scramble","","",1,0.352810971722647,"post_correct",NA,94.4196428571429
101.6676713092,0.352810971722647,"AM04EN20b","2022_Feb_16_1133","Practice",19,"Target","Scramble","","",1,0.352810971722647,"post_correct",NA,94.4196428571429
102.020482280923,0,"AM04EN20b","2022_Feb_16_1133","Practice",19,"Response","Scramble","","",1,0.352810971722647,"post_correct",NA,94.4196428571429
105.387511686555,1.02063531902467,"AM04EN20b","2022_Feb_16_1133","MainTask",0,"Fixation","positive_man_woman","positive_1","yellow",1,0.413716404347724,NA,NA,94.4196428571429
106.52182895115,1.02415511048069,"AM04EN20b","2022_Feb_16_1133","MainTask",0,"Picture","positive_man_woman","positive_1","yellow",1,0.413716404347724,NA,NA,94.4196428571429
107.522653026399,0.413716404347724,"AM04EN20b","2022_Feb_16_1133","MainTask",0,"Target","positive_man_woman","positive_1","yellow",1,0.413716404347724,NA,NA,94.4196428571429
107.936369430747,0,"AM04EN20b","2022_Feb_16_1133","MainTask",0,"Response","positive_man_woman","positive_1","yellow",1,0.413716404347724,NA,NA,94.4196428571429
107.956357266521,1.19881671592774,"AM04EN20b","2022_Feb_16_1133","MainTask",1,"Fixation","erotic_man","man_6","yellow",1,0.427711681593792,"post_correct","post_positive_man_woman",94.4196428571429
109.224105294939,1.33992241336509,"AM04EN20b","2022_Feb_16_1133","MainTask",1,"Picture","erotic_man","man_6","yellow",1,0.427711681593792,"post_correct","post_positive_man_woman",94.4196428571429
110.558571330641,0.427711681593792,"AM04EN20b","2022_Feb_16_1133","MainTask",1,"Target","erotic_man","man_6","yellow",1,0.427711681593792,"post_correct","post_positive_man_woman",94.4196428571429
110.986283012235,0,"AM04EN20b","2022_Feb_16_1133","MainTask",1,"Response","erotic_man","man_6","yellow",1,0.427711681593792,"post_correct","post_positive_man_woman",94.4196428571429
111.008953686971,1.10106110017085,"AM04EN20b","2022_Feb_16_1133","MainTask",2,"Fixation","neutral_couple","neutral_couple_5","yellow",1,0.37362988374116,"post_correct","post_erotic_man",94.4196428571429
112.176629809355,1.15196432164488,"AM04EN20b","2022_Feb_16_1133","MainTask",2,"Picture","neutral_couple","neutral_couple_5","yellow",1,0.37362988374116,"post_correct","post_erotic_man",94.4196428571429
113.327593102273,0.37362988374116,"AM04EN20b","2022_Feb_16_1133","MainTask",2,"Target","neutral_couple","neutral_couple_5","yellow",1,0.37362988374116,"post_correct","post_erotic_man",94.4196428571429
113.701222986014,0,"AM04EN20b","2022_Feb_16_1133","MainTask",2,"Response","neutral_couple","neutral_couple_5","yellow",1,0.37362988374116,"post_correct","post_erotic_man",94.4196428571429
113.727933233862,1.46657001543842,"AM04EN20b","2022_Feb_16_1133","MainTask",3,"Fixation","tree","tree_6","red",1,0.527169542179763,"post_correct","post_neutral_couple",94.4196428571429
115.262572835854,1.29974643419396,"AM04EN20b","2022_Feb_16_1133","MainTask",3,"Picture","tree","tree_6","red",1,0.527169542179763,"post_correct","post_neutral_couple",94.4196428571429
116.54699752194,0.527169542179763,"AM04EN20b","2022_Feb_16_1133","MainTask",3,"Target","tree","tree_6","red",1,0.527169542179763,"post_correct","post_neutral_couple",94.4196428571429
117.07416706412,0,"AM04EN20b","2022_Feb_16_1133","MainTask",3,"Response","tree","tree_6","red",1,0.527169542179763,"post_correct","post_neutral_couple",94.4196428571429
117.09746753654,1.05822133687437,"AM04EN20b","2022_Feb_16_1133","MainTask",4,"Fixation","erotic_couple","couple_8","blue",1,0.681764600352835,"post_correct","post_tree",94.4196428571429
118.215093849774,1.45835326140859,"AM04EN20b","2022_Feb_16_1133","MainTask",4,"Picture","erotic_couple","couple_8","blue",1,0.681764600352835,"post_correct","post_tree",94.4196428571429
119.666318367252,0.681764600352835,"AM04EN20b","2022_Feb_16_1133","MainTask",4,"Target","erotic_couple","couple_8","blue",1,0.681764600352835,"post_correct","post_tree",94.4196428571429
120.348082967605,0,"AM04EN20b","2022_Feb_16_1133","MainTask",4,"Response","erotic_couple","couple_8","blue",1,0.681764600352835,"post_correct","post_tree",94.4196428571429
120.36691709803,1.2957475848016,"AM04EN20b","2022_Feb_16_1133","MainTask",5,"Fixation","erotic_woman","woman_1","green",1,0.534730323199256,"post_correct","post_erotic_couple",94.4196428571429
121.718067959226,1.09474721904602,"AM04EN20b","2022_Feb_16_1133","MainTask",5,"Picture","erotic_woman","woman_1","green",1,0.534730323199256,"post_correct","post_erotic_couple",94.4196428571429
122.802320245852,0.534730323199256,"AM04EN20b","2022_Feb_16_1133","MainTask",5,"Target","erotic_woman","woman_1","green",1,0.534730323199256,"post_correct","post_erotic_couple",94.4196428571429
123.337050569051,0,"AM04EN20b","2022_Feb_16_1133","MainTask",5,"Response","erotic_woman","woman_1","green",1,0.534730323199256,"post_correct","post_erotic_couple",94.4196428571429
123.369470418616,1.47658797467701,"AM04EN20b","2022_Feb_16_1133","MainTask",6,"Fixation","erotic_couple","couple_6","blue",1,0.584017315790334,"post_correct","post_erotic_woman",94.4196428571429
124.920791345607,1.00241951483792,"AM04EN20b","2022_Feb_16_1133","MainTask",6,"Picture","erotic_couple","couple_6","blue",1,0.584017315790334,"post_correct","post_erotic_woman",94.4196428571429
125.904963558372,0.584017315790334,"AM04EN20b","2022_Feb_16_1133","MainTask",6,"Target","erotic_couple","couple_6","blue",1,0.584017315790334,"post_correct","post_erotic_woman",94.4196428571429
126.488980874162,0,"AM04EN20b","2022_Feb_16_1133","MainTask",6,"Response","erotic_couple","couple_6","blue",1,0.584017315790334,"post_correct","post_erotic_woman",94.4196428571429
126.505470546968,1.10013466069865,"AM04EN20b","2022_Feb_16_1133","MainTask",7,"Fixation","positive_man_woman","positive_3","yellow",1,0.467241039823421,"post_correct","post_erotic_couple",94.4196428571429
127.689814867485,1.01696603774126,"AM04EN20b","2022_Feb_16_1133","MainTask",7,"Picture","positive_man_woman","positive_3","yellow",1,0.467241039823421,"post_correct","post_erotic_couple",94.4196428571429
128.69066344621,0.467241039823421,"AM04EN20b","2022_Feb_16_1133","MainTask",7,"Target","positive_man_woman","positive_3","yellow",1,0.467241039823421,"post_correct","post_erotic_couple",94.4196428571429
129.157904486033,0,"AM04EN20b","2022_Feb_16_1133","MainTask",7,"Response","positive_man_woman","positive_3","yellow",1,0.467241039823421,"post_correct","post_erotic_couple",94.4196428571429
129.174410786198,1.07702452899795,"AM04EN20b","2022_Feb_16_1133","MainTask",8,"Fixation","erotic_man","man_4","yellow",1,0.34680645316439,"post_correct","post_positive_man_woman",94.4196428571429
130.325390706474,1.18908626678231,"AM04EN20b","2022_Feb_16_1133","MainTask",8,"Picture","erotic_man","man_4","yellow",1,0.34680645316439,"post_correct","post_positive_man_woman",94.4196428571429
131.493046117585,0.34680645316439,"AM04EN20b","2022_Feb_16_1133","MainTask",8,"Target","erotic_man","man_4","yellow",1,0.34680645316439,"post_correct","post_positive_man_woman",94.4196428571429
131.839852570749,0,"AM04EN20b","2022_Feb_16_1133","MainTask",8,"Response","erotic_man","man_4","yellow",1,0.34680645316439,"post_correct","post_positive_man_woman",94.4196428571429
131.860028558218,1.18892910642925,"AM04EN20b","2022_Feb_16_1133","MainTask",9,"Fixation","erotic_man","man_6","blue",1,0.480717951859333,"post_correct","post_erotic_man",94.4196428571429
133.11109526164,1.17224009750464,"AM04EN20b","2022_Feb_16_1133","MainTask",9,"Picture","erotic_man","man_6","blue",1,0.480717951859333,"post_correct","post_erotic_man",94.4196428571429
134.262070806297,0.480717951859333,"AM04EN20b","2022_Feb_16_1133","MainTask",9,"Target","erotic_man","man_6","blue",1,0.480717951859333,"post_correct","post_erotic_man",94.4196428571429
134.742788758156,0,"AM04EN20b","2022_Feb_16_1133","MainTask",9,"Response","erotic_man","man_6","blue",1,0.480717951859333,"post_correct","post_erotic_man",94.4196428571429
134.76250676398,1.05985858407146,"AM04EN20b","2022_Feb_16_1133","MainTask",10,"Fixation","neutral_couple","neutral_couple_3","red",1,0.311459313288651,"post_correct","post_erotic_man",94.4196428571429
135.896798941683,1.34825439320234,"AM04EN20b","2022_Feb_16_1133","MainTask",10,"Picture","neutral_couple","neutral_couple_3","red",1,0.311459313288651,"post_correct","post_erotic_man",94.4196428571429
137.231262935429,0.311459313288651,"AM04EN20b","2022_Feb_16_1133","MainTask",10,"Target","neutral_couple","neutral_couple_3","red",1,0.311459313288651,"post_correct","post_erotic_man",94.4196428571429
137.542722248718,0,"AM04EN20b","2022_Feb_16_1133","MainTask",10,"Response","neutral_couple","neutral_couple_3","red",1,0.311459313288651,"post_correct","post_erotic_man",94.4196428571429
137.564880392407,1.05223612281784,"AM04EN20b","2022_Feb_16_1133","MainTask",11,"Fixation","erotic_couple","couple_5","yellow",1,0.629905617859549,"post_correct","post_neutral_couple",94.4196428571429
138.699181029642,1.46241414877053,"AM04EN20b","2022_Feb_16_1133","MainTask",11,"Picture","erotic_couple","couple_5","yellow",1,0.629905617859549,"post_correct","post_neutral_couple",94.4196428571429
140.133738515819,0.629905617859549,"AM04EN20b","2022_Feb_16_1133","MainTask",11,"Target","erotic_couple","couple_5","yellow",1,0.629905617859549,"post_correct","post_neutral_couple",94.4196428571429
140.763644133679,0,"AM04EN20b","2022_Feb_16_1133","MainTask",11,"Response","erotic_couple","couple_5","yellow",1,0.629905617859549,"post_correct","post_neutral_couple",94.4196428571429
140.78428860428,1.04323689280984,"AM04EN20b","2022_Feb_16_1133","MainTask",12,"Fixation","erotic_man","man_3","green",1,0.47498472179177,"post_correct","post_erotic_couple",94.4196428571429
141.902045019304,1.23659179452854,"AM04EN20b","2022_Feb_16_1133","MainTask",12,"Picture","erotic_man","man_3","green",1,0.47498472179177,"post_correct","post_erotic_couple",94.4196428571429
143.119605552372,0.47498472179177,"AM04EN20b","2022_Feb_16_1133","MainTask",12,"Target","erotic_man","man_3","green",1,0.47498472179177,"post_correct","post_erotic_couple",94.4196428571429
143.594590274164,0,"AM04EN20b","2022_Feb_16_1133","MainTask",12,"Response","erotic_man","man_3","green",1,0.47498472179177,"post_correct","post_erotic_couple",94.4196428571429
143.620041218348,1.22684441898789,"AM04EN20b","2022_Feb_16_1133","MainTask",13,"Fixation","neutral_couple","neutral_couple_6","blue",0,0.480494795199775,"post_correct","post_erotic_man",94.4196428571429
144.937820678309,1.42823928691264,"AM04EN20b","2022_Feb_16_1133","MainTask",13,"Picture","neutral_couple","neutral_couple_6","blue",0,0.480494795199775,"post_correct","post_erotic_man",94.4196428571429
146.339012597413,0.480494795199775,"AM04EN20b","2022_Feb_16_1133","MainTask",13,"Target","neutral_couple","neutral_couple_6","blue",0,0.480494795199775,"post_correct","post_erotic_man",94.4196428571429
146.819507392613,0,"AM04EN20b","2022_Feb_16_1133","MainTask",13,"Response","neutral_couple","neutral_couple_6","blue",0,0.480494795199775,"post_correct","post_erotic_man",94.4196428571429
146.839461390251,1.06177769848365,"AM04EN20b","2022_Feb_16_1133","MainTask",14,"Fixation","positive_man_woman","positive_5","yellow",1,0.534726239284282,"post_error","post_neutral_couple",94.4196428571429
147.973737815719,1.22928053363197,"AM04EN20b","2022_Feb_16_1133","MainTask",14,"Picture","positive_man_woman","positive_5","yellow",1,0.534726239284282,"post_error","post_neutral_couple",94.4196428571429
149.174754709991,0.534726239284282,"AM04EN20b","2022_Feb_16_1133","MainTask",14,"Target","positive_man_woman","positive_5","yellow",1,0.534726239284282,"post_error","post_neutral_couple",94.4196428571429
149.709480949275,0,"AM04EN20b","2022_Feb_16_1133","MainTask",14,"Response","positive_man_woman","positive_5","yellow",1,0.534726239284282,"post_error","post_neutral_couple",94.4196428571429
149.741907508129,1.17614485337171,"AM04EN20b","2022_Feb_16_1133","MainTask",15,"Fixation","erotic_woman","woman_4","blue",1,0.645205705226545,"post_correct","post_positive_man_woman",94.4196428571429
150.992971586178,1.41540031834479,"AM04EN20b","2022_Feb_16_1133","MainTask",15,"Picture","erotic_woman","woman_4","blue",1,0.645205705226545,"post_correct","post_positive_man_woman",94.4196428571429
152.394164380405,0.645205705226545,"AM04EN20b","2022_Feb_16_1133","MainTask",15,"Target","erotic_woman","woman_4","blue",1,0.645205705226545,"post_correct","post_positive_man_woman",94.4196428571429
153.039370085632,0,"AM04EN20b","2022_Feb_16_1133","MainTask",15,"Response","erotic_woman","woman_4","blue",1,0.645205705226545,"post_correct","post_positive_man_woman",94.4196428571429
153.061428756871,1.39025977738054,"AM04EN20b","2022_Feb_16_1133","MainTask",16,"Fixation","tree","tree_7","red",1,0.506401095655747,"post_correct","post_erotic_woman",94.4196428571429
154.529317388571,1.1333866736303,"AM04EN20b","2022_Feb_16_1133","MainTask",16,"Picture","tree","tree_7","red",1,0.506401095655747,"post_correct","post_erotic_woman",94.4196428571429
155.646928241278,0.506401095655747,"AM04EN20b","2022_Feb_16_1133","MainTask",16,"Target","tree","tree_7","red",1,0.506401095655747,"post_correct","post_erotic_woman",94.4196428571429
156.153329336934,0,"AM04EN20b","2022_Feb_16_1133","MainTask",16,"Response","tree","tree_7","red",1,0.506401095655747,"post_correct","post_erotic_woman",94.4196428571429
156.180719847962,1.41886444823529,"AM04EN20b","2022_Feb_16_1133","MainTask",17,"Fixation","tree","tree_6","yellow",1,0.524087646601402,"post_correct","post_tree",94.4196428571429
157.64863735876,1.02665954864851,"AM04EN20b","2022_Feb_16_1133","MainTask",17,"Picture","tree","tree_6","yellow",1,0.524087646601402,"post_correct","post_tree",94.4196428571429
158.666165512232,0.524087646601402,"AM04EN20b","2022_Feb_16_1133","MainTask",17,"Target","tree","tree_6","yellow",1,0.524087646601402,"post_correct","post_tree",94.4196428571429
159.190253158833,0,"AM04EN20b","2022_Feb_16_1133","MainTask",17,"Response","tree","tree_6","yellow",1,0.524087646601402,"post_correct","post_tree",94.4196428571429
159.216638735621,1.48930128579642,"AM04EN20b","2022_Feb_16_1133","MainTask",18,"Fixation","erotic_man","man_8","blue",1,0.551369642234931,"post_correct","post_tree",94.4196428571429
160.784645654936,1.4083898079768,"AM04EN20b","2022_Feb_16_1133","MainTask",18,"Picture","erotic_man","man_8","blue",1,0.551369642234931,"post_correct","post_tree",94.4196428571429
162.185827655965,0.551369642234931,"AM04EN20b","2022_Feb_16_1133","MainTask",18,"Target","erotic_man","man_8","blue",1,0.551369642234931,"post_correct","post_tree",94.4196428571429
162.7371972982,0,"AM04EN20b","2022_Feb_16_1133","MainTask",18,"Response","erotic_man","man_8","blue",1,0.551369642234931,"post_correct","post_tree",94.4196428571429
162.76965711177,1.41578107920533,"AM04EN20b","2022_Feb_16_1133","MainTask",19,"Fixation","positive_man_woman","positive_7","blue",1,0.820241038363747,"post_correct","post_erotic_man",94.4196428571429
164.254259739768,1.49232723498914,"AM04EN20b","2022_Feb_16_1133","MainTask",19,"Picture","positive_man_woman","positive_7","blue",1,0.820241038363747,"post_correct","post_erotic_man",94.4196428571429
165.738850116028,0.820241038363747,"AM04EN20b","2022_Feb_16_1133","MainTask",19,"Target","positive_man_woman","positive_7","blue",1,0.820241038363747,"post_correct","post_erotic_man",94.4196428571429
166.559091154392,0,"AM04EN20b","2022_Feb_16_1133","MainTask",19,"Response","positive_man_woman","positive_7","blue",1,0.820241038363747,"post_correct","post_erotic_man",94.4196428571429
166.589576396151,1.07878615355208,"AM04EN20b","2022_Feb_16_1133","MainTask",20,"Fixation","tree","tree_4","yellow",1,0.414282026262299,"post_correct","post_positive_man_woman",94.4196428571429
167.740555733011,1.05155476001442,"AM04EN20b","2022_Feb_16_1133","MainTask",20,"Picture","tree","tree_4","yellow",1,0.414282026262299,"post_correct","post_positive_man_woman",94.4196428571429
168.774764336356,0.414282026262299,"AM04EN20b","2022_Feb_16_1133","MainTask",20,"Target","tree","tree_4","yellow",1,0.414282026262299,"post_correct","post_positive_man_woman",94.4196428571429
169.189046362618,0,"AM04EN20b","2022_Feb_16_1133","MainTask",20,"Response","tree","tree_4","yellow",1,0.414282026262299,"post_correct","post_positive_man_woman",94.4196428571429
169.208469451603,1.46407772513981,"AM04EN20b","2022_Feb_16_1133","MainTask",21,"Fixation","neutral_couple","neutral_couple_1","yellow",1,0.452610714146431,"post_correct","post_tree",94.4196428571429
170.743109637013,1.09885872422564,"AM04EN20b","2022_Feb_16_1133","MainTask",21,"Picture","neutral_couple","neutral_couple_1","yellow",1,0.452610714146431,"post_correct","post_tree",94.4196428571429
171.827363090471,0.452610714146431,"AM04EN20b","2022_Feb_16_1133","MainTask",21,"Target","neutral_couple","neutral_couple_1","yellow",1,0.452610714146431,"post_correct","post_tree",94.4196428571429
172.279973804617,0,"AM04EN20b","2022_Feb_16_1133","MainTask",21,"Response","neutral_couple","neutral_couple_1","yellow",1,0.452610714146431,"post_correct","post_tree",94.4196428571429
172.311116556328,1.21829882400741,"AM04EN20b","2022_Feb_16_1133","MainTask",22,"Fixation","erotic_couple","couple_6","green",1,0.460150492184766,"post_correct","post_neutral_couple",94.4196428571429
173.578858458877,1.46542186799057,"AM04EN20b","2022_Feb_16_1133","MainTask",22,"Picture","erotic_couple","couple_6","green",1,0.460150492184766,"post_correct","post_neutral_couple",94.4196428571429
175.046769260389,0.460150492184766,"AM04EN20b","2022_Feb_16_1133","MainTask",22,"Target","erotic_couple","couple_6","green",1,0.460150492184766,"post_correct","post_neutral_couple",94.4196428571429
175.506919752574,0,"AM04EN20b","2022_Feb_16_1133","MainTask",22,"Response","erotic_couple","couple_6","green",1,0.460150492184766,"post_correct","post_neutral_couple",94.4196428571429
175.530514850128,1.31439898746866,"AM04EN20b","2022_Feb_16_1133","MainTask",23,"Fixation","neutral_couple","neutral_couple_5","green",0,0.456806351066916,"post_correct","post_erotic_couple",94.4196428571429
176.89834557778,1.24758445958879,"AM04EN20b","2022_Feb_16_1133","MainTask",23,"Picture","neutral_couple","neutral_couple_5","green",0,0.456806351066916,"post_correct","post_erotic_couple",94.4196428571429
178.116047297544,0.456806351066916,"AM04EN20b","2022_Feb_16_1133","MainTask",23,"Target","neutral_couple","neutral_couple_5","green",0,0.456806351066916,"post_correct","post_erotic_couple",94.4196428571429
178.572853648611,0,"AM04EN20b","2022_Feb_16_1133","MainTask",23,"Response","neutral_couple","neutral_couple_5","green",0,0.456806351066916,"post_correct","post_erotic_couple",94.4196428571429
178.599793762407,1.41984241669046,"AM04EN20b","2022_Feb_16_1133","MainTask",24,"Fixation","tree","tree_4","red",1,0.466905867269816,"post_error","post_neutral_couple",94.4196428571429
180.08438822258,1.35434718745225,"AM04EN20b","2022_Feb_16_1133","MainTask",24,"Picture","tree","tree_4","red",1,0.466905867269816,"post_error","post_neutral_couple",94.4196428571429
181.418856883654,0.466905867269816,"AM04EN20b","2022_Feb_16_1133","MainTask",24,"Target","tree","tree_4","red",1,0.466905867269816,"post_error","post_neutral_couple",94.4196428571429
181.885762750924,0,"AM04EN20b","2022_Feb_16_1133","MainTask",24,"Response","tree","tree_4","red",1,0.466905867269816,"post_error","post_neutral_couple",94.4196428571429
181.902603348517,1.40164267825345,"AM04EN20b","2022_Feb_16_1133","MainTask",25,"Fixation","positive_man_woman","positive_4","yellow",1,0.617028749285964,"post_correct","post_tree",94.4196428571429
183.353842743107,1.32295151658629,"AM04EN20b","2022_Feb_16_1133","MainTask",25,"Picture","positive_man_woman","positive_4","yellow",1,0.617028749285964,"post_correct","post_tree",94.4196428571429
184.671622786484,0.617028749285964,"AM04EN20b","2022_Feb_16_1133","MainTask",25,"Target","positive_man_woman","positive_4","yellow",1,0.617028749285964,"post_correct","post_tree",94.4196428571429
185.28865153577,0,"AM04EN20b","2022_Feb_16_1133","MainTask",25,"Response","positive_man_woman","positive_4","yellow",1,0.617028749285964,"post_correct","post_tree",94.4196428571429
185.305500009481,1.29370375713831,"AM04EN20b","2022_Feb_16_1133","MainTask",26,"Fixation","neutral_man_woman","neutral_3","yellow",1,0.630365933167923,"post_correct","post_positive_man_woman",94.4196428571429
186.673328986884,1.47643433554969,"AM04EN20b","2022_Feb_16_1133","MainTask",26,"Picture","neutral_man_woman","neutral_3","yellow",1,0.630365933167923,"post_correct","post_positive_man_woman",94.4196428571429
188.141247081097,0.630365933167923,"AM04EN20b","2022_Feb_16_1133","MainTask",26,"Target","neutral_man_woman","neutral_3","yellow",1,0.630365933167923,"post_correct","post_positive_man_woman",94.4196428571429
188.771613014265,0,"AM04EN20b","2022_Feb_16_1133","MainTask",26,"Response","neutral_man_woman","neutral_3","yellow",1,0.630365933167923,"post_correct","post_positive_man_woman",94.4196428571429
188.791798044682,1.35072867252387,"AM04EN20b","2022_Feb_16_1133","MainTask",27,"Fixation","neutral_man_woman","neutral_3","blue",1,0.494207407342401,"post_correct","post_neutral_man_woman",94.4196428571429
190.176308638789,1.21454848267744,"AM04EN20b","2022_Feb_16_1133","MainTask",27,"Picture","neutral_man_woman","neutral_3","blue",1,0.494207407342401,"post_correct","post_neutral_man_woman",94.4196428571429
191.377329325265,0.494207407342401,"AM04EN20b","2022_Feb_16_1133","MainTask",27,"Target","neutral_man_woman","neutral_3","blue",1,0.494207407342401,"post_correct","post_neutral_man_woman",94.4196428571429
191.871536732607,0,"AM04EN20b","2022_Feb_16_1133","MainTask",27,"Response","neutral_man_woman","neutral_3","blue",1,0.494207407342401,"post_correct","post_neutral_man_woman",94.4196428571429
191.894437273289,1.12538107178545,"AM04EN20b","2022_Feb_16_1133","MainTask",28,"Fixation","tree","tree_2","blue",1,0.56856378998782,"post_correct","post_neutral_man_woman",94.4196428571429
193.078789178215,1.35234341889974,"AM04EN20b","2022_Feb_16_1133","MainTask",28,"Picture","tree","tree_2","blue",1,0.56856378998782,"post_correct","post_neutral_man_woman",94.4196428571429
194.42992662084,0.56856378998782,"AM04EN20b","2022_Feb_16_1133","MainTask",28,"Target","tree","tree_2","blue",1,0.56856378998782,"post_correct","post_neutral_man_woman",94.4196428571429
194.998490410828,0,"AM04EN20b","2022_Feb_16_1133","MainTask",28,"Response","tree","tree_2","blue",1,0.56856378998782,"post_correct","post_neutral_man_woman",94.4196428571429
195.03043740164,1.47155953299406,"AM04EN20b","2022_Feb_16_1133","MainTask",29,"Fixation","positive_man_woman","positive_4","yellow",1,0.45611062736134,"post_correct","post_tree",94.4196428571429
196.531722521466,1.48103946942229,"AM04EN20b","2022_Feb_16_1133","MainTask",29,"Picture","positive_man_woman","positive_4","yellow",1,0.45611062736134,"post_correct","post_tree",94.4196428571429
198.016311147478,0.45611062736134,"AM04EN20b","2022_Feb_16_1133","MainTask",29,"Target","positive_man_woman","positive_4","yellow",1,0.45611062736134,"post_correct","post_tree",94.4196428571429
198.472421774839,0,"AM04EN20b","2022_Feb_16_1133","MainTask",29,"Response","positive_man_woman","positive_4","yellow",1,0.45611062736134,"post_correct","post_tree",94.4196428571429
198.500057320633,1.06849417469909,"AM04EN20b","2022_Feb_16_1133","MainTask",30,"Fixation","neutral_man_woman","neutral_7","red",1,0.522541593920323,"post_correct","post_positive_man_woman",94.4196428571429
199.61768013337,1.3519563720255,"AM04EN20b","2022_Feb_16_1133","MainTask",30,"Picture","neutral_man_woman","neutral_7","red",1,0.522541593920323,"post_correct","post_positive_man_woman",94.4196428571429
200.968823410156,0.522541593920323,"AM04EN20b","2022_Feb_16_1133","MainTask",30,"Target","neutral_man_woman","neutral_7","red",1,0.522541593920323,"post_correct","post_positive_man_woman",94.4196428571429
201.491365004076,0,"AM04EN20b","2022_Feb_16_1133","MainTask",30,"Response","neutral_man_woman","neutral_7","red",1,0.522541593920323,"post_correct","post_positive_man_woman",94.4196428571429
201.519292257923,1.48311168192121,"AM04EN20b","2022_Feb_16_1133","MainTask",31,"Fixation","positive_man_woman","positive_3","red",1,0.400134185703791,"post_correct","post_neutral_man_woman",94.4196428571429
203.053931568209,1.10312501440449,"AM04EN20b","2022_Feb_16_1133","MainTask",31,"Picture","positive_man_woman","positive_3","red",1,0.400134185703791,"post_correct","post_neutral_man_woman",94.4196428571429
204.138185313375,0.400134185703791,"AM04EN20b","2022_Feb_16_1133","MainTask",31,"Target","positive_man_woman","positive_3","red",1,0.400134185703791,"post_correct","post_neutral_man_woman",94.4196428571429
204.538319499079,0,"AM04EN20b","2022_Feb_16_1133","MainTask",31,"Response","positive_man_woman","positive_3","red",1,0.400134185703791,"post_correct","post_neutral_man_woman",94.4196428571429
204.555208811917,1.3426950334414,"AM04EN20b","2022_Feb_16_1133","MainTask",32,"Fixation","positive_man_woman","positive_6","green",1,0.519796037729975,"post_correct","post_positive_man_woman",94.4196428571429
205.98976396443,1.18215357460442,"AM04EN20b","2022_Feb_16_1133","MainTask",32,"Picture","positive_man_woman","positive_6","green",1,0.519796037729975,"post_correct","post_positive_man_woman",94.4196428571429
207.157422000913,0.519796037729975,"AM04EN20b","2022_Feb_16_1133","MainTask",32,"Target","positive_man_woman","positive_6","green",1,0.519796037729975,"post_correct","post_positive_man_woman",94.4196428571429
207.677218038643,0,"AM04EN20b","2022_Feb_16_1133","MainTask",32,"Response","positive_man_woman","positive_6","green",1,0.519796037729975,"post_correct","post_positive_man_woman",94.4196428571429
207.707890556972,1.42095051423991,"AM04EN20b","2022_Feb_16_1133","MainTask",33,"Fixation","tree","tree_1","green",1,0.320942450376606,"post_correct","post_positive_man_woman",94.4196428571429
209.225859043752,1.2630318614043,"AM04EN20b","2022_Feb_16_1133","MainTask",33,"Picture","tree","tree_1","green",1,0.320942450376606,"post_correct","post_positive_man_woman",94.4196428571429
210.460230420191,0.320942450376606,"AM04EN20b","2022_Feb_16_1133","MainTask",33,"Target","tree","tree_1","green",1,0.320942450376606,"post_correct","post_positive_man_woman",94.4196428571429
210.781172870568,0,"AM04EN20b","2022_Feb_16_1133","MainTask",33,"Response","tree","tree_1","green",1,0.320942450376606,"post_correct","post_positive_man_woman",94.4196428571429
210.810530368997,1.2030062501,"AM04EN20b","2022_Feb_16_1133","MainTask",34,"Fixation","positive_man_woman","positive_2","green",1,0.446355326663252,"post_correct","post_tree",94.4196428571429
212.11163783862,1.32369057254407,"AM04EN20b","2022_Feb_16_1133","MainTask",34,"Picture","positive_man_woman","positive_2","green",1,0.446355326663252,"post_correct","post_tree",94.4196428571429
213.412742974577,0.446355326663252,"AM04EN20b","2022_Feb_16_1133","MainTask",34,"Target","positive_man_woman","positive_2","green",1,0.446355326663252,"post_correct","post_tree",94.4196428571429
213.85909830124,0,"AM04EN20b","2022_Feb_16_1133","MainTask",34,"Response","positive_man_woman","positive_2","green",1,0.446355326663252,"post_correct","post_tree",94.4196428571429
213.879806947611,1.39949529609877,"AM04EN20b","2022_Feb_16_1133","MainTask",35,"Fixation","neutral_man_woman","neutral_6","green",1,0.335665247506768,"post_correct","post_positive_man_woman",94.4196428571429
215.331045758785,1.18605484254333,"AM04EN20b","2022_Feb_16_1133","MainTask",35,"Picture","neutral_man_woman","neutral_6","green",1,0.335665247506768,"post_correct","post_positive_man_woman",94.4196428571429
216.515383078307,0.335665247506768,"AM04EN20b","2022_Feb_16_1133","MainTask",35,"Target","neutral_man_woman","neutral_6","green",1,0.335665247506768,"post_correct","post_positive_man_woman",94.4196428571429
216.851048325814,0,"AM04EN20b","2022_Feb_16_1133","MainTask",35,"Response","neutral_man_woman","neutral_6","green",1,0.335665247506768,"post_correct","post_positive_man_woman",94.4196428571429
216.882362310153,1.28031292701363,"AM04EN20b","2022_Feb_16_1133","MainTask",36,"Fixation","erotic_woman","woman_8","yellow",1,0.641197053166252,"post_correct","post_neutral_man_woman",94.4196428571429
218.233511712808,1.46313123513081,"AM04EN20b","2022_Feb_16_1133","MainTask",36,"Picture","erotic_woman","woman_8","yellow",1,0.641197053166252,"post_correct","post_neutral_man_woman",94.4196428571429
219.684746440069,0.641197053166252,"AM04EN20b","2022_Feb_16_1133","MainTask",36,"Target","erotic_woman","woman_8","yellow",1,0.641197053166252,"post_correct","post_neutral_man_woman",94.4196428571429
220.325943493235,0,"AM04EN20b","2022_Feb_16_1133","MainTask",36,"Response","erotic_woman","woman_8","yellow",1,0.641197053166252,"post_correct","post_neutral_man_woman",94.4196428571429
220.351981354022,1.10301897754523,"AM04EN20b","2022_Feb_16_1133","MainTask",37,"Fixation","neutral_couple","neutral_couple_5","green",1,0.461714630762799,"post_correct","post_erotic_woman",94.4196428571429
221.486288408834,1.05572599695715,"AM04EN20b","2022_Feb_16_1133","MainTask",37,"Picture","neutral_couple","neutral_couple_5","green",1,0.461714630762799,"post_correct","post_erotic_woman",94.4196428571429
222.537173086432,0.461714630762799,"AM04EN20b","2022_Feb_16_1133","MainTask",37,"Target","neutral_couple","neutral_couple_5","green",1,0.461714630762799,"post_correct","post_erotic_woman",94.4196428571429
222.998887717195,0,"AM04EN20b","2022_Feb_16_1133","MainTask",37,"Response","neutral_couple","neutral_couple_5","green",1,0.461714630762799,"post_correct","post_erotic_woman",94.4196428571429
223.020918092754,1.23669306228139,"AM04EN20b","2022_Feb_16_1133","MainTask",38,"Fixation","neutral_couple","neutral_couple_5","red",1,0.457752360283848,"post_correct","post_neutral_couple",94.4196428571429
224.322025270669,1.2731051820122,"AM04EN20b","2022_Feb_16_1133","MainTask",38,"Picture","neutral_couple","neutral_couple_5","red",1,0.457752360283848,"post_correct","post_neutral_couple",94.4196428571429
225.573089640426,0.457752360283848,"AM04EN20b","2022_Feb_16_1133","MainTask",38,"Target","neutral_couple","neutral_couple_5","red",1,0.457752360283848,"post_correct","post_neutral_couple",94.4196428571429
226.03084200071,0,"AM04EN20b","2022_Feb_16_1133","MainTask",38,"Response","neutral_couple","neutral_couple_5","red",1,0.457752360283848,"post_correct","post_neutral_couple",94.4196428571429
226.056835230165,1.40410271328042,"AM04EN20b","2022_Feb_16_1133","MainTask",39,"Fixation","neutral_couple","neutral_couple_7","blue",1,0.688307028558484,"post_correct","post_neutral_couple",94.4196428571429
227.524754199503,1.22239652740331,"AM04EN20b","2022_Feb_16_1133","MainTask",39,"Picture","neutral_couple","neutral_couple_7","blue",1,0.688307028558484,"post_correct","post_neutral_couple",94.4196428571429
228.742451543647,0.688307028558484,"AM04EN20b","2022_Feb_16_1133","MainTask",39,"Target","neutral_couple","neutral_couple_7","blue",1,0.688307028558484,"post_correct","post_neutral_couple",94.4196428571429
229.430758572205,0,"AM04EN20b","2022_Feb_16_1133","MainTask",39,"Response","neutral_couple","neutral_couple_7","blue",1,0.688307028558484,"post_correct","post_neutral_couple",94.4196428571429
229.459735683335,1.13398052256586,"AM04EN20b","2022_Feb_16_1133","MainTask",40,"Fixation","erotic_woman","woman_4","yellow",1,0.492236336031056,"post_correct","post_neutral_couple",94.4196428571429
230.644080003851,1.25150278875875,"AM04EN20b","2022_Feb_16_1133","MainTask",40,"Picture","erotic_woman","woman_4","yellow",1,0.492236336031056,"post_correct","post_neutral_couple",94.4196428571429
231.878453713955,0.492236336031056,"AM04EN20b","2022_Feb_16_1133","MainTask",40,"Target","erotic_woman","woman_4","yellow",1,0.492236336031056,"post_correct","post_neutral_couple",94.4196428571429
232.370690049986,0,"AM04EN20b","2022_Feb_16_1133","MainTask",40,"Response","erotic_woman","woman_4","yellow",1,0.492236336031056,"post_correct","post_neutral_couple",94.4196428571429
232.395560203438,1.09510351337318,"AM04EN20b","2022_Feb_16_1133","MainTask",41,"Fixation","neutral_couple","neutral_couple_2","yellow",1,0.411527427120745,"post_correct","post_erotic_woman",94.4196428571429
233.563221157003,1.42391664377103,"AM04EN20b","2022_Feb_16_1133","MainTask",41,"Picture","neutral_couple","neutral_couple_2","yellow",1,0.411527427120745,"post_correct","post_erotic_woman",94.4196428571429
234.981092942562,0.411527427120745,"AM04EN20b","2022_Feb_16_1133","MainTask",41,"Target","neutral_couple","neutral_couple_2","yellow",1,0.411527427120745,"post_correct","post_erotic_woman",94.4196428571429
235.392620369683,0,"AM04EN20b","2022_Feb_16_1133","MainTask",41,"Response","neutral_couple","neutral_couple_2","yellow",1,0.411527427120745,"post_correct","post_erotic_woman",94.4196428571429
235.414795724144,1.10844989787576,"AM04EN20b","2022_Feb_16_1133","MainTask",42,"Fixation","neutral_couple","neutral_couple_1","yellow",1,0.279594584148072,"post_correct","post_neutral_couple",94.4196428571429
236.549104529206,1.05120959702872,"AM04EN20b","2022_Feb_16_1133","MainTask",42,"Picture","neutral_couple","neutral_couple_1","yellow",1,0.279594584148072,"post_correct","post_neutral_couple",94.4196428571429
237.599988623386,0.279594584148072,"AM04EN20b","2022_Feb_16_1133","MainTask",42,"Target","neutral_couple","neutral_couple_1","yellow",1,0.279594584148072,"post_correct","post_neutral_couple",94.4196428571429
237.879583207534,0,"AM04EN20b","2022_Feb_16_1133","MainTask",42,"Response","neutral_couple","neutral_couple_1","yellow",1,0.279594584148072,"post_correct","post_neutral_couple",94.4196428571429
237.900244013787,1.01655940884907,"AM04EN20b","2022_Feb_16_1133","MainTask",43,"Fixation","erotic_woman","woman_5","yellow",1,0.463860726906205,"post_correct","post_neutral_couple",94.4196428571429
238.98449980091,1.00717924749734,"AM04EN20b","2022_Feb_16_1133","MainTask",43,"Picture","erotic_woman","woman_5","yellow",1,0.463860726906205,"post_correct","post_neutral_couple",94.4196428571429
239.968671430259,0.463860726906205,"AM04EN20b","2022_Feb_16_1133","MainTask",43,"Target","erotic_woman","woman_5","yellow",1,0.463860726906205,"post_correct","post_neutral_couple",94.4196428571429
240.432532157165,0,"AM04EN20b","2022_Feb_16_1133","MainTask",43,"Response","erotic_woman","woman_5","yellow",1,0.463860726906205,"post_correct","post_neutral_couple",94.4196428571429
240.45241526975,1.30679079634468,"AM04EN20b","2022_Feb_16_1133","MainTask",44,"Fixation","neutral_couple","neutral_couple_5","blue",1,0.66625302464854,"post_correct","post_erotic_woman",94.4196428571429
241.820245705694,1.16330348465075,"AM04EN20b","2022_Feb_16_1133","MainTask",44,"Picture","neutral_couple","neutral_couple_5","blue",1,0.66625302464854,"post_correct","post_erotic_woman",94.4196428571429
242.971225042553,0.66625302464854,"AM04EN20b","2022_Feb_16_1133","MainTask",44,"Target","neutral_couple","neutral_couple_5","blue",1,0.66625302464854,"post_correct","post_erotic_woman",94.4196428571429
243.637478067202,0,"AM04EN20b","2022_Feb_16_1133","MainTask",44,"Response","neutral_couple","neutral_couple_5","blue",1,0.66625302464854,"post_correct","post_erotic_woman",94.4196428571429
243.655142740043,1.44895581601132,"AM04EN20b","2022_Feb_16_1133","MainTask",45,"Fixation","erotic_man","man_6","green",1,0.468087576591643,"post_correct","post_neutral_couple",94.4196428571429
245.156419983752,1.01517015812043,"AM04EN20b","2022_Feb_16_1133","MainTask",45,"Picture","erotic_man","man_6","green",1,0.468087576591643,"post_correct","post_neutral_couple",94.4196428571429
246.157278188843,0.468087576591643,"AM04EN20b","2022_Feb_16_1133","MainTask",45,"Target","erotic_man","man_6","green",1,0.468087576591643,"post_correct","post_neutral_couple",94.4196428571429
246.625365765435,0,"AM04EN20b","2022_Feb_16_1133","MainTask",45,"Response","erotic_man","man_6","green",1,0.468087576591643,"post_correct","post_neutral_couple",94.4196428571429
246.657696060629,1.00070262175782,"AM04EN20b","2022_Feb_16_1133","MainTask",46,"Fixation","tree","tree_4","green",1,0.353489484654347,"post_correct","post_erotic_man",94.4196428571429
247.708592989964,1.08155069548714,"AM04EN20b","2022_Feb_16_1133","MainTask",46,"Picture","tree","tree_4","green",1,0.353489484654347,"post_correct","post_erotic_man",94.4196428571429
248.79284527659,0.353489484654347,"AM04EN20b","2022_Feb_16_1133","MainTask",46,"Target","tree","tree_4","green",1,0.353489484654347,"post_correct","post_erotic_man",94.4196428571429
249.146334761244,0,"AM04EN20b","2022_Feb_16_1133","MainTask",46,"Response","tree","tree_4","green",1,0.353489484654347,"post_correct","post_erotic_man",94.4196428571429
249.176518668586,1.4744696342173,"AM04EN20b","2022_Feb_16_1133","MainTask",47,"Fixation","tree","tree_3","blue",0,0.469167188095525,"post_correct","post_tree",94.4196428571429
250.727823551633,1.09526354237125,"AM04EN20b","2022_Feb_16_1133","MainTask",47,"Picture","tree","tree_3","blue",0,0.469167188095525,"post_correct","post_tree",94.4196428571429
251.812079338757,0.469167188095525,"AM04EN20b","2022_Feb_16_1133","MainTask",47,"Target","tree","tree_3","blue",0,0.469167188095525,"post_correct","post_tree",94.4196428571429
252.281246526853,0,"AM04EN20b","2022_Feb_16_1133","MainTask",47,"Response","tree","tree_3","blue",0,0.469167188095525,"post_correct","post_tree",94.4196428571429
252.312508003741,1.36772954391516,"AM04EN20b","2022_Feb_16_1133","MainTask",48,"Fixation","erotic_couple","couple_3","red",1,0.777902531588552,"post_error","post_tree",94.4196428571429
253.747062864544,1.46969375243678,"AM04EN20b","2022_Feb_16_1133","MainTask",48,"Picture","erotic_couple","couple_3","red",1,0.777902531588552,"post_error","post_tree",94.4196428571429
255.198293216185,0.777902531588552,"AM04EN20b","2022_Feb_16_1133","MainTask",48,"Target","erotic_couple","couple_3","red",1,0.777902531588552,"post_error","post_tree",94.4196428571429
255.976195747774,0,"AM04EN20b","2022_Feb_16_1133","MainTask",48,"Response","erotic_couple","couple_3","red",1,0.777902531588552,"post_error","post_tree",94.4196428571429
255.998975813027,1.3822919223239,"AM04EN20b","2022_Feb_16_1133","MainTask",49,"Fixation","neutral_couple","neutral_couple_3","green",1,0.495684033505313,"post_correct","post_erotic_couple",94.4196428571429
257.433530673832,1.48876118785103,"AM04EN20b","2022_Feb_16_1133","MainTask",49,"Picture","neutral_couple","neutral_couple_3","green",1,0.495684033505313,"post_correct","post_erotic_couple",94.4196428571429
258.90144497584,0.495684033505313,"AM04EN20b","2022_Feb_16_1133","MainTask",49,"Target","neutral_couple","neutral_couple_3","green",1,0.495684033505313,"post_correct","post_erotic_couple",94.4196428571429
259.397129009345,0,"AM04EN20b","2022_Feb_16_1133","MainTask",49,"Response","neutral_couple","neutral_couple_3","green",1,0.495684033505313,"post_correct","post_erotic_couple",94.4196428571429
259.418550590199,1.41670591810328,"AM04EN20b","2022_Feb_16_1133","MainTask",50,"Fixation","neutral_man_woman","neutral_8","red",1,0.802646667161753,"post_correct","post_neutral_couple",94.4196428571429
260.903152051364,1.13646340080227,"AM04EN20b","2022_Feb_16_1133","MainTask",50,"Picture","neutral_man_woman","neutral_8","red",1,0.802646667161753,"post_correct","post_neutral_couple",94.4196428571429
262.037445687607,0.802646667161753,"AM04EN20b","2022_Feb_16_1133","MainTask",50,"Target","neutral_man_woman","neutral_8","red",1,0.802646667161753,"post_correct","post_neutral_couple",94.4196428571429
262.840092354769,0,"AM04EN20b","2022_Feb_16_1133","MainTask",50,"Response","neutral_man_woman","neutral_8","red",1,0.802646667161753,"post_correct","post_neutral_couple",94.4196428571429
262.871490351028,1.00241613342619,"AM04EN20b","2022_Feb_16_1133","MainTask",51,"Fixation","erotic_woman","woman_4","green",1,0.487991692154537,"post_correct","post_neutral_man_woman",94.4196428571429
263.939075898061,1.11516527188458,"AM04EN20b","2022_Feb_16_1133","MainTask",51,"Picture","erotic_woman","woman_4","green",1,0.487991692154537,"post_correct","post_neutral_man_woman",94.4196428571429
265.039997841361,0.487991692154537,"AM04EN20b","2022_Feb_16_1133","MainTask",51,"Target","erotic_woman","woman_4","green",1,0.487991692154537,"post_correct","post_neutral_man_woman",94.4196428571429
265.527989533516,0,"AM04EN20b","2022_Feb_16_1133","MainTask",51,"Response","erotic_woman","woman_4","green",1,0.487991692154537,"post_correct","post_neutral_man_woman",94.4196428571429
265.557144586555,1.27095074698091,"AM04EN20b","2022_Feb_16_1133","MainTask",52,"Fixation","neutral_man_woman","neutral_3","green",1,0.409774845140419,"post_correct","post_erotic_woman",94.4196428571429
266.891579409496,1.09864957319153,"AM04EN20b","2022_Feb_16_1133","MainTask",52,"Picture","neutral_man_woman","neutral_3","green",1,0.409774845140419,"post_correct","post_erotic_woman",94.4196428571429
267.959150662835,0.409774845140419,"AM04EN20b","2022_Feb_16_1133","MainTask",52,"Target","neutral_man_woman","neutral_3","green",1,0.409774845140419,"post_correct","post_erotic_woman",94.4196428571429
268.368925507975,0,"AM04EN20b","2022_Feb_16_1133","MainTask",52,"Response","neutral_man_woman","neutral_3","green",1,0.409774845140419,"post_correct","post_erotic_woman",94.4196428571429
268.392852277584,1.12725800516188,"AM04EN20b","2022_Feb_16_1133","MainTask",53,"Fixation","tree","tree_1","yellow",1,0.432181815795047,"post_correct","post_neutral_man_woman",94.4196428571429
269.577197473225,1.34867361633621,"AM04EN20b","2022_Feb_16_1133","MainTask",53,"Picture","tree","tree_1","yellow",1,0.432181815795047,"post_correct","post_neutral_man_woman",94.4196428571429
270.911672551878,0.432181815795047,"AM04EN20b","2022_Feb_16_1133","MainTask",53,"Target","tree","tree_1","yellow",1,0.432181815795047,"post_correct","post_neutral_man_woman",94.4196428571429
271.343854367673,0,"AM04EN20b","2022_Feb_16_1133","MainTask",53,"Response","tree","tree_1","yellow",1,0.432181815795047,"post_correct","post_neutral_man_woman",94.4196428571429
271.362047907214,1.26932547194789,"AM04EN20b","2022_Feb_16_1133","MainTask",54,"Fixation","erotic_man","man_7","green",1,0.48635375143931,"post_correct","post_tree",94.4196428571429
272.696518026829,1.46639952332326,"AM04EN20b","2022_Feb_16_1133","MainTask",54,"Picture","erotic_man","man_7","green",1,0.48635375143931,"post_correct","post_tree",94.4196428571429
274.164433787377,0.48635375143931,"AM04EN20b","2022_Feb_16_1133","MainTask",54,"Target","erotic_man","man_7","green",1,0.48635375143931,"post_correct","post_tree",94.4196428571429
274.650787538816,0,"AM04EN20b","2022_Feb_16_1133","MainTask",54,"Response","erotic_man","man_7","green",1,0.48635375143931,"post_correct","post_tree",94.4196428571429
274.681540276861,1.11181348401964,"AM04EN20b","2022_Feb_16_1133","MainTask",55,"Fixation","tree","tree_4","blue",1,0.857462402478632,"post_correct","post_erotic_man",94.4196428571429
275.849199771885,1.21587755854969,"AM04EN20b","2022_Feb_16_1133","MainTask",55,"Picture","tree","tree_4","blue",1,0.857462402478632,"post_correct","post_erotic_man",94.4196428571429
277.050218416405,0.857462402478632,"AM04EN20b","2022_Feb_16_1133","MainTask",55,"Target","tree","tree_4","blue",1,0.857462402478632,"post_correct","post_erotic_man",94.4196428571429
277.907680818884,0,"AM04EN20b","2022_Feb_16_1133","MainTask",55,"Response","tree","tree_4","blue",1,0.857462402478632,"post_correct","post_erotic_man",94.4196428571429
277.934303846025,1.26687964232889,"AM04EN20b","2022_Feb_16_1133","MainTask",56,"Fixation","positive_man_woman","positive_1","red",1,0.316585498901986,"post_correct","post_tree",94.4196428571429
279.252094099184,1.16863858892319,"AM04EN20b","2022_Feb_16_1133","MainTask",56,"Picture","positive_man_woman","positive_1","red",1,0.316585498901986,"post_correct","post_tree",94.4196428571429
280.403070810671,0.316585498901986,"AM04EN20b","2022_Feb_16_1133","MainTask",56,"Target","positive_man_woman","positive_1","red",1,0.316585498901986,"post_correct","post_tree",94.4196428571429
280.719656309573,0,"AM04EN20b","2022_Feb_16_1133","MainTask",56,"Response","positive_man_woman","positive_1","red",1,0.316585498901986,"post_correct","post_tree",94.4196428571429
280.736689142772,1.41881319134079,"AM04EN20b","2022_Feb_16_1133","MainTask",57,"Fixation","erotic_man","man_5","red",1,0.408407901204555,"post_correct","post_positive_man_woman",94.4196428571429
282.221286520025,1.05649258194502,"AM04EN20b","2022_Feb_16_1133","MainTask",57,"Picture","erotic_man","man_5","red",1,0.408407901204555,"post_correct","post_positive_man_woman",94.4196428571429
283.27217907374,0.408407901204555,"AM04EN20b","2022_Feb_16_1133","MainTask",57,"Target","erotic_man","man_5","red",1,0.408407901204555,"post_correct","post_positive_man_woman",94.4196428571429
283.680586974945,0,"AM04EN20b","2022_Feb_16_1133","MainTask",57,"Response","erotic_man","man_5","red",1,0.408407901204555,"post_correct","post_positive_man_woman",94.4196428571429
283.705884480694,1.22729696302279,"AM04EN20b","2022_Feb_16_1133","MainTask",58,"Fixation","neutral_couple","neutral_couple_3","yellow",1,0.902154993240401,"post_correct","post_erotic_man",94.4196428571429
285.006988158111,1.24683709342498,"AM04EN20b","2022_Feb_16_1133","MainTask",58,"Picture","neutral_couple","neutral_couple_3","yellow",1,0.902154993240401,"post_correct","post_erotic_man",94.4196428571429
286.241370911164,0.902154993240401,"AM04EN20b","2022_Feb_16_1133","MainTask",58,"Target","neutral_couple","neutral_couple_3","yellow",1,0.902154993240401,"post_correct","post_erotic_man",94.4196428571429
287.143525904404,0,"AM04EN20b","2022_Feb_16_1133","MainTask",58,"Response","neutral_couple","neutral_couple_3","yellow",1,0.902154993240401,"post_correct","post_erotic_man",94.4196428571429
287.175499732359,1.49921024556674,"AM04EN20b","2022_Feb_16_1133","MainTask",59,"Fixation","neutral_man_woman","neutral_3","red",1,0.436653991951971,"post_correct","post_neutral_couple",94.4196428571429
288.726822117889,1.16530000760891,"AM04EN20b","2022_Feb_16_1133","MainTask",59,"Picture","neutral_man_woman","neutral_3","red",1,0.436653991951971,"post_correct","post_neutral_couple",94.4196428571429
289.877799412792,0.436653991951971,"AM04EN20b","2022_Feb_16_1133","MainTask",59,"Target","neutral_man_woman","neutral_3","red",1,0.436653991951971,"post_correct","post_neutral_couple",94.4196428571429
290.314453404744,0,"AM04EN20b","2022_Feb_16_1133","MainTask",59,"Response","neutral_man_woman","neutral_3","red",1,0.436653991951971,"post_correct","post_neutral_couple",94.4196428571429
290.344867761447,1.18574377158153,"AM04EN20b","2022_Feb_16_1133","MainTask",60,"Fixation","neutral_couple","neutral_couple_6","green",1,0.663853142497828,"post_correct","post_neutral_man_woman",94.4196428571429
291.595931839496,1.13781974253918,"AM04EN20b","2022_Feb_16_1133","MainTask",60,"Picture","neutral_couple","neutral_couple_6","green",1,0.663853142497828,"post_correct","post_neutral_man_woman",94.4196428571429
292.713544734159,0.663853142497828,"AM04EN20b","2022_Feb_16_1133","MainTask",60,"Target","neutral_couple","neutral_couple_6","green",1,0.663853142497828,"post_correct","post_neutral_man_woman",94.4196428571429
293.377397876657,0,"AM04EN20b","2022_Feb_16_1133","MainTask",60,"Response","neutral_couple","neutral_couple_6","green",1,0.663853142497828,"post_correct","post_neutral_man_woman",94.4196428571429
293.397469140935,1.15693758443466,"AM04EN20b","2022_Feb_16_1133","MainTask",61,"Fixation","erotic_woman","woman_3","yellow",1,0.683179676118016,"post_correct","post_neutral_couple",94.4196428571429
294.631847810075,1.14549672086344,"AM04EN20b","2022_Feb_16_1133","MainTask",61,"Picture","erotic_woman","woman_3","yellow",1,0.683179676118016,"post_correct","post_neutral_couple",94.4196428571429
295.766141446318,0.683179676118016,"AM04EN20b","2022_Feb_16_1133","MainTask",61,"Target","erotic_woman","woman_3","yellow",1,0.683179676118016,"post_correct","post_neutral_couple",94.4196428571429
296.449321122436,0,"AM04EN20b","2022_Feb_16_1133","MainTask",61,"Response","erotic_woman","woman_3","yellow",1,0.683179676118016,"post_correct","post_neutral_couple",94.4196428571429
296.466739301972,1.27907845927385,"AM04EN20b","2022_Feb_16_1133","MainTask",62,"Fixation","tree","tree_5","green",1,0.495847390015115,"post_correct","post_erotic_woman",94.4196428571429
297.81788987146,1.39687359309615,"AM04EN20b","2022_Feb_16_1133","MainTask",62,"Picture","tree","tree_5","green",1,0.495847390015115,"post_correct","post_erotic_woman",94.4196428571429
299.202399590442,0.495847390015115,"AM04EN20b","2022_Feb_16_1133","MainTask",62,"Target","tree","tree_5","green",1,0.495847390015115,"post_correct","post_erotic_woman",94.4196428571429
299.698246980457,0,"AM04EN20b","2022_Feb_16_1133","MainTask",62,"Response","tree","tree_5","green",1,0.495847390015115,"post_correct","post_erotic_woman",94.4196428571429
299.719507246758,1.05548643236321,"AM04EN20b","2022_Feb_16_1133","MainTask",63,"Fixation","erotic_woman","woman_2","yellow",1,0.438928147932529,"post_correct","post_tree",94.4196428571429
300.837131518034,1.35115225941417,"AM04EN20b","2022_Feb_16_1133","MainTask",63,"Picture","erotic_woman","woman_2","yellow",1,0.438928147932529,"post_correct","post_tree",94.4196428571429
302.188273044572,0.438928147932529,"AM04EN20b","2022_Feb_16_1133","MainTask",63,"Target","erotic_woman","woman_2","yellow",1,0.438928147932529,"post_correct","post_tree",94.4196428571429
302.627201192505,0,"AM04EN20b","2022_Feb_16_1133","MainTask",63,"Response","erotic_woman","woman_2","yellow",1,0.438928147932529,"post_correct","post_tree",94.4196428571429
302.655338476146,1.05358955218203,"AM04EN20b","2022_Feb_16_1133","MainTask",64,"Fixation","erotic_woman","woman_2","red",1,0.302993070476077,"post_correct","post_erotic_woman",94.4196428571429
303.756274713141,1.07213661505036,"AM04EN20b","2022_Feb_16_1133","MainTask",64,"Picture","erotic_woman","woman_2","red",1,0.302993070476077,"post_correct","post_erotic_woman",94.4196428571429
304.807166100025,0.302993070476077,"AM04EN20b","2022_Feb_16_1133","MainTask",64,"Target","erotic_woman","woman_2","red",1,0.302993070476077,"post_correct","post_erotic_woman",94.4196428571429
305.110159170501,0,"AM04EN20b","2022_Feb_16_1133","MainTask",64,"Response","erotic_woman","woman_2","red",1,0.302993070476077,"post_correct","post_erotic_woman",94.4196428571429
305.140788516037,1.25841934338143,"AM04EN20b","2022_Feb_16_1133","MainTask",65,"Fixation","erotic_couple","couple_2","green",1,0.924016178129023,"post_correct","post_erotic_woman",94.4196428571429
306.475257760529,1.33090723469421,"AM04EN20b","2022_Feb_16_1133","MainTask",65,"Picture","erotic_couple","couple_2","green",1,0.924016178129023,"post_correct","post_erotic_woman",94.4196428571429
307.793042762942,0.924016178129023,"AM04EN20b","2022_Feb_16_1133","MainTask",65,"Target","erotic_couple","couple_2","green",1,0.924016178129023,"post_correct","post_erotic_woman",94.4196428571429
308.717058941071,0,"AM04EN20b","2022_Feb_16_1133","MainTask",65,"Response","erotic_couple","couple_2","green",1,0.924016178129023,"post_correct","post_erotic_woman",94.4196428571429
308.743852034007,1.26427431081976,"AM04EN20b","2022_Feb_16_1133","MainTask",66,"Fixation","erotic_man","man_2","yellow",1,0.658446042032665,"post_correct","post_erotic_couple",94.4196428571429
310.078319528249,1.11371485505956,"AM04EN20b","2022_Feb_16_1133","MainTask",66,"Picture","erotic_man","man_2","yellow",1,0.658446042032665,"post_correct","post_erotic_couple",94.4196428571429
311.162578524161,0.658446042032665,"AM04EN20b","2022_Feb_16_1133","MainTask",66,"Target","erotic_man","man_2","yellow",1,0.658446042032665,"post_correct","post_erotic_couple",94.4196428571429
311.821024566194,0,"AM04EN20b","2022_Feb_16_1133","MainTask",66,"Response","erotic_man","man_2","yellow",1,0.658446042032665,"post_correct","post_erotic_couple",94.4196428571429
311.846534435406,1.19186278844212,"AM04EN20b","2022_Feb_16_1133","MainTask",67,"Fixation","erotic_couple","couple_6","yellow",1,0.420100435081622,"post_correct","post_erotic_man",94.4196428571429
313.097557966037,1.15594243661277,"AM04EN20b","2022_Feb_16_1133","MainTask",67,"Picture","erotic_couple","couple_6","yellow",1,0.420100435081622,"post_correct","post_erotic_man",94.4196428571429
314.231851602281,0.420100435081622,"AM04EN20b","2022_Feb_16_1133","MainTask",67,"Target","erotic_couple","couple_6","yellow",1,0.420100435081622,"post_correct","post_erotic_man",94.4196428571429
314.651952037363,0,"AM04EN20b","2022_Feb_16_1133","MainTask",67,"Response","erotic_couple","couple_6","yellow",1,0.420100435081622,"post_correct","post_erotic_man",94.4196428571429
314.682245626933,1.35030290113179,"AM04EN20b","2022_Feb_16_1133","MainTask",68,"Fixation","erotic_couple","couple_4","red",1,0.502246297859529,"post_correct","post_erotic_couple",94.4196428571429
316.100110994914,1.03094235773967,"AM04EN20b","2022_Feb_16_1133","MainTask",68,"Picture","erotic_couple","couple_4","red",1,0.502246297859529,"post_correct","post_erotic_couple",94.4196428571429
317.117641190343,0.502246297859529,"AM04EN20b","2022_Feb_16_1133","MainTask",68,"Target","erotic_couple","couple_4","red",1,0.502246297859529,"post_correct","post_erotic_couple",94.4196428571429
317.619887488203,0,"AM04EN20b","2022_Feb_16_1133","MainTask",68,"Response","erotic_couple","couple_4","red",1,0.502246297859529,"post_correct","post_erotic_couple",94.4196428571429
317.651440673146,1.18253169009981,"AM04EN20b","2022_Feb_16_1133","MainTask",69,"Fixation","erotic_couple","couple_3","red",1,0.441649784062975,"post_correct","post_erotic_couple",94.4196428571429
318.869133058253,1.21402893051124,"AM04EN20b","2022_Feb_16_1133","MainTask",69,"Picture","erotic_couple","couple_3","red",1,0.441649784062975,"post_correct","post_erotic_couple",94.4196428571429
320.070155494977,0.441649784062975,"AM04EN20b","2022_Feb_16_1133","MainTask",69,"Target","erotic_couple","couple_3","red",1,0.441649784062975,"post_correct","post_erotic_couple",94.4196428571429
320.51180527904,0,"AM04EN20b","2022_Feb_16_1133","MainTask",69,"Response","erotic_couple","couple_3","red",1,0.441649784062975,"post_correct","post_erotic_couple",94.4196428571429
320.537218009473,1.25484931218501,"AM04EN20b","2022_Feb_16_1133","MainTask",70,"Fixation","neutral_couple","neutral_couple_2","blue",1,0.690892728740437,"post_correct","post_erotic_couple",94.4196428571429
321.838326937635,1.04090372878181,"AM04EN20b","2022_Feb_16_1133","MainTask",70,"Picture","neutral_couple","neutral_couple_2","blue",1,0.690892728740437,"post_correct","post_erotic_couple",94.4196428571429
322.85585771648,0.690892728740437,"AM04EN20b","2022_Feb_16_1133","MainTask",70,"Target","neutral_couple","neutral_couple_2","blue",1,0.690892728740437,"post_correct","post_erotic_couple",94.4196428571429
323.54675044522,0,"AM04EN20b","2022_Feb_16_1133","MainTask",70,"Response","neutral_couple","neutral_couple_2","blue",1,0.690892728740437,"post_correct","post_erotic_couple",94.4196428571429
323.573134563467,1.41857376700445,"AM04EN20b","2022_Feb_16_1133","MainTask",71,"Fixation","erotic_man","man_6","red",1,0.50033385986535,"post_correct","post_neutral_couple",94.4196428571429
325.057731065595,1.49141674922552,"AM04EN20b","2022_Feb_16_1133","MainTask",71,"Picture","erotic_man","man_6","red",1,0.50033385986535,"post_correct","post_neutral_couple",94.4196428571429
326.542325817476,0.50033385986535,"AM04EN20b","2022_Feb_16_1133","MainTask",71,"Target","erotic_man","man_6","red",1,0.50033385986535,"post_correct","post_neutral_couple",94.4196428571429
327.042659677341,0,"AM04EN20b","2022_Feb_16_1133","MainTask",71,"Response","erotic_man","man_6","red",1,0.50033385986535,"post_correct","post_neutral_couple",94.4196428571429
327.05943201525,1.37207888536984,"AM04EN20b","2022_Feb_16_1133","MainTask",72,"Fixation","erotic_couple","couple_2","red",1,0.876090878726245,"post_correct","post_erotic_man",94.4196428571429
328.493992418507,1.04431177527948,"AM04EN20b","2022_Feb_16_1133","MainTask",72,"Picture","erotic_couple","couple_2","red",1,0.876090878726245,"post_correct","post_erotic_man",94.4196428571429
329.511517946608,0.876090878726245,"AM04EN20b","2022_Feb_16_1133","MainTask",72,"Target","erotic_couple","couple_2","red",1,0.876090878726245,"post_correct","post_erotic_man",94.4196428571429
330.387608825334,0,"AM04EN20b","2022_Feb_16_1133","MainTask",72,"Response","erotic_couple","couple_2","red",1,0.876090878726245,"post_correct","post_erotic_man",94.4196428571429
330.412287326599,1.44003424577468,"AM04EN20b","2022_Feb_16_1133","MainTask",73,"Fixation","neutral_couple","neutral_couple_6","green",0,0.71471390003353,"post_correct","post_erotic_couple",94.4196428571429
331.880209796433,1.11152209813307,"AM04EN20b","2022_Feb_16_1133","MainTask",73,"Picture","neutral_couple","neutral_couple_6","green",0,0.71471390003353,"post_correct","post_erotic_couple",94.4196428571429
332.99781889889,0.71471390003353,"AM04EN20b","2022_Feb_16_1133","MainTask",73,"Target","neutral_couple","neutral_couple_6","green",0,0.71471390003353,"post_correct","post_erotic_couple",94.4196428571429
333.712532798924,0,"AM04EN20b","2022_Feb_16_1133","MainTask",73,"Response","neutral_couple","neutral_couple_6","green",0,0.71471390003353,"post_correct","post_erotic_couple",94.4196428571429
333.731779404538,1.11684665137868,"AM04EN20b","2022_Feb_16_1133","MainTask",74,"Fixation","erotic_man","man_1","red",1,0.562826476007103,"post_error","post_neutral_couple",94.4196428571429
334.916123725054,1.39772758477869,"AM04EN20b","2022_Feb_16_1133","MainTask",74,"Picture","erotic_man","man_1","red",1,0.562826476007103,"post_error","post_neutral_couple",94.4196428571429
336.300628485,0.562826476007103,"AM04EN20b","2022_Feb_16_1133","MainTask",74,"Target","erotic_man","man_1","red",1,0.562826476007103,"post_error","post_neutral_couple",94.4196428571429
336.863454961007,0,"AM04EN20b","2022_Feb_16_1133","MainTask",74,"Response","erotic_man","man_1","red",1,0.562826476007103,"post_error","post_neutral_couple",94.4196428571429
336.884461733009,1.34449153241977,"AM04EN20b","2022_Feb_16_1133","MainTask",75,"Fixation","positive_man_woman","positive_7","green",1,0.624373958055003,"post_correct","post_erotic_man",94.4196428571429
338.285651610156,1.25498861382653,"AM04EN20b","2022_Feb_16_1133","MainTask",75,"Picture","positive_man_woman","positive_7","green",1,0.624373958055003,"post_correct","post_erotic_man",94.4196428571429
339.5200340715,0.624373958055003,"AM04EN20b","2022_Feb_16_1133","MainTask",75,"Target","positive_man_woman","positive_7","green",1,0.624373958055003,"post_correct","post_erotic_man",94.4196428571429
340.144408029555,0,"AM04EN20b","2022_Feb_16_1133","MainTask",75,"Response","positive_man_woman","positive_7","green",1,0.624373958055003,"post_correct","post_erotic_man",94.4196428571429
340.170589410707,1.36231437482941,"AM04EN20b","2022_Feb_16_1133","MainTask",76,"Fixation","tree","tree_1","yellow",1,0.480316561579457,"post_correct","post_positive_man_woman",94.4196428571429
341.555108756054,1.45910549464594,"AM04EN20b","2022_Feb_16_1133","MainTask",76,"Picture","tree","tree_1","yellow",1,0.480316561579457,"post_correct","post_positive_man_woman",94.4196428571429
343.023012848282,0.480316561579457,"AM04EN20b","2022_Feb_16_1133","MainTask",76,"Target","tree","tree_1","yellow",1,0.480316561579457,"post_correct","post_positive_man_woman",94.4196428571429
343.503329409861,0,"AM04EN20b","2022_Feb_16_1133","MainTask",76,"Response","tree","tree_1","yellow",1,0.480316561579457,"post_correct","post_positive_man_woman",94.4196428571429
343.523441513265,1.13461014198929,"AM04EN20b","2022_Feb_16_1133","MainTask",77,"Fixation","neutral_man_woman","neutral_7","green",1,0.547909984728904,"post_correct","post_tree",94.4196428571429
344.707783791826,1.08598884268027,"AM04EN20b","2022_Feb_16_1133","MainTask",77,"Picture","neutral_man_woman","neutral_7","green",1,0.547909984728904,"post_correct","post_tree",94.4196428571429
345.775357378829,0.547909984728904,"AM04EN20b","2022_Feb_16_1133","MainTask",77,"Target","neutral_man_woman","neutral_7","green",1,0.547909984728904,"post_correct","post_tree",94.4196428571429
346.323267363558,0,"AM04EN20b","2022_Feb_16_1133","MainTask",77,"Response","neutral_man_woman","neutral_7","green",1,0.547909984728904,"post_correct","post_tree",94.4196428571429
346.34250492622,1.1936017260917,"AM04EN20b","2022_Feb_16_1133","MainTask",78,"Fixation","erotic_woman","woman_1","blue",1,0.627558243159001,"post_correct","post_neutral_man_woman",94.4196428571429
347.57689117977,1.29526162974713,"AM04EN20b","2022_Feb_16_1133","MainTask",78,"Picture","erotic_woman","woman_1","blue",1,0.627558243159001,"post_correct","post_neutral_man_woman",94.4196428571429
348.84463891648,0.627558243159001,"AM04EN20b","2022_Feb_16_1133","MainTask",78,"Target","erotic_woman","woman_1","blue",1,0.627558243159001,"post_correct","post_neutral_man_woman",94.4196428571429
349.472197159639,0,"AM04EN20b","2022_Feb_16_1133","MainTask",78,"Response","erotic_woman","woman_1","blue",1,0.627558243159001,"post_correct","post_neutral_man_woman",94.4196428571429
349.495194547393,1.38210448603224,"AM04EN20b","2022_Feb_16_1133","MainTask",79,"Fixation","tree","tree_1","red",1,0.523368294543616,"post_correct","post_erotic_woman",94.4196428571429
350.92974299062,1.22849926148919,"AM04EN20b","2022_Feb_16_1133","MainTask",79,"Picture","tree","tree_1","red",1,0.523368294543616,"post_correct","post_erotic_woman",94.4196428571429
352.130763093681,0.523368294543616,"AM04EN20b","2022_Feb_16_1133","MainTask",79,"Target","tree","tree_1","red",1,0.523368294543616,"post_correct","post_erotic_woman",94.4196428571429
352.654131388225,0,"AM04EN20b","2022_Feb_16_1133","MainTask",79,"Response","tree","tree_1","red",1,0.523368294543616,"post_correct","post_erotic_woman",94.4196428571429
352.68123339999,1.12252004490432,"AM04EN20b","2022_Feb_16_1133","MainTask",80,"Fixation","positive_man_woman","positive_7","blue",1,0.613650478328054,"post_correct","post_tree",94.4196428571429
353.848898145758,1.40120262427116,"AM04EN20b","2022_Feb_16_1133","MainTask",80,"Picture","positive_man_woman","positive_7","blue",1,0.613650478328054,"post_correct","post_tree",94.4196428571429
355.233404072536,0.613650478328054,"AM04EN20b","2022_Feb_16_1133","MainTask",80,"Target","positive_man_woman","positive_7","blue",1,0.613650478328054,"post_correct","post_tree",94.4196428571429
355.847054550864,0,"AM04EN20b","2022_Feb_16_1133","MainTask",80,"Response","positive_man_woman","positive_7","blue",1,0.613650478328054,"post_correct","post_tree",94.4196428571429
355.867278378453,1.13681244418583,"AM04EN20b","2022_Feb_16_1133","MainTask",81,"Fixation","neutral_couple","neutral_couple_4","blue",1,0.393265627895744,"post_correct","post_positive_man_woman",94.4196428571429
357.06830052347,1.28632412264852,"AM04EN20b","2022_Feb_16_1133","MainTask",81,"Picture","neutral_couple","neutral_couple_4","blue",1,0.393265627895744,"post_correct","post_positive_man_woman",94.4196428571429
358.352725209556,0.393265627895744,"AM04EN20b","2022_Feb_16_1133","MainTask",81,"Target","neutral_couple","neutral_couple_4","blue",1,0.393265627895744,"post_correct","post_positive_man_woman",94.4196428571429
358.745990837452,0,"AM04EN20b","2022_Feb_16_1133","MainTask",81,"Response","neutral_couple","neutral_couple_4","blue",1,0.393265627895744,"post_correct","post_positive_man_woman",94.4196428571429
358.769745791018,1.31729040834253,"AM04EN20b","2022_Feb_16_1133","MainTask",82,"Fixation","positive_man_woman","positive_5","blue",1,0.356638764791569,"post_correct","post_neutral_couple",94.4196428571429
360.137576810377,1.22520898595807,"AM04EN20b","2022_Feb_16_1133","MainTask",82,"Picture","positive_man_woman","positive_5","blue",1,0.356638764791569,"post_correct","post_neutral_couple",94.4196428571429
361.355277946726,0.356638764791569,"AM04EN20b","2022_Feb_16_1133","MainTask",82,"Target","positive_man_woman","positive_5","blue",1,0.356638764791569,"post_correct","post_neutral_couple",94.4196428571429
361.711916711518,0,"AM04EN20b","2022_Feb_16_1133","MainTask",82,"Response","positive_man_woman","positive_5","blue",1,0.356638764791569,"post_correct","post_neutral_couple",94.4196428571429
361.7389396704,1.20772147588379,"AM04EN20b","2022_Feb_16_1133","MainTask",83,"Fixation","erotic_couple","couple_8","yellow",1,0.461955289907564,"post_correct","post_positive_man_woman",94.4196428571429
363.006683906613,1.45836642015498,"AM04EN20b","2022_Feb_16_1133","MainTask",83,"Picture","erotic_couple","couple_8","yellow",1,0.461955289907564,"post_correct","post_positive_man_woman",94.4196428571429
364.457914841669,0.461955289907564,"AM04EN20b","2022_Feb_16_1133","MainTask",83,"Target","erotic_couple","couple_8","yellow",1,0.461955289907564,"post_correct","post_positive_man_woman",94.4196428571429
364.919870131577,0,"AM04EN20b","2022_Feb_16_1133","MainTask",83,"Response","erotic_couple","couple_8","yellow",1,0.461955289907564,"post_correct","post_positive_man_woman",94.4196428571429
364.941663640197,1.40363731087855,"AM04EN20b","2022_Feb_16_1133","MainTask",84,"Fixation","tree","tree_1","red",1,0.551672726902325,"post_correct","post_erotic_couple",94.4196428571429
366.376225793701,1.46199355345905,"AM04EN20b","2022_Feb_16_1133","MainTask",84,"Picture","tree","tree_1","red",1,0.551672726902325,"post_correct","post_erotic_couple",94.4196428571429
367.844130469344,0.551672726902325,"AM04EN20b","2022_Feb_16_1133","MainTask",84,"Target","tree","tree_1","red",1,0.551672726902325,"post_correct","post_erotic_couple",94.4196428571429
368.395803196246,0,"AM04EN20b","2022_Feb_16_1133","MainTask",84,"Response","tree","tree_1","red",1,0.551672726902325,"post_correct","post_erotic_couple",94.4196428571429
368.427961675396,1.40538367707429,"AM04EN20b","2022_Feb_16_1133","MainTask",85,"Fixation","neutral_man_woman","neutral_6","blue",1,0.507011932317255,"post_correct","post_tree",94.4196428571429
369.895878602778,1.33480738793703,"AM04EN20b","2022_Feb_16_1133","MainTask",85,"Picture","neutral_man_woman","neutral_6","blue",1,0.507011932317255,"post_correct","post_tree",94.4196428571429
371.213666813979,0.507011932317255,"AM04EN20b","2022_Feb_16_1133","MainTask",85,"Target","neutral_man_woman","neutral_6","blue",1,0.507011932317255,"post_correct","post_tree",94.4196428571429
371.720678746296,0,"AM04EN20b","2022_Feb_16_1133","MainTask",85,"Response","neutral_man_woman","neutral_6","blue",1,0.507011932317255,"post_correct","post_tree",94.4196428571429
371.747453753334,1.39123633513522,"AM04EN20b","2022_Feb_16_1133","MainTask",86,"Fixation","erotic_woman","woman_1","yellow",1,0.604095872769904,"post_correct","post_neutral_man_woman",94.4196428571429
373.198691105968,1.37288431608703,"AM04EN20b","2022_Feb_16_1133","MainTask",86,"Picture","erotic_woman","woman_1","yellow",1,0.604095872769904,"post_correct","post_neutral_man_woman",94.4196428571429
374.566518333122,0.604095872769904,"AM04EN20b","2022_Feb_16_1133","MainTask",86,"Target","erotic_woman","woman_1","yellow",1,0.604095872769904,"post_correct","post_neutral_man_woman",94.4196428571429
375.170614205892,0,"AM04EN20b","2022_Feb_16_1133","MainTask",86,"Response","erotic_woman","woman_1","yellow",1,0.604095872769904,"post_correct","post_neutral_man_woman",94.4196428571429
375.200391763916,1.33667614412371,"AM04EN20b","2022_Feb_16_1133","MainTask",87,"Fixation","erotic_woman","woman_8","blue",1,0.66436042280111,"post_correct","post_erotic_woman",94.4196428571429
376.601586016683,1.49732134158237,"AM04EN20b","2022_Feb_16_1133","MainTask",87,"Picture","erotic_woman","woman_8","blue",1,0.66436042280111,"post_correct","post_erotic_woman",94.4196428571429
378.086179310023,0.66436042280111,"AM04EN20b","2022_Feb_16_1133","MainTask",87,"Target","erotic_woman","woman_8","blue",1,0.66436042280111,"post_correct","post_erotic_woman",94.4196428571429
378.750539732824,0,"AM04EN20b","2022_Feb_16_1133","MainTask",87,"Response","erotic_woman","woman_8","blue",1,0.66436042280111,"post_correct","post_erotic_woman",94.4196428571429
378.770116551952,1.36240654921328,"AM04EN20b","2022_Feb_16_1133","MainTask",88,"Fixation","erotic_woman","woman_5","yellow",1,0.502582053830338,"post_correct","post_erotic_woman",94.4196428571429
380.171288051493,1.12471221496322,"AM04EN20b","2022_Feb_16_1133","MainTask",88,"Picture","erotic_woman","woman_5","yellow",1,0.502582053830338,"post_correct","post_erotic_woman",94.4196428571429
381.288902404696,0.502582053830338,"AM04EN20b","2022_Feb_16_1133","MainTask",88,"Target","erotic_woman","woman_5","yellow",1,0.502582053830338,"post_correct","post_erotic_woman",94.4196428571429
381.791484458526,0,"AM04EN20b","2022_Feb_16_1133","MainTask",88,"Response","erotic_woman","woman_5","yellow",1,0.502582053830338,"post_correct","post_erotic_woman",94.4196428571429
381.822692261132,1.37344415749876,"AM04EN20b","2022_Feb_16_1133","MainTask",89,"Fixation","erotic_couple","couple_3","blue",1,0.684271831065416,"post_correct","post_erotic_woman",94.4196428571429
383.25725704001,1.0633146997268,"AM04EN20b","2022_Feb_16_1133","MainTask",89,"Picture","erotic_couple","couple_3","blue",1,0.684271831065416,"post_correct","post_erotic_woman",94.4196428571429
384.308139383942,0.684271831065416,"AM04EN20b","2022_Feb_16_1133","MainTask",89,"Target","erotic_couple","couple_3","blue",1,0.684271831065416,"post_correct","post_erotic_woman",94.4196428571429
384.992411215007,0,"AM04EN20b","2022_Feb_16_1133","MainTask",89,"Response","erotic_couple","couple_3","blue",1,0.684271831065416,"post_correct","post_erotic_woman",94.4196428571429
385.02542498217,1.48319906380557,"AM04EN20b","2022_Feb_16_1133","MainTask",90,"Fixation","erotic_couple","couple_8","red",1,0.51705660740663,"post_correct","post_erotic_couple",94.4196428571429
386.543386467956,1.48927627465165,"AM04EN20b","2022_Feb_16_1133","MainTask",90,"Picture","erotic_couple","couple_8","red",1,0.51705660740663,"post_correct","post_erotic_couple",94.4196428571429
388.011289685057,0.51705660740663,"AM04EN20b","2022_Feb_16_1133","MainTask",90,"Target","erotic_couple","couple_8","red",1,0.51705660740663,"post_correct","post_erotic_couple",94.4196428571429
388.528346292464,0,"AM04EN20b","2022_Feb_16_1133","MainTask",90,"Response","erotic_couple","couple_8","red",1,0.51705660740663,"post_correct","post_erotic_couple",94.4196428571429
388.545077791245,1.03224294836541,"AM04EN20b","2022_Feb_16_1133","MainTask",91,"Fixation","neutral_man_woman","neutral_7","blue",0,0.508581613348724,"post_correct","post_erotic_couple",94.4196428571429
389.629335036909,1.2531926855642,"AM04EN20b","2022_Feb_16_1133","MainTask",91,"Picture","neutral_man_woman","neutral_7","blue",0,0.508581613348724,"post_correct","post_erotic_couple",94.4196428571429
390.863715164589,0.508581613348724,"AM04EN20b","2022_Feb_16_1133","MainTask",91,"Target","neutral_man_woman","neutral_7","blue",0,0.508581613348724,"post_correct","post_erotic_couple",94.4196428571429
391.372296777938,0,"AM04EN20b","2022_Feb_16_1133","MainTask",91,"Response","neutral_man_woman","neutral_7","blue",0,0.508581613348724,"post_correct","post_erotic_couple",94.4196428571429
391.397514063974,1.21502475002996,"AM04EN20b","2022_Feb_16_1133","MainTask",92,"Fixation","erotic_couple","couple_1","green",1,0.720681371669343,"post_error","post_neutral_man_woman",94.4196428571429
392.681932915899,1.14163382244494,"AM04EN20b","2022_Feb_16_1133","MainTask",92,"Picture","erotic_couple","couple_1","green",1,0.720681371669343,"post_error","post_neutral_man_woman",94.4196428571429
393.799548144227,0.720681371669343,"AM04EN20b","2022_Feb_16_1133","MainTask",92,"Target","erotic_couple","couple_1","green",1,0.720681371669343,"post_error","post_neutral_man_woman",94.4196428571429
394.520229515896,0,"AM04EN20b","2022_Feb_16_1133","MainTask",92,"Response","erotic_couple","couple_1","green",1,0.720681371669343,"post_error","post_neutral_man_woman",94.4196428571429
394.550186766081,1.46148293466201,"AM04EN20b","2022_Feb_16_1133","MainTask",93,"Fixation","erotic_woman","woman_6","red",1,0.446657244496237,"post_correct","post_erotic_couple",94.4196428571429
396.084825201242,1.18454671338171,"AM04EN20b","2022_Feb_16_1133","MainTask",93,"Picture","erotic_woman","woman_6","red",1,0.446657244496237,"post_correct","post_erotic_couple",94.4196428571429
397.252485863099,0.446657244496237,"AM04EN20b","2022_Feb_16_1133","MainTask",93,"Target","erotic_woman","woman_6","red",1,0.446657244496237,"post_correct","post_erotic_couple",94.4196428571429
397.699143107595,0,"AM04EN20b","2022_Feb_16_1133","MainTask",93,"Response","erotic_woman","woman_6","red",1,0.446657244496237,"post_correct","post_erotic_couple",94.4196428571429
397.71955041955,1.21745880946584,"AM04EN20b","2022_Feb_16_1133","MainTask",94,"Fixation","erotic_couple","couple_1","blue",1,0.580485022979701,"post_correct","post_erotic_woman",94.4196428571429
398.970616247847,1.15591696319453,"AM04EN20b","2022_Feb_16_1133","MainTask",94,"Picture","erotic_couple","couple_1","blue",1,0.580485022979701,"post_correct","post_erotic_woman",94.4196428571429
400.121593542752,0.580485022979701,"AM04EN20b","2022_Feb_16_1133","MainTask",94,"Target","erotic_couple","couple_1","blue",1,0.580485022979701,"post_correct","post_erotic_woman",94.4196428571429
400.702078565732,0,"AM04EN20b","2022_Feb_16_1133","MainTask",94,"Response","erotic_couple","couple_1","blue",1,0.580485022979701,"post_correct","post_erotic_woman",94.4196428571429
400.722105782092,1.07976905180601,"AM04EN20b","2022_Feb_16_1133","MainTask",95,"Fixation","erotic_woman","woman_2","red",1,0.392037536990756,"post_correct","post_erotic_couple",94.4196428571429
401.823049603496,1.10317347920898,"AM04EN20b","2022_Feb_16_1133","MainTask",95,"Picture","erotic_woman","woman_2","red",1,0.392037536990756,"post_correct","post_erotic_couple",94.4196428571429
402.923978839499,0.392037536990756,"AM04EN20b","2022_Feb_16_1133","MainTask",95,"Target","erotic_woman","woman_2","red",1,0.392037536990756,"post_correct","post_erotic_couple",94.4196428571429
403.31601637649,0,"AM04EN20b","2022_Feb_16_1133","MainTask",95,"Response","erotic_woman","woman_2","red",1,0.392037536990756,"post_correct","post_erotic_couple",94.4196428571429
403.340998254127,1.01298475036605,"AM04EN20b","2022_Feb_16_1133","MainTask",96,"Fixation","erotic_woman","woman_1","yellow",1,0.527699284002665,"post_correct","post_erotic_woman",94.4196428571429
404.375222026292,1.24435823414101,"AM04EN20b","2022_Feb_16_1133","MainTask",96,"Picture","erotic_woman","woman_1","yellow",1,0.527699284002665,"post_correct","post_erotic_woman",94.4196428571429
405.626284354094,0.527699284002665,"AM04EN20b","2022_Feb_16_1133","MainTask",96,"Target","erotic_woman","woman_1","yellow",1,0.527699284002665,"post_correct","post_erotic_woman",94.4196428571429
406.153983638097,0,"AM04EN20b","2022_Feb_16_1133","MainTask",96,"Response","erotic_woman","woman_1","yellow",1,0.527699284002665,"post_correct","post_erotic_woman",94.4196428571429
406.176744158911,1.42204776208644,"AM04EN20b","2022_Feb_16_1133","MainTask",97,"Fixation","neutral_couple","neutral_couple_8","green",1,0.66336628175668,"post_correct","post_erotic_woman",94.4196428571429
407.678024319701,1.40963959898874,"AM04EN20b","2022_Feb_16_1133","MainTask",97,"Picture","neutral_couple","neutral_couple_8","green",1,0.66336628175668,"post_correct","post_erotic_woman",94.4196428571429
409.062532580143,0.66336628175668,"AM04EN20b","2022_Feb_16_1133","MainTask",97,"Target","neutral_couple","neutral_couple_8","green",1,0.66336628175668,"post_correct","post_erotic_woman",94.4196428571429
409.7258988619,0,"AM04EN20b","2022_Feb_16_1133","MainTask",97,"Response","neutral_couple","neutral_couple_8","green",1,0.66336628175668,"post_correct","post_erotic_woman",94.4196428571429
409.74645086105,1.00788534933594,"AM04EN20b","2022_Feb_16_1133","MainTask",98,"Fixation","neutral_couple","neutral_couple_6","red",1,0.536001586891871,"post_correct","post_neutral_couple",94.4196428571429
410.814032907585,1.32323270101709,"AM04EN20b","2022_Feb_16_1133","MainTask",98,"Picture","neutral_couple","neutral_couple_6","red",1,0.536001586891871,"post_correct","post_neutral_couple",94.4196428571429
412.131810325591,0.536001586891871,"AM04EN20b","2022_Feb_16_1133","MainTask",98,"Target","neutral_couple","neutral_couple_6","red",1,0.536001586891871,"post_correct","post_neutral_couple",94.4196428571429
412.667811912483,0,"AM04EN20b","2022_Feb_16_1133","MainTask",98,"Response","neutral_couple","neutral_couple_6","red",1,0.536001586891871,"post_correct","post_neutral_couple",94.4196428571429
412.698960498354,1.04139841807959,"AM04EN20b","2022_Feb_16_1133","MainTask",99,"Fixation","tree","tree_1","green",1,0.564822925920453,"post_correct","post_neutral_couple",94.4196428571429
413.766543711723,1.27960536392701,"AM04EN20b","2022_Feb_16_1133","MainTask",99,"Picture","tree","tree_1","green",1,0.564822925920453,"post_correct","post_neutral_couple",94.4196428571429
415.05095935486,0.564822925920453,"AM04EN20b","2022_Feb_16_1133","MainTask",99,"Target","tree","tree_1","green",1,0.564822925920453,"post_correct","post_neutral_couple",94.4196428571429
415.61578228078,0,"AM04EN20b","2022_Feb_16_1133","MainTask",99,"Response","tree","tree_1","green",1,0.564822925920453,"post_correct","post_neutral_couple",94.4196428571429
415.634792894576,1.44631770140732,"AM04EN20b","2022_Feb_16_1133","MainTask",100,"Fixation","positive_man_woman","positive_6","yellow",1,0.465027559119335,"post_correct","post_tree",94.4196428571429
417.136077139277,1.1322735220627,"AM04EN20b","2022_Feb_16_1133","MainTask",100,"Picture","positive_man_woman","positive_6","yellow",1,0.465027559119335,"post_correct","post_tree",94.4196428571429
418.253685658319,0.465027559119335,"AM04EN20b","2022_Feb_16_1133","MainTask",100,"Target","positive_man_woman","positive_6","yellow",1,0.465027559119335,"post_correct","post_tree",94.4196428571429
418.718713217438,0,"AM04EN20b","2022_Feb_16_1133","MainTask",100,"Response","positive_man_woman","positive_6","yellow",1,0.465027559119335,"post_correct","post_tree",94.4196428571429
418.737432998307,1.12105477448301,"AM04EN20b","2022_Feb_16_1133","MainTask",101,"Fixation","erotic_couple","couple_8","green",1,0.439044831151477,"post_correct","post_positive_man_woman",94.4196428571429
419.905094826996,1.40626889848587,"AM04EN20b","2022_Feb_16_1133","MainTask",101,"Picture","erotic_couple","couple_8","green",1,0.439044831151477,"post_correct","post_positive_man_woman",94.4196428571429
421.28960279573,0.439044831151477,"AM04EN20b","2022_Feb_16_1133","MainTask",101,"Target","erotic_couple","couple_8","green",1,0.439044831151477,"post_correct","post_positive_man_woman",94.4196428571429
421.728647626881,0,"AM04EN20b","2022_Feb_16_1133","MainTask",101,"Response","erotic_couple","couple_8","green",1,0.439044831151477,"post_correct","post_positive_man_woman",94.4196428571429
421.756667352181,1.15891808098118,"AM04EN20b","2022_Feb_16_1133","MainTask",102,"Fixation","neutral_man_woman","neutral_4","yellow",1,0.285663570186443,"post_correct","post_erotic_couple",94.4196428571429
422.991058273059,1.40957929337487,"AM04EN20b","2022_Feb_16_1133","MainTask",102,"Picture","neutral_man_woman","neutral_4","yellow",1,0.285663570186443,"post_correct","post_erotic_couple",94.4196428571429
424.408924516167,0.285663570186443,"AM04EN20b","2022_Feb_16_1133","MainTask",102,"Target","neutral_man_woman","neutral_4","yellow",1,0.285663570186443,"post_correct","post_erotic_couple",94.4196428571429
424.694588086353,0,"AM04EN20b","2022_Feb_16_1133","MainTask",102,"Response","neutral_man_woman","neutral_4","yellow",1,0.285663570186443,"post_correct","post_erotic_couple",94.4196428571429
424.725860648146,1.00335372342891,"AM04EN20b","2022_Feb_16_1133","MainTask",103,"Fixation","erotic_couple","couple_2","blue",1,0.685384113872715,"post_correct","post_neutral_man_woman",94.4196428571429
425.793436277105,1.2291865344064,"AM04EN20b","2022_Feb_16_1133","MainTask",103,"Picture","erotic_couple","couple_2","blue",1,0.685384113872715,"post_correct","post_neutral_man_woman",94.4196428571429
427.011135371498,0.685384113872715,"AM04EN20b","2022_Feb_16_1133","MainTask",103,"Target","erotic_couple","couple_2","blue",1,0.685384113872715,"post_correct","post_neutral_man_woman",94.4196428571429
427.696519485371,0,"AM04EN20b","2022_Feb_16_1133","MainTask",103,"Response","erotic_couple","couple_2","blue",1,0.685384113872715,"post_correct","post_neutral_man_woman",94.4196428571429
427.728414843856,1.43679440517116,"AM04EN20b","2022_Feb_16_1133","MainTask",104,"Fixation","neutral_couple","neutral_couple_4","red",1,0.51853060819667,"post_correct","post_erotic_couple",94.4196428571429
429.213013387942,1.07821828549841,"AM04EN20b","2022_Feb_16_1133","MainTask",104,"Picture","neutral_couple","neutral_couple_4","red",1,0.51853060819667,"post_correct","post_erotic_couple",94.4196428571429
430.263904774823,0.51853060819667,"AM04EN20b","2022_Feb_16_1133","MainTask",104,"Target","neutral_couple","neutral_couple_4","red",1,0.51853060819667,"post_correct","post_erotic_couple",94.4196428571429
430.78243538302,0,"AM04EN20b","2022_Feb_16_1133","MainTask",104,"Response","neutral_couple","neutral_couple_4","red",1,0.51853060819667,"post_correct","post_erotic_couple",94.4196428571429
430.814373622592,1.14959603201125,"AM04EN20b","2022_Feb_16_1133","MainTask",105,"Fixation","tree","tree_7","green",1,0.578175570324674,"post_correct","post_neutral_couple",94.4196428571429
432.015396351024,1.39598378480297,"AM04EN20b","2022_Feb_16_1133","MainTask",105,"Picture","tree","tree_7","green",1,0.578175570324674,"post_correct","post_neutral_couple",94.4196428571429
433.38322503672,0.578175570324674,"AM04EN20b","2022_Feb_16_1133","MainTask",105,"Target","tree","tree_7","green",1,0.578175570324674,"post_correct","post_neutral_couple",94.4196428571429
433.961400607045,0,"AM04EN20b","2022_Feb_16_1133","MainTask",105,"Response","tree","tree_7","green",1,0.578175570324674,"post_correct","post_neutral_couple",94.4196428571429
433.983736400936,1.41305419516148,"AM04EN20b","2022_Feb_16_1133","MainTask",106,"Fixation","erotic_woman","woman_1","blue",1,0.744616017396766,"post_correct","post_tree",94.4196428571429
435.418300888106,1.23942536537162,"AM04EN20b","2022_Feb_16_1133","MainTask",106,"Picture","erotic_woman","woman_1","blue",1,0.744616017396766,"post_correct","post_tree",94.4196428571429
436.652674014793,0.744616017396766,"AM04EN20b","2022_Feb_16_1133","MainTask",106,"Target","erotic_woman","woman_1","blue",1,0.744616017396766,"post_correct","post_tree",94.4196428571429
437.39729003219,0,"AM04EN20b","2022_Feb_16_1133","MainTask",106,"Response","erotic_woman","woman_1","blue",1,0.744616017396766,"post_correct","post_tree",94.4196428571429
437.4199960036,1.48013572995528,"AM04EN20b","2022_Feb_16_1133","MainTask",107,"Fixation","positive_man_woman","positive_2","blue",1,0.522662652763756,"post_correct","post_erotic_woman",94.4196428571429
438.954635022177,1.47844261711264,"AM04EN20b","2022_Feb_16_1133","MainTask",107,"Picture","positive_man_woman","positive_2","blue",1,0.522662652763756,"post_correct","post_erotic_woman",94.4196428571429
440.422548449062,0.522662652763756,"AM04EN20b","2022_Feb_16_1133","MainTask",107,"Target","positive_man_woman","positive_2","blue",1,0.522662652763756,"post_correct","post_erotic_woman",94.4196428571429
440.945211101826,0,"AM04EN20b","2022_Feb_16_1133","MainTask",107,"Response","positive_man_woman","positive_2","blue",1,0.522662652763756,"post_correct","post_erotic_woman",94.4196428571429
440.973017005121,1.2409550257466,"AM04EN20b","2022_Feb_16_1133","MainTask",108,"Fixation","erotic_couple","couple_7","red",1,0.702688235560345,"post_correct","post_positive_man_woman",94.4196428571429
442.290806383156,1.1842172642012,"AM04EN20b","2022_Feb_16_1133","MainTask",108,"Picture","erotic_couple","couple_7","red",1,0.702688235560345,"post_correct","post_positive_man_woman",94.4196428571429
443.45846441964,0.702688235560345,"AM04EN20b","2022_Feb_16_1133","MainTask",108,"Target","erotic_couple","couple_7","red",1,0.702688235560345,"post_correct","post_positive_man_woman",94.4196428571429
444.1611526552,0,"AM04EN20b","2022_Feb_16_1133","MainTask",108,"Response","erotic_couple","couple_7","red",1,0.702688235560345,"post_correct","post_positive_man_woman",94.4196428571429
444.192423175038,1.0688122956881,"AM04EN20b","2022_Feb_16_1133","MainTask",109,"Fixation","neutral_man_woman","neutral_4","blue",1,0.518848278266887,"post_correct","post_erotic_couple",94.4196428571429
445.310041320447,1.4149241242016,"AM04EN20b","2022_Feb_16_1133","MainTask",109,"Picture","neutral_man_woman","neutral_4","blue",1,0.518848278266887,"post_correct","post_erotic_couple",94.4196428571429
446.711230905885,0.518848278266887,"AM04EN20b","2022_Feb_16_1133","MainTask",109,"Target","neutral_man_woman","neutral_4","blue",1,0.518848278266887,"post_correct","post_erotic_couple",94.4196428571429
447.230079184152,0,"AM04EN20b","2022_Feb_16_1133","MainTask",109,"Response","neutral_man_woman","neutral_4","blue",1,0.518848278266887,"post_correct","post_erotic_couple",94.4196428571429
447.261700628776,1.18042791997488,"AM04EN20b","2022_Feb_16_1133","MainTask",110,"Fixation","erotic_woman","woman_4","blue",1,0.516713850443921,"post_correct","post_neutral_man_woman",94.4196428571429
448.479404098791,1.48593024489204,"AM04EN20b","2022_Feb_16_1133","MainTask",110,"Picture","erotic_woman","woman_4","blue",1,0.516713850443921,"post_correct","post_neutral_man_woman",94.4196428571429
449.947318984214,0.516713850443921,"AM04EN20b","2022_Feb_16_1133","MainTask",110,"Target","erotic_woman","woman_4","blue",1,0.516713850443921,"post_correct","post_neutral_man_woman",94.4196428571429
450.464032834658,0,"AM04EN20b","2022_Feb_16_1133","MainTask",110,"Response","erotic_woman","woman_4","blue",1,0.516713850443921,"post_correct","post_neutral_man_woman",94.4196428571429
450.481109132359,1.41162641669039,"AM04EN20b","2022_Feb_16_1133","MainTask",111,"Fixation","erotic_woman","woman_8","green",1,0.964016353153056,"post_correct","post_erotic_woman",94.4196428571429
451.949022850951,1.05224750043693,"AM04EN20b","2022_Feb_16_1133","MainTask",111,"Picture","erotic_woman","woman_8","green",1,0.964016353153056,"post_correct","post_erotic_woman",94.4196428571429
452.999915112958,0.964016353153056,"AM04EN20b","2022_Feb_16_1133","MainTask",111,"Target","erotic_woman","woman_8","green",1,0.964016353153056,"post_correct","post_erotic_woman",94.4196428571429
453.963931466111,0,"AM04EN20b","2022_Feb_16_1133","MainTask",111,"Response","erotic_woman","woman_8","green",1,0.964016353153056,"post_correct","post_erotic_woman",94.4196428571429
453.984087034016,30,"AM04EN20b","2022_Feb_16_1133","Break",0,"break","Scramble","","",1,0.723317245634462,"post_correct",NA,94.4196428571429
484.293591903352,1.10293034910183,"AM04EN20b","2022_Feb_16_1133","Break",0,"Fixation","Scramble","","",1,0.723317245634462,"post_correct",NA,94.4196428571429
485.427885539595,1.27739523687606,"AM04EN20b","2022_Feb_16_1133","Break",0,"Picture","Scramble","","",1,0.723317245634462,"post_correct",NA,94.4196428571429
486.678950784477,0.723317245634462,"AM04EN20b","2022_Feb_16_1133","Break",0,"Target","Scramble","","",1,0.723317245634462,"post_correct",NA,94.4196428571429
487.402268030111,0,"AM04EN20b","2022_Feb_16_1133","Break",0,"Response","Scramble","","",1,0.723317245634462,"post_correct",NA,94.4196428571429
487.429590573163,1.13594357993194,"AM04EN20b","2022_Feb_16_1133","Practice",20,"Fixation","Scramble","","",1,0.301399177675194,"post_correct",NA,94.4196428571429
