Flanker,FlankerAndTarget,Congruency,Target,Item,Anchors,NASA_Item,NASA_Anchor,Practiceloop.thisRepN,Practiceloop.thisTrialN,Practiceloop.thisN,Practiceloop.thisIndex,Conditions.thisRepN,Conditions.thisTrialN,Conditions.thisN,Conditions.thisIndex,TrialLoop.thisRepN,TrialLoop.thisTrialN,TrialLoop.thisN,TrialLoop.thisIndex,NASAtrials.thisRepN,NASAtrials.thisTrialN,NASAtrials.thisN,NASAtrials.thisIndex,OrderExperimenter,ResponseMapping,ITI_jitter,IntTrInt.started,IntTrInt.stopped,CorrAns,PracFlankers.started,PracFlankers.stopped,PracTarget.started,PracTarget.stopped,PracResp.keys,PracResp.corr,PracFeedbackSlide.started,PracFeedbackSlide.stopped,PracResp.rt,cutoff,cond_marker,Experimenter_Resp.keys,TargetTrigger,FlankerTrigger,ResponseTrigger,FlankerSlide.started,FlankerSlide.stopped,TargetSlide.started,TargetSlide.stopped,TargetResponse.keys,TargetResponse.corr,TargetResponse.rt,TargetResponse.started,TargetResponse.stopped,FeedbackSlide.started,FeedbackSlide.stopped,showReminder,ReminderErrors.started,ReminderErrors.stopped,key_resp_3.keys,key_resp_3.started,key_resp_3.stopped,break_slide.started,break_slide.stopped,break_resp.keys,break_resp.started,break_resp.stopped,text.started,text.stopped,break_resp.rt,ExperimenterPresence,SelfReport.started,SelfReport.stopped,anxious.response,anxious.rt,peppy.response,peppy.rt,peeved.response,peeved.rt,happy.response,happy.rt,tired.response,tired.rt,relaxed.response,relaxed.rt,sad.response,sad.rt,calm.response,calm.rt,exhausted.response,exhausted.rt,irritated.response,irritated.rt,ItemSlide.started,ItemSlide.stopped,rating.response,rating.rt,Experimenter_Resp.rt,participant,session,EEGPort,LogFilesFolder,date,expName,psychopyVersion,frameRate,
SHH HHS,SHHHHHS,20,H,,,,,0,0,0,8,,,,,,,,,,,,,NotPresent_First,S_blue,0.9948674178630502,117.0753332000022,None,2,115.02205260000483,115.12391080000089,115.10687509999843,115.30700990000332,None,0,116.10766720000538,None,,,,,,,,,,,,,,,,,,,,,,,,,,,,,,,,,,,,,,,,,,,,,,,,,,,,,,,,,,,,,IA6LI11,1,Serial_COM3,C:\Users\EEG\Desktop\FINALCoScienceTasksLogfiles\,2022_Jan_05_1225,Flanker,2020.1.3,59.874933240324275,
SSS SSS,SSSSSSS,30,S,,,,,0,1,1,3,,,,,,,,,,,,,,,0.7631423702769645,118.61174629999732,None,4,118.08391620000475,118.19303670000227,118.15936679999868,118.35955200000899,4,1,None,None,0.43340329999045935,,,,,,,,,,,,,,,,,,,,,,,,,,,,,,,,,,,,,,,,,,,,,,,,,,,,,,,,,,,,IA6LI11,1,Serial_COM3,C:\Users\EEG\Desktop\FINALCoScienceTasksLogfiles\,2022_Jan_05_1225,Flanker,2020.1.3,59.874933240324275,
HHH HHH,HHHSHHH,0,S,,,,,0,2,2,0,,,,,,,,,,,,,,,0.8694559281949545,121.47898640000494,None,4,119.38433610000357,119.49419650000345,119.47735670000839,119.67726820000098,None,0,120.478002200005,None,,,,,,,,,,,,,,,,,,,,,,,,,,,,,,,,,,,,,,,,,,,,,,,,,,,,,,,,,,,,,IA6LI11,1,Serial_COM3,C:\Users\EEG\Desktop\FINALCoScienceTasksLogfiles\,2022_Jan_05_1225,Flanker,2020.1.3,59.874933240324275,
HSS SSH,HSSSSSH,20,S,,,,,0,3,3,13,,,,,,,,,,,,,,,0.947145260324199,122.8315733000054,None,4,122.37093760000425,122.48002289999567,122.46297829999821,122.66344060000847,4,1,None,None,0.349573400002555,,,,,,,,,,,,,,,,,,,,,,,,,,,,,,,,,,,,,,,,,,,,,,,,,,,,,,,,,,,,IA6LI11,1,Serial_COM3,C:\Users\EEG\Desktop\FINALCoScienceTasksLogfiles\,2022_Jan_05_1225,Flanker,2020.1.3,59.874933240324275,
SSS SSS,SSSSSSS,30,S,,,,,0,4,4,14,,,,,,,,,,,,,,,0.8822217253840193,124.23337380000157,None,4,123.78275450000365,123.89786150000873,123.88087459999952,124.08099190000212,4,1,None,None,0.3297184999973979,,,,,,,,,,,,,,,,,,,,,,,,,,,,,,,,,,,,,,,,,,,,,,,,,,,,,,,,,,,,IA6LI11,1,Serial_COM3,C:\Users\EEG\Desktop\FINALCoScienceTasksLogfiles\,2022_Jan_05_1225,Flanker,2020.1.3,59.874933240324275,
SSS SSS,SSSSSSS,30,S,,,,,0,5,5,4,,,,,,,,,,,,,,,0.957352125556296,125.51675629999954,None,4,125.11545359999582,125.21559740000521,125.19865360000404,125.39875500000198,4,1,None,None,0.2855740000086371,,,,,,,,,,,,,,,,,,,,,,,,,,,,,,,,,,,,,,,,,,,,,,,,,,,,,,,,,,,,IA6LI11,1,Serial_COM3,C:\Users\EEG\Desktop\FINALCoScienceTasksLogfiles\,2022_Jan_05_1225,Flanker,2020.1.3,59.874933240324275,
SSS SSS,SSSHSSS,0,H,,,,,0,6,6,6,,,,,,,,,,,,,,,0.8355398043459229,126.88549119999516,None,2,126.48518350000086,126.6001144000038,126.58319309999933,126.78318640000361,4,0,None,None,0.26900129999557976,,,,,,,,,,,,,,,,,,,,,,,,,,,,,,,,,,,,,,,,,,,,,,,,,,,,,,,,,,,,IA6LI11,1,Serial_COM3,C:\Users\EEG\Desktop\FINALCoScienceTasksLogfiles\,2022_Jan_05_1225,Flanker,2020.1.3,59.874933240324275,
HHS SHH,HHSSSHH,10,S,,,,,0,7,7,1,,,,,,,,,,,,,,,0.845788612984972,128.16863329999615,None,4,127.74188200000208,127.85079830000177,127.81743599999754,128.01758390000032,4,1,None,None,0.32081629999447614,,,,,,,,,,,,,,,,,,,,,,,,,,,,,,,,,,,,,,,,,,,,,,,,,,,,,,,,,,,,IA6LI11,1,Serial_COM3,C:\Users\EEG\Desktop\FINALCoScienceTasksLogfiles\,2022_Jan_05_1225,Flanker,2020.1.3,59.874933240324275,
HSS SSH,HSSSSSH,20,S,,,,,0,8,8,2,,,,,,,,,,,,,,,0.9571038784845239,129.4537760999956,None,4,129.02541889999702,129.1355198000092,129.1184837000037,129.3188116000092,4,1,None,None,0.31066119999741204,,,,,,,,,,,,,,,,,,,,,,,,,,,,,,,,,,,,,,,,,,,,,,,,,,,,,,,,,,,,IA6LI11,1,Serial_COM3,C:\Users\EEG\Desktop\FINALCoScienceTasksLogfiles\,2022_Jan_05_1225,Flanker,2020.1.3,59.874933240324275,
SSH HSS,SSHHHSS,10,H,,,,,0,9,9,7,,,,,,,,,,,,,,,0.8679468475920844,130.80527260000235,None,2,130.42616960000305,130.53671549999854,130.51964579999913,130.71997449999617,4,0,None,None,0.2667495999921812,,,,,,,,,,,,,,,,,,,,,,,,,,,,,,,,,,,,,,,,,,,,,,,,,,,,,,,,,,,,IA6LI11,1,Serial_COM3,C:\Users\EEG\Desktop\FINALCoScienceTasksLogfiles\,2022_Jan_05_1225,Flanker,2020.1.3,59.874933240324275,
SSS SSS,SSSSSSS,30,S,,,,,0,10,10,5,,,,,,,,,,,,,,,0.7744067568788107,132.138887299996,None,4,131.69429719999607,131.80452309999964,131.78738779999549,131.9875674000068,4,1,None,None,0.3258463000092888,,,,,,,,,,,,,,,,,,,,,,,,,,,,,,,,,,,,,,,,,,,,,,,,,,,,,,,,,,,,IA6LI11,1,Serial_COM3,C:\Users\EEG\Desktop\FINALCoScienceTasksLogfiles\,2022_Jan_05_1225,Flanker,2020.1.3,59.874933240324275,
HHH HHH,HHHHHHH,30,H,,,,,0,11,11,10,,,,,,,,,,,,,,,0.9906442841748981,133.42303510000056,None,2,132.9301373000053,133.03876540000783,133.02180850000877,133.22191710000334,2,1,None,None,0.3773739000025671,,,,,,,,,,,,,,,,,,,,,,,,,,,,,,,,,,,,,,,,,,,,,,,,,,,,,,,,,,,,IA6LI11,1,Serial_COM3,C:\Users\EEG\Desktop\FINALCoScienceTasksLogfiles\,2022_Jan_05_1225,Flanker,2020.1.3,59.874933240324275,
HHH HHH,HHHHHHH,30,H,,,,,0,12,12,11,,,,,,,,,,,,,,,0.9422718590767609,134.82395990000805,None,2,134.42308760000742,134.52338009999949,134.50633230000676,134.70659739999974,2,1,None,None,0.2868205999984639,,,,,,,,,,,,,,,,,,,,,,,,,,,,,,,,,,,,,,,,,,,,,,,,,,,,,,,,,,,,IA6LI11,1,Serial_COM3,C:\Users\EEG\Desktop\FINALCoScienceTasksLogfiles\,2022_Jan_05_1225,Flanker,2020.1.3,59.874933240324275,
HHH HHH,HHHHHHH,30,H,,,,,0,13,13,12,,,,,,,,,,,,,,,0.9502454082308591,136.1763792999991,None,2,135.77435540000442,135.87447769999562,135.85746830000426,136.05762170000526,2,1,None,None,0.2987338999955682,,,,,,,,,,,,,,,,,,,,,,,,,,,,,,,,,,,,,,,,,,,,,,,,,,,,,,,,,,,,IA6LI11,1,Serial_COM3,C:\Users\EEG\Desktop\FINALCoScienceTasksLogfiles\,2022_Jan_05_1225,Flanker,2020.1.3,59.874933240324275,
HHH HHH,HHHHHHH,30,H,,,,,0,14,14,9,,,,,,,,,,,,,,,0.9002446149363517,137.5434177999996,None,2,137.14219369999773,137.2422385999962,137.2252865000046,137.42546490000677,2,1,None,None,0.2899171000026399,,,,,,,,,,,,,,,,,,,,,,,,,,,,,,,,,,,,,,,,,,,,,,,,,,,,,,,,,,,,IA6LI11,1,Serial_COM3,C:\Users\EEG\Desktop\FINALCoScienceTasksLogfiles\,2022_Jan_05_1225,Flanker,2020.1.3,59.874933240324275,
HHH HHH,HHHHHHH,30,H,,,,,,,,,0,0,0,0,0,0,0,9,,,,,,,0.9127915925264172,151.26044369999727,None,2,,,,,,,,,,0.33368948101997375,100,None,134,130,137,150.8107011999964,150.9204977000045,150.90370310000435,151.10346280000522,2,1,0.330120699989493,150.90370310000435,None,None,None,False,None,None,None,None,None,None,None,None,None,None,None,None,,,,,,,,,,,,,,,,,,,,,,,,,,,,,,IA6LI11,1,Serial_COM3,C:\Users\EEG\Desktop\FINALCoScienceTasksLogfiles\,2022_Jan_05_1225,Flanker,2020.1.3,59.874933240324275,
HSS SSH,HSSSSSH,20,S,,,,,,,,,0,0,0,0,0,1,1,2,,,,,,,0.8302113851967576,152.59262820000004,None,4,,,,,,,,,,,,,124,120,127,152.1981405999977,152.30515529999684,152.28795720000926,152.488070899999,4,1,0.26859560000593774,152.28795720000926,None,None,None,False,None,None,None,None,None,None,None,None,None,None,None,None,,,,,,,,,,,,,,,,,,,,,,,,,,,,,,IA6LI11,1,Serial_COM3,C:\Users\EEG\Desktop\FINALCoScienceTasksLogfiles\,2022_Jan_05_1225,Flanker,2020.1.3,59.874933240324275,
SSH HSS,SSHHHSS,10,H,,,,,,,,,0,0,0,0,0,2,2,7,,,,,,,0.9008830241368425,154.9920404000004,None,2,,,,,,,,,,,,,114,110,116,153.42887220000557,153.53851470000518,153.52189220000582,153.72231050000119,2,1,0.4276008000015281,153.52189220000582,None,153.98675369999546,None,False,None,None,None,None,None,None,None,None,None,None,None,None,,,,,,,,,,,,,,,,,,,,,,,,,,,,,,IA6LI11,1,Serial_COM3,C:\Users\EEG\Desktop\FINALCoScienceTasksLogfiles\,2022_Jan_05_1225,Flanker,2020.1.3,59.874933240324275,
HHS SHH,HHSSSHH,10,S,,,,,,,,,0,0,0,0,0,3,3,1,,,,,,,0.9428057457734226,157.47769620000327,None,4,,,,,,,,,,,,,114,110,116,155.91753520000202,156.0245900000009,156.00754750000488,156.2077561000042,4,1,0.4351191000023391,156.00754750000488,None,156.465786700006,None,False,None,None,None,None,None,None,None,None,None,None,None,None,,,,,,,,,,,,,,,,,,,,,,,,,,,,,,IA6LI11,1,Serial_COM3,C:\Users\EEG\Desktop\FINALCoScienceTasksLogfiles\,2022_Jan_05_1225,Flanker,2020.1.3,59.874933240324275,
HSS SSH,HSSSSSH,20,S,,,,,,,,,0,0,0,0,0,4,4,2,,,,,,,0.907970140176813,158.85108059999766,None,4,,,,,,,,,,,,,124,120,127,158.4284173000051,158.54327219999686,158.52630140000838,158.72640189999947,4,1,0.2863381999923149,158.52630140000838,None,None,None,False,None,None,None,None,None,None,None,None,None,None,None,None,,,,,,,,,,,,,,,,,,,,,,,,,,,,,,IA6LI11,1,Serial_COM3,C:\Users\EEG\Desktop\FINALCoScienceTasksLogfiles\,2022_Jan_05_1225,Flanker,2020.1.3,59.874933240324275,
HHS SHH,HHSSSHH,10,S,,,,,,,,,0,0,0,0,0,5,5,1,,,,,,,0.8181876270240429,161.24725470000703,None,4,,,,,,,,,,,,,114,110,116,159.7707744000072,159.8778461000038,159.8608821000089,160.0610219000082,4,1,0.33668049999687355,159.8608821000089,None,160.2367227000068,None,False,None,None,None,None,None,None,None,None,None,None,None,None,,,,,,,,,,,,,,,,,,,,,,,,,,,,,,IA6LI11,1,Serial_COM3,C:\Users\EEG\Desktop\FINALCoScienceTasksLogfiles\,2022_Jan_05_1225,Flanker,2020.1.3,59.874933240324275,
SSS SSS,SSSSSSS,30,S,,,,,,,,,0,0,0,0,0,6,6,3,,,,,,,0.7999767752902269,162.4673705000023,None,4,,,,,,,,,,,,,134,130,137,162.087969900007,162.19841599999927,162.16278060000332,162.3629335000005,4,1,0.28098640000098385,162.16278060000332,None,None,None,False,None,None,None,None,None,None,None,None,None,None,None,None,,,,,,,,,,,,,,,,,,,,,,,,,,,,,,IA6LI11,1,Serial_COM3,C:\Users\EEG\Desktop\FINALCoScienceTasksLogfiles\,2022_Jan_05_1225,Flanker,2020.1.3,59.874933240324275,
SSH HSS,SSHHHSS,10,H,,,,,,,,,0,0,0,0,0,7,7,7,,,,,,,0.9037778903865403,164.75000480000745,None,2,,,,,,,,,,,,,114,110,116,163.28947139999946,163.39740139999776,163.38032280000334,163.58051110000815,2,1,0.3342508999921847,163.38032280000334,None,163.7433347000042,None,False,None,None,None,None,None,None,None,None,None,None,None,None,,,,,,,,,,,,,,,,,,,,,,,,,,,,,,IA6LI11,1,Serial_COM3,C:\Users\EEG\Desktop\FINALCoScienceTasksLogfiles\,2022_Jan_05_1225,Flanker,2020.1.3,59.874933240324275,
SHH HHS,SHHHHHS,20,H,,,,,,,,,0,0,0,0,0,8,8,8,,,,,,,0.8608885266491204,166.0746999999974,None,2,,,,,,,,,,,,,124,120,127,165.67229360000056,165.78265290000127,165.76574859999528,165.9659338000056,2,1,0.28210840000247117,165.76574859999528,None,None,None,False,None,None,None,None,None,None,None,None,None,None,None,None,,,,,,,,,,,,,,,,,,,,,,,,,,,,,,IA6LI11,1,Serial_COM3,C:\Users\EEG\Desktop\FINALCoScienceTasksLogfiles\,2022_Jan_05_1225,Flanker,2020.1.3,59.874933240324275,
SSH HSS,SSHHHSS,10,H,,,,,,,,,0,0,0,0,0,9,9,7,,,,,,,0.8583087571444319,167.32421619999513,None,2,,,,,,,,,,,,,114,110,117,166.9585894000047,167.0691971000051,167.03333200000634,167.23359590000473,2,1,0.25517229999240953,167.03333200000634,None,None,None,False,None,None,None,None,None,None,None,None,None,None,None,None,,,,,,,,,,,,,,,,,,,,,,,,,,,,,,IA6LI11,1,Serial_COM3,C:\Users\EEG\Desktop\FINALCoScienceTasksLogfiles\,2022_Jan_05_1225,Flanker,2020.1.3,59.874933240324275,
HHH HHH,HHHHHHH,30,H,,,,,,,,,0,0,0,0,0,10,10,10,,,,,,,0.8612228767579024,168.56166010000743,None,2,,,,,,,,,,,,,134,130,137,168.19151590000547,168.3019237999979,168.28442939999513,168.48475770000368,2,1,0.24733309999282937,168.28442939999513,None,None,None,False,None,None,None,None,None,None,None,None,None,None,None,None,,,,,,,,,,,,,,,,,,,,,,,,,,,,,,IA6LI11,1,Serial_COM3,C:\Users\EEG\Desktop\FINALCoScienceTasksLogfiles\,2022_Jan_05_1225,Flanker,2020.1.3,59.874933240324275,
HHH HHH,HHHSHHH,0,S,,,,,,,,,0,0,0,0,0,11,11,0,,,,,,,0.8502301791444683,169.82998229999794,None,4,,,,,,,,,,,,,104,100,109,169.43757510000432,169.55249630000617,169.5355128000083,169.73553869999887,2,0,0.2652352000004612,169.5355128000083,None,None,None,False,None,None,None,None,None,None,None,None,None,None,None,None,,,,,,,,,,,,,,,,,,,,,,,,,,,,,,IA6LI11,1,Serial_COM3,C:\Users\EEG\Desktop\FINALCoScienceTasksLogfiles\,2022_Jan_05_1225,Flanker,2020.1.3,59.874933240324275,
HSS SSH,HSSSSSH,20,S,,,,,,,,,0,0,0,0,1,0,12,2,,,,,,,0.7800459358315674,172.2560564000014,None,4,,,,,,,,,,,,,124,120,126,170.69397079999908,170.80355670000426,170.78651489999902,170.98667149999528,4,1,0.4259453999984544,170.78651489999902,None,171.25021410000045,None,False,None,None,None,None,None,None,None,None,None,None,None,None,,,,,,,,,,,,,,,,,,,,,,,,,,,,,,IA6LI11,1,Serial_COM3,C:\Users\EEG\Desktop\FINALCoScienceTasksLogfiles\,2022_Jan_05_1225,Flanker,2020.1.3,59.874933240324275,
HHH HHH,HHHHHHH,30,H,,,,,,,,,0,0,0,0,1,1,13,9,,,,,,,0.9404365049180956,174.53575160000764,None,2,,,,,,,,,,,,,134,130,136,173.04516619999777,173.1554518000048,173.13845559999754,173.33862280000176,2,1,0.3491871000005631,173.13845559999754,None,173.5187050999957,None,False,None,None,None,None,None,None,None,None,None,None,None,None,,,,,,,,,,,,,,,,,,,,,,,,,,,,,,IA6LI11,1,Serial_COM3,C:\Users\EEG\Desktop\FINALCoScienceTasksLogfiles\,2022_Jan_05_1225,Flanker,2020.1.3,59.874933240324275,
SSS SSS,SSSSSSS,30,S,,,,,,,,,0,0,0,0,1,2,14,5,,,,,,,0.9120894447680824,175.91948700000648,None,4,,,,,,,,,,,,,134,130,137,175.49942130000272,175.60749910000595,175.59053200000199,175.7907075999974,4,1,0.28607839999313,175.59053200000199,None,None,None,False,None,None,None,None,None,None,None,None,None,None,None,None,,,,,,,,,,,,,,,,,,,,,,,,,,,,,,IA6LI11,1,Serial_COM3,C:\Users\EEG\Desktop\FINALCoScienceTasksLogfiles\,2022_Jan_05_1225,Flanker,2020.1.3,59.874933240324275,
SHH HHS,SHHHHHS,20,H,,,,,,,,,0,0,0,0,1,3,15,8,,,,,,,0.9800965489886224,177.2367011000024,None,2,,,,,,,,,,,,,124,120,127,176.84947480000847,176.9586447000038,176.94164540000202,177.14182830000937,2,1,0.26325820000784006,176.94164540000202,None,None,None,False,None,None,None,None,None,None,None,None,None,None,None,None,,,,,,,,,,,,,,,,,,,,,,,,,,,,,,IA6LI11,1,Serial_COM3,C:\Users\EEG\Desktop\FINALCoScienceTasksLogfiles\,2022_Jan_05_1225,Flanker,2020.1.3,59.874933240324275,
SSH HSS,SSHHHSS,10,H,,,,,,,,,0,0,0,0,1,4,16,7,,,,,,,0.9088103385520898,178.59648750000633,None,2,,,,,,,,,,,,,114,110,119,178.2329555000033,178.3431072999956,178.326224000004,178.52638060000027,4,0,0.24037139999563806,178.326224000004,None,None,None,False,None,None,None,None,None,None,None,None,None,None,None,None,,,,,,,,,,,,,,,,,,,,,,,,,,,,,,IA6LI11,1,Serial_COM3,C:\Users\EEG\Desktop\FINALCoScienceTasksLogfiles\,2022_Jan_05_1225,Flanker,2020.1.3,59.874933240324275,
HHH HHH,HHHHHHH,30,H,,,,,,,,,0,0,0,0,1,5,17,9,,,,,,,0.931508004416242,181.01381990000664,None,2,,,,,,,,,,,,,134,130,136,179.51778080000076,179.6277495999966,179.6105849000014,179.81067890000122,2,1,0.3551143999939086,179.6105849000014,None,180.00757750000048,None,False,None,None,None,None,None,None,None,None,None,None,None,None,,,,,,,,,,,,,,,,,,,,,,,,,,,,,,IA6LI11,1,Serial_COM3,C:\Users\EEG\Desktop\FINALCoScienceTasksLogfiles\,2022_Jan_05_1225,Flanker,2020.1.3,59.874933240324275,
SSS SSS,SSSHSSS,0,H,,,,,,,,,0,0,0,0,1,6,18,6,,,,,,,0.9740949626461961,182.37541229999624,None,2,,,,,,,,,,,,,104,100,109,181.9530900999962,182.0751908999955,182.028805199996,182.229307600006,4,0,0.3036201000068104,182.028805199996,None,None,None,False,None,None,None,None,None,None,None,None,None,None,None,None,,,,,,,,,,,,,,,,,,,,,,,,,,,,,,IA6LI11,1,Serial_COM3,C:\Users\EEG\Desktop\FINALCoScienceTasksLogfiles\,2022_Jan_05_1225,Flanker,2020.1.3,59.874933240324275,
SHH HHS,SHHHHHS,20,H,,,,,,,,,0,0,0,0,1,7,19,8,,,,,,,0.8531854944116259,183.75524470000528,None,2,,,,,,,,,,,,,124,120,129,183.3651155999978,183.4829427000077,183.44707370000833,183.64724289999867,4,0,0.2754842000140343,183.44707370000833,None,None,None,False,None,None,None,None,None,None,None,None,None,None,None,None,,,,,,,,,,,,,,,,,,,,,,,,,,,,,,IA6LI11,1,Serial_COM3,C:\Users\EEG\Desktop\FINALCoScienceTasksLogfiles\,2022_Jan_05_1225,Flanker,2020.1.3,59.874933240324275,
SSH HSS,SSHHHSS,10,H,,,,,,,,,0,0,0,0,1,8,20,7,,,,,,,0.9522995672658372,185.0266593999986,None,2,,,,,,,,,,,,,114,110,117,184.62384620000375,184.73176840000087,184.7147510000068,184.91490810000687,2,1,0.28106920000573155,184.7147510000068,None,None,None,False,None,None,None,None,None,None,None,None,None,None,None,None,,,,,,,,,,,,,,,,,,,,,,,,,,,,,,IA6LI11,1,Serial_COM3,C:\Users\EEG\Desktop\FINALCoScienceTasksLogfiles\,2022_Jan_05_1225,Flanker,2020.1.3,59.874933240324275,
SSS SSS,SSSSSSS,30,S,,,,,,,,,0,0,0,0,1,9,21,4,,,,,,,0.8855730654333311,186.37358700000914,None,4,,,,,,,,,,,,,134,130,137,185.99314690000028,186.09960030000366,186.08266990000266,186.2827663000062,4,1,0.2557646999921417,186.08266990000266,None,None,None,False,None,None,None,None,None,None,None,None,None,None,None,None,,,,,,,,,,,,,,,,,,,,,,,,,,,,,,IA6LI11,1,Serial_COM3,C:\Users\EEG\Desktop\FINALCoScienceTasksLogfiles\,2022_Jan_05_1225,Flanker,2020.1.3,59.874933240324275,
SSS SSS,SSSSSSS,30,S,,,,,,,,,0,0,0,0,1,10,22,4,,,,,,,0.8111744521570097,187.62858940000297,None,4,,,,,,,,,,,,,134,130,139,187.26723890000721,187.366869400008,187.34993740000937,187.5503802000021,2,0,0.23880490000010468,187.34993740000937,None,None,None,False,None,None,None,None,None,None,None,None,None,None,None,None,,,,,,,,,,,,,,,,,,,,,,,,,,,,,,IA6LI11,1,Serial_COM3,C:\Users\EEG\Desktop\FINALCoScienceTasksLogfiles\,2022_Jan_05_1225,Flanker,2020.1.3,59.874933240324275,
HSS SSH,HSSSSSH,20,S,,,,,,,,,0,0,0,0,1,11,23,2,,,,,,,0.8310660823578421,188.89587720000418,None,4,,,,,,,,,,,,,124,120,127,188.45332250000502,188.56841390000773,188.55145759999868,188.75147339999967,4,1,0.3133054999925662,188.55145759999868,None,None,None,False,None,None,None,None,None,None,None,None,None,None,None,None,,,,,,,,,,,,,,,,,,,,,,,,,,,,,,IA6LI11,1,Serial_COM3,C:\Users\EEG\Desktop\FINALCoScienceTasksLogfiles\,2022_Jan_05_1225,Flanker,2020.1.3,59.874933240324275,
SSS SSS,SSSSSSS,30,S,,,,,,,,,0,0,0,0,2,0,24,3,,,,,,,0.9902061997357889,190.10920110000006,None,4,,,,,,,,,,,,,134,130,137,189.74404440000944,189.85267999999633,189.83577520000108,190.03593090000504,4,1,0.24263750000682194,189.83577520000108,None,None,None,False,None,None,None,None,None,None,None,None,None,None,None,None,,,,,,,,,,,,,,,,,,,,,,,,,,,,,,IA6LI11,1,Serial_COM3,C:\Users\EEG\Desktop\FINALCoScienceTasksLogfiles\,2022_Jan_05_1225,Flanker,2020.1.3,59.874933240324275,
HHH HHH,HHHHHHH,30,H,,,,,,,,,0,0,0,0,2,1,25,11,,,,,,,0.7920111293072905,191.50851250000414,None,2,,,,,,,,,,,,,134,130,137,191.11365080000542,191.2205818000075,191.20320640000864,191.4036211000057,2,1,0.27024310000706464,191.20320640000864,None,None,None,False,None,None,None,None,None,None,None,None,None,None,None,None,,,,,,,,,,,,,,,,,,,,,,,,,,,,,,IA6LI11,1,Serial_COM3,C:\Users\EEG\Desktop\FINALCoScienceTasksLogfiles\,2022_Jan_05_1225,Flanker,2020.1.3,59.874933240324275,
HHS SHH,HHSSSHH,10,S,,,,,,,,,0,0,0,0,2,2,26,1,,,,,,,0.8321056149184178,192.64846620000026,None,4,,,,,,,,,,,,,114,110,117,192.3108099999954,192.42155749999802,192.4042305000039,192.6046370999975,4,1,0.21841899999708403,192.4042305000039,None,None,None,False,None,None,None,None,None,None,None,None,None,None,None,None,,,,,,,,,,,,,,,,,,,,,,,,,,,,,,IA6LI11,1,Serial_COM3,C:\Users\EEG\Desktop\FINALCoScienceTasksLogfiles\,2022_Jan_05_1225,Flanker,2020.1.3,59.874933240324275,
SSS SSS,SSSSSSS,30,S,,,,,,,,,0,0,0,0,2,3,27,3,,,,,,,0.8576620132983617,193.87618930000463,None,4,,,,,,,,,,,,,134,130,137,193.4984345999983,193.60577540000668,193.58902870000747,193.78895329999796,4,1,0.2614653999917209,193.58902870000747,None,None,None,False,None,None,None,None,None,None,None,None,None,None,None,None,,,,,,,,,,,,,,,,,,,,,,,,,,,,,,IA6LI11,1,Serial_COM3,C:\Users\EEG\Desktop\FINALCoScienceTasksLogfiles\,2022_Jan_05_1225,Flanker,2020.1.3,59.874933240324275,
SSS SSS,SSSSSSS,30,S,,,,,,,,,0,0,0,0,2,4,28,5,,,,,,,0.9322851042367913,195.06852190000063,None,4,,,,,,,,,,,,,134,130,137,194.74010819999967,194.8401473999984,194.8232216000033,195.02336279999872,4,1,0.21538049999799114,194.8232216000033,None,None,None,False,None,None,None,None,None,None,None,None,None,None,None,None,,,,,,,,,,,,,,,,,,,,,,,,,,,,,,IA6LI11,1,Serial_COM3,C:\Users\EEG\Desktop\FINALCoScienceTasksLogfiles\,2022_Jan_05_1225,Flanker,2020.1.3,59.874933240324275,
SSS SSS,SSSSSSS,30,S,,,,,,,,,0,0,0,0,2,5,29,4,,,,,,,0.7790916886501149,196.36890960000164,None,4,,,,,,,,,,,,,134,130,137,196.0076262000075,196.10791740000423,196.09087500000896,196.29101670000819,4,1,0.2376038999937009,196.09087500000896,None,None,None,False,None,None,None,None,None,None,None,None,None,None,None,None,,,,,,,,,,,,,,,,,,,,,,,,,,,,,,IA6LI11,1,Serial_COM3,C:\Users\EEG\Desktop\FINALCoScienceTasksLogfiles\,2022_Jan_05_1225,Flanker,2020.1.3,59.874933240324275,
SSS SSS,SSSSSSS,30,S,,,,,,,,,0,0,0,0,2,6,30,4,,,,,,,0.8691397905508068,197.5631282999966,None,4,,,,,,,,,,,,,134,130,137,197.15879139999743,197.25886940000055,197.2418275999953,197.442062800008,4,1,0.28778779999993276,197.2418275999953,None,None,None,False,None,None,None,None,None,None,None,None,None,None,None,None,,,,,,,,,,,,,,,,,,,,,,,,,,,,,,IA6LI11,1,Serial_COM3,C:\Users\EEG\Desktop\FINALCoScienceTasksLogfiles\,2022_Jan_05_1225,Flanker,2020.1.3,59.874933240324275,
HHH HHH,HHHHHHH,30,H,,,,,,,,,0,0,0,0,2,7,31,11,,,,,,,0.8827218125029347,198.82151700000395,None,2,,,,,,,,,,,,,134,130,137,198.44995280000148,198.562047600004,198.5260258000053,198.7264262999961,2,1,0.2669095000019297,198.5260258000053,None,None,None,False,None,None,None,None,None,None,None,None,None,None,None,None,,,,,,,,,,,,,,,,,,,,,,,,,,,,,,IA6LI11,1,Serial_COM3,C:\Users\EEG\Desktop\FINALCoScienceTasksLogfiles\,2022_Jan_05_1225,Flanker,2020.1.3,59.874933240324275,
SSS SSS,SSSSSSS,30,S,,,,,,,,,0,0,0,0,2,8,32,4,,,,,,,0.7743210995721868,200.12263389999862,None,4,,,,,,,,,,,,,134,130,137,199.71851310000056,199.83963550000044,199.79393880000862,199.99410029999854,4,1,0.297776099992916,199.79393880000862,None,None,None,False,None,None,None,None,None,None,None,None,None,None,None,None,,,,,,,,,,,,,,,,,,,,,,,,,,,,,,IA6LI11,1,Serial_COM3,C:\Users\EEG\Desktop\FINALCoScienceTasksLogfiles\,2022_Jan_05_1225,Flanker,2020.1.3,59.874933240324275,
HHS SHH,HHSSSHH,10,S,,,,,,,,,0,0,0,0,2,9,33,1,,,,,,,0.9591262906062248,201.2736855999974,None,4,,,,,,,,,,,,,114,110,117,200.921603099996,201.02867890000925,201.01168660000258,201.21188509999774,4,1,0.2340533999959007,201.01168660000258,None,None,None,False,None,None,None,None,None,None,None,None,None,None,None,None,,,,,,,,,,,,,,,,,,,,,,,,,,,,,,IA6LI11,1,Serial_COM3,C:\Users\EEG\Desktop\FINALCoScienceTasksLogfiles\,2022_Jan_05_1225,Flanker,2020.1.3,59.874933240324275,
HHH HHH,HHHSHHH,0,S,,,,,,,,,0,0,0,0,2,10,34,0,,,,,,,0.789726458710688,202.6830123999971,None,4,,,,,,,,,,,,,104,100,109,202.2528944000078,202.36281420000887,202.34585870000592,202.54651880000893,2,0,0.3087324000080116,202.34585870000592,None,None,None,False,None,None,None,None,None,None,None,None,None,None,None,None,,,,,,,,,,,,,,,,,,,,,,,,,,,,,,IA6LI11,1,Serial_COM3,C:\Users\EEG\Desktop\FINALCoScienceTasksLogfiles\,2022_Jan_05_1225,Flanker,2020.1.3,59.874933240324275,
HSS SSH,HSSSSSH,20,S,,,,,,,,,0,0,0,0,2,11,35,2,,,,,,,0.7999724817080384,203.85836420000123,None,4,,,,,,,,,,,,,124,120,127,203.48728450000635,203.59747120000247,203.58055620000232,203.7805931000039,4,1,0.23706330001004972,203.58055620000232,None,None,None,False,None,None,None,None,None,None,None,None,None,None,None,None,,,,,,,,,,,,,,,,,,,,,,,,,,,,,,IA6LI11,1,Serial_COM3,C:\Users\EEG\Desktop\FINALCoScienceTasksLogfiles\,2022_Jan_05_1225,Flanker,2020.1.3,59.874933240324275,
SSS SSS,SSSSSSS,30,S,,,,,,,,,0,0,0,0,3,0,36,4,,,,,,,0.7708801941788876,204.9591294999991,None,4,,,,,,,,,,,,,134,130,137,204.67195869999705,204.78391620000184,204.74799659999553,None,4,1,0.17250919999787584,204.74799659999553,None,None,None,False,None,None,None,None,None,None,None,None,None,None,None,None,,,,,,,,,,,,,,,,,,,,,,,,,,,,,,IA6LI11,1,Serial_COM3,C:\Users\EEG\Desktop\FINALCoScienceTasksLogfiles\,2022_Jan_05_1225,Flanker,2020.1.3,59.874933240324275,
SSS SSS,SSSSSSS,30,S,,,,,,,,,0,0,0,0,3,1,37,5,,,,,,,0.9868869173774033,206.11059979999845,None,4,,,,,,,,,,,,,134,130,137,205.7330884999974,205.8326636999991,205.8156716000085,206.0158950000041,4,1,0.2578009999997448,205.8156716000085,None,None,None,False,None,None,None,None,None,None,None,None,None,None,None,None,,,,,,,,,,,,,,,,,,,,,,,,,,,,,,IA6LI11,1,Serial_COM3,C:\Users\EEG\Desktop\FINALCoScienceTasksLogfiles\,2022_Jan_05_1225,Flanker,2020.1.3,59.874933240324275,
SSS SSS,SSSSSSS,30,S,,,,,,,,,0,0,0,0,3,2,38,3,,,,,,,0.9351029881173999,207.44482590000553,None,4,,,,,,,,,,,,,134,130,137,207.1003722000023,207.20047969999723,207.18355080000765,207.38365840000915,4,1,0.2278604000021005,207.18355080000765,None,None,None,False,None,None,None,None,None,None,None,None,None,None,None,None,,,,,,,,,,,,,,,,,,,,,,,,,,,,,,IA6LI11,1,Serial_COM3,C:\Users\EEG\Desktop\FINALCoScienceTasksLogfiles\,2022_Jan_05_1225,Flanker,2020.1.3,59.874933240324275,
HHS SHH,HHSSSHH,10,S,,,,,,,,,0,0,0,0,3,3,39,1,,,,,,,0.880478397339766,208.75887550000334,None,4,,,,,,,,,,,,,114,110,117,208.39262210000015,208.50380930000392,208.46828280000773,208.66840130000492,4,1,0.2551845000125468,208.46828280000773,None,None,None,False,None,None,None,None,None,None,None,None,None,None,None,None,,,,,,,,,,,,,,,,,,,,,,,,,,,,,,IA6LI11,1,Serial_COM3,C:\Users\EEG\Desktop\FINALCoScienceTasksLogfiles\,2022_Jan_05_1225,Flanker,2020.1.3,59.874933240324275,
SSS SSS,SSSHSSS,0,H,,,,,,,,,0,0,0,0,3,4,40,6,,,,,,,0.8442586041502259,209.98028160000104,None,2,,,,,,,,,,,,,104,100,109,209.6610698000004,209.7814606000029,209.73566380000557,209.9357527999964,4,0,0.2140956999937771,209.73566380000557,None,None,None,False,None,None,None,None,None,None,None,None,None,None,None,None,,,,,,,,,,,,,,,,,,,,,,,,,,,,,,IA6LI11,1,Serial_COM3,C:\Users\EEG\Desktop\FINALCoScienceTasksLogfiles\,2022_Jan_05_1225,Flanker,2020.1.3,59.874933240324275,
HHH HHH,HHHSHHH,0,S,,,,,,,,,0,0,0,0,3,5,41,0,,,,,,,0.9434203153605474,211.23114630000782,None,4,,,,,,,,,,,,,104,100,107,210.84394570000586,210.9535995000042,210.93664820000413,211.1366740000085,4,1,0.25377019999723416,210.93664820000413,None,None,None,False,None,None,None,None,None,None,None,None,None,None,None,None,,,,,,,,,,,,,,,,,,,,,,,,,,,,,,IA6LI11,1,Serial_COM3,C:\Users\EEG\Desktop\FINALCoScienceTasksLogfiles\,2022_Jan_05_1225,Flanker,2020.1.3,59.874933240324275,
SSS SSS,SSSHSSS,0,H,,,,,,,,,0,0,0,0,3,6,42,6,,,,,,,0.7935093855482899,212.55081080000673,None,2,,,,,,,,,,,,,104,100,109,212.19594720000168,212.30689180000627,212.271041400003,212.47130829999514,4,0,0.24440100000356324,212.271041400003,None,None,None,False,None,None,None,None,None,None,None,None,None,None,None,None,,,,,,,,,,,,,,,,,,,,,,,,,,,,,,IA6LI11,1,Serial_COM3,C:\Users\EEG\Desktop\FINALCoScienceTasksLogfiles\,2022_Jan_05_1225,Flanker,2020.1.3,59.874933240324275,
SSS SSS,SSSSSSS,30,S,,,,,,,,,0,0,0,0,3,7,43,5,,,,,,,0.9138751515174548,213.7593818000023,None,4,,,,,,,,,,,,,134,130,137,213.35742250000476,213.47469329999876,213.43872089999786,213.6389063999959,4,1,0.2930091999878641,213.43872089999786,None,None,None,False,None,None,None,None,None,None,None,None,None,None,None,None,,,,,,,,,,,,,,,,,,,,,,,,,,,,,,IA6LI11,1,Serial_COM3,C:\Users\EEG\Desktop\FINALCoScienceTasksLogfiles\,2022_Jan_05_1225,Flanker,2020.1.3,59.874933240324275,
HHH HHH,HHHHHHH,30,H,,,,,,,,,0,0,0,0,3,8,44,11,,,,,,,0.9893741458304309,215.0846229000017,None,2,,,,,,,,,,,,,134,130,137,214.68253600000753,214.79006810000283,214.77287600000273,214.97339719999582,2,1,0.2787788999994518,214.77287600000273,None,None,None,False,None,None,None,None,None,None,None,None,None,None,None,None,,,,,,,,,,,,,,,,,,,,,,,,,,,,,,IA6LI11,1,Serial_COM3,C:\Users\EEG\Desktop\FINALCoScienceTasksLogfiles\,2022_Jan_05_1225,Flanker,2020.1.3,59.874933240324275,
SSS SSS,SSSSSSS,30,S,,,,,,,,,0,0,0,0,3,9,45,4,,,,,,,0.7741078716007419,216.45207970000047,None,4,,,,,,,,,,,,,134,130,137,216.08177260000957,216.19353689999843,216.15743370000564,216.35785929999838,4,1,0.2532179999980144,216.15743370000564,None,None,None,False,None,None,None,None,None,None,None,None,None,None,None,None,,,,,,,,,,,,,,,,,,,,,,,,,,,,,,IA6LI11,1,Serial_COM3,C:\Users\EEG\Desktop\FINALCoScienceTasksLogfiles\,2022_Jan_05_1225,Flanker,2020.1.3,59.874933240324275,
SSS SSS,SSSSSSS,30,S,,,,,,,,,0,0,0,0,3,10,46,4,,,,,,,0.8346422921476289,217.61741520000214,None,4,,,,,,,,,,,,,134,130,137,217.22602230000484,217.32555110000249,217.3084760000056,217.50909000000684,4,1,0.27608300000429153,217.3084760000056,None,None,None,False,None,None,None,None,None,None,None,None,None,None,None,None,,,,,,,,,,,,,,,,,,,,,,,,,,,,,,IA6LI11,1,Serial_COM3,C:\Users\EEG\Desktop\FINALCoScienceTasksLogfiles\,2022_Jan_05_1225,Flanker,2020.1.3,59.874933240324275,
SSS SSS,SSSSSSS,30,S,,,,,,,,,0,0,0,0,3,11,47,5,,,,,,,0.8781580689421875,218.735574300008,None,4,,,,,,,,,,,,,134,130,137,218.459800800003,218.56026860000566,218.5426487000077,None,4,1,0.16583119999268092,218.5426487000077,None,None,None,False,None,None,None,None,None,None,None,None,None,None,None,None,,,,,,,,,,,,,,,,,,,,,,,,,,,,,,IA6LI11,1,Serial_COM3,C:\Users\EEG\Desktop\FINALCoScienceTasksLogfiles\,2022_Jan_05_1225,Flanker,2020.1.3,59.874933240324275,
HHH HHH,HHHHHHH,30,H,,,,,,,,,0,0,0,0,4,0,48,9,,,,,,,0.8510589697718683,219.87230390000332,None,2,,,,,,,,,,,,,134,130,139,219.62973509999574,219.74419840000337,219.72718790000363,None,4,0,0.11669960001017898,219.72718790000363,None,None,None,False,None,None,None,None,None,None,None,None,None,None,None,None,,,,,,,,,,,,,,,,,,,,,,,,,,,,,,IA6LI11,1,Serial_COM3,C:\Users\EEG\Desktop\FINALCoScienceTasksLogfiles\,2022_Jan_05_1225,Flanker,2020.1.3,59.874933240324275,
SHH HHS,SHHHHHS,20,H,,,,,,,,,0,0,0,0,4,1,49,8,,,,,,,0.9566930481215876,221.08981119999953,None,2,,,,,,,,,,,,,124,120,129,220.73552420000487,220.8451333999983,220.82824280000932,221.0286586000002,4,0,0.2335126000107266,220.82824280000932,None,None,None,False,None,None,None,None,None,None,None,None,None,None,None,None,,,,,,,,,,,,,,,,,,,,,,,,,,,,,,IA6LI11,1,Serial_COM3,C:\Users\EEG\Desktop\FINALCoScienceTasksLogfiles\,2022_Jan_05_1225,Flanker,2020.1.3,59.874933240324275,
HHH HHH,HHHHHHH,30,H,,,,,,,,,0,0,0,0,4,2,50,9,,,,,,,0.8594794980821822,222.49191870000504,None,2,,,,,,,,,,,,,134,130,137,222.05630640000163,222.16292210000393,222.14596530000563,222.34602080000332,2,1,0.3116355000092881,222.14596530000563,None,None,None,False,None,None,None,None,None,None,None,None,None,None,None,None,,,,,,,,,,,,,,,,,,,,,,,,,,,,,,IA6LI11,1,Serial_COM3,C:\Users\EEG\Desktop\FINALCoScienceTasksLogfiles\,2022_Jan_05_1225,Flanker,2020.1.3,59.874933240324275,
SSS SSS,SSSSSSS,30,S,,,,,,,,,0,0,0,0,4,3,51,5,,,,,,,0.8069772411128173,223.65838130000338,None,4,,,,,,,,,,,,,134,130,137,223.36633479999728,223.480661900001,223.46379080000042,None,4,1,0.16584190000139643,223.46379080000042,None,None,None,False,None,None,None,None,None,None,None,None,None,None,None,None,,,,,,,,,,,,,,,,,,,,,,,,,,,,,,IA6LI11,1,Serial_COM3,C:\Users\EEG\Desktop\FINALCoScienceTasksLogfiles\,2022_Jan_05_1225,Flanker,2020.1.3,59.874933240324275,
SHH HHS,SHHHHHS,20,H,,,,,,,,,0,0,0,0,4,4,52,8,,,,,,,0.8966370272780222,224.83932120000827,None,2,,,,,,,,,,,,,124,120,127,224.47149540000828,224.58187039999757,224.56485940000857,224.76474589999998,2,1,0.24694430000090506,224.56485940000857,None,None,None,False,None,None,None,None,None,None,None,None,None,None,None,None,,,,,,,,,,,,,,,,,,,,,,,,,,,,,,IA6LI11,1,Serial_COM3,C:\Users\EEG\Desktop\FINALCoScienceTasksLogfiles\,2022_Jan_05_1225,Flanker,2020.1.3,59.874933240324275,
HHH HHH,HHHHHHH,30,H,,,,,,,,,0,0,0,0,4,5,53,11,,,,,,,0.9667980804741196,226.15309059999709,None,2,,,,,,,,,,,,,134,130,137,225.756040200009,225.87848719999602,225.83192419999978,226.0325684999989,2,1,0.29700299999967683,225.83192419999978,None,None,None,False,None,None,None,None,None,None,None,None,None,None,None,None,,,,,,,,,,,,,,,,,,,,,,,,,,,,,,IA6LI11,1,Serial_COM3,C:\Users\EEG\Desktop\FINALCoScienceTasksLogfiles\,2022_Jan_05_1225,Flanker,2020.1.3,59.874933240324275,
HHS SHH,HHSSSHH,10,S,,,,,,,,,0,0,0,0,4,6,54,1,,,,,,,0.8008910170621124,227.5215090999991,None,4,,,,,,,,,,,,,114,110,117,227.13565660000313,227.25042080000276,227.2333753999992,227.43359119999513,4,1,0.2611438000021735,227.2333753999992,None,None,None,False,None,None,None,None,None,None,None,None,None,None,None,None,,,,,,,,,,,,,,,,,,,,,,,,,,,,,,IA6LI11,1,Serial_COM3,C:\Users\EEG\Desktop\FINALCoScienceTasksLogfiles\,2022_Jan_05_1225,Flanker,2020.1.3,59.874933240324275,
HHH HHH,HHHSHHH,0,S,,,,,,,,,0,0,0,0,4,7,55,0,,,,,,,0.9621505505954151,228.7127809000085,None,4,,,,,,,,,,,,,104,100,109,228.34335640000063,228.45339100000274,228.41774350000196,228.61790610000025,2,0,0.25674769999750424,228.41774350000196,None,None,None,False,None,None,None,None,None,None,None,None,None,None,None,None,,,,,,,,,,,,,,,,,,,,,,,,,,,,,,IA6LI11,1,Serial_COM3,C:\Users\EEG\Desktop\FINALCoScienceTasksLogfiles\,2022_Jan_05_1225,Flanker,2020.1.3,59.874933240324275,
HHS SHH,HHSSSHH,10,S,,,,,,,,,0,0,0,0,4,8,56,1,,,,,,,0.8164935149773463,231.17225329999928,None,4,,,,,,,,,,,,,114,110,116,229.69504170000437,229.80256320000626,229.78567720000865,229.9856723999983,4,1,0.3488276999996742,229.78567720000865,None,230.1602283999964,None,False,None,None,None,None,None,None,None,None,None,None,None,None,,,,,,,,,,,,,,,,,,,,,,,,,,,,,,IA6LI11,1,Serial_COM3,C:\Users\EEG\Desktop\FINALCoScienceTasksLogfiles\,2022_Jan_05_1225,Flanker,2020.1.3,59.874933240324275,
HSS SSH,HSSSSSH,20,S,,,,,,,,,0,0,0,0,4,9,57,2,,,,,,,0.7521782661842954,232.43225480000547,None,4,,,,,,,,,,,,,124,120,127,232.0140606000059,232.12116439999954,232.1041067000042,232.3043430999969,4,1,0.2865017999865813,232.1041067000042,None,None,None,False,None,None,None,None,None,None,None,None,None,None,None,None,,,,,,,,,,,,,,,,,,,,,,,,,,,,,,IA6LI11,1,Serial_COM3,C:\Users\EEG\Desktop\FINALCoScienceTasksLogfiles\,2022_Jan_05_1225,Flanker,2020.1.3,59.874933240324275,
HHH HHH,HHHHHHH,30,H,,,,,,,,,0,0,0,0,4,10,58,10,,,,,,,0.7878135384630842,233.63402730000962,None,2,,,,,,,,,,,,,134,130,137,233.19703650000156,233.30552130000433,233.2885787999985,233.4887391000084,2,1,0.3049103999946965,233.2885787999985,None,None,None,False,None,None,None,None,None,None,None,None,None,None,None,None,,,,,,,,,,,,,,,,,,,,,,,,,,,,,,IA6LI11,1,Serial_COM3,C:\Users\EEG\Desktop\FINALCoScienceTasksLogfiles\,2022_Jan_05_1225,Flanker,2020.1.3,59.874933240324275,
SHH HHS,SHHHHHS,20,H,,,,,,,,,0,0,0,0,4,11,59,8,,,,,,,0.8816714758086514,234.85050880000927,None,2,,,,,,,,,,,,,124,120,127,234.43273509999563,234.53987680000137,234.5230176000041,234.7230344999989,2,1,0.30062460000044666,234.5230176000041,None,None,None,False,None,None,None,None,None,None,None,None,None,None,None,None,,,,,,,,,,,,,,,,,,,,,,,,,,,,,,IA6LI11,1,Serial_COM3,C:\Users\EEG\Desktop\FINALCoScienceTasksLogfiles\,2022_Jan_05_1225,Flanker,2020.1.3,59.874933240324275,
SSS SSS,SSSSSSS,30,S,,,,,,,,,0,0,0,0,5,0,60,3,,,,,,,0.7893427902109276,236.08424280000327,None,4,,,,,,,,,,,,,134,130,137,235.74284410000837,235.85764020000352,235.84074329999567,236.04079630000342,4,1,0.2186675999982981,235.84074329999567,None,None,None,False,None,None,None,None,None,None,None,None,None,None,None,None,,,,,,,,,,,,,,,,,,,,,,,,,,,,,,IA6LI11,1,Serial_COM3,C:\Users\EEG\Desktop\FINALCoScienceTasksLogfiles\,2022_Jan_05_1225,Flanker,2020.1.3,59.874933240324275,
HHS SHH,HHSSSHH,10,S,,,,,,,,,0,0,0,0,5,1,61,1,,,,,,,0.7787119848077673,237.26190650000353,None,4,,,,,,,,,,,,,114,110,117,236.87742630000866,236.99190799999633,236.97497999999905,237.17519639999955,4,1,0.26046610000776127,236.97497999999905,None,None,None,False,None,None,None,None,None,None,None,None,None,None,None,None,,,,,,,,,,,,,,,,,,,,,,,,,,,,,,IA6LI11,1,Serial_COM3,C:\Users\EEG\Desktop\FINALCoScienceTasksLogfiles\,2022_Jan_05_1225,Flanker,2020.1.3,59.874933240324275,
SSS SSS,SSSHSSS,0,H,,,,,,,,,0,0,0,0,5,2,62,6,,,,,,,0.9836924841873799,238.40397470000607,None,2,,,,,,,,,,,,,104,100,109,238.0511017999961,238.16173900000285,238.1258678000013,238.3259817000071,4,0,0.24173519999021664,238.1258678000013,None,None,None,False,None,None,None,None,None,None,None,None,None,None,None,None,,,,,,,,,,,,,,,,,,,,,,,,,,,,,,IA6LI11,1,Serial_COM3,C:\Users\EEG\Desktop\FINALCoScienceTasksLogfiles\,2022_Jan_05_1225,Flanker,2020.1.3,59.874933240324275,
SSS SSS,SSSHSSS,0,H,,,,,,,,,0,0,0,0,5,3,63,6,,,,,,,0.9382086473506543,240.8637533000001,None,2,,,,,,,,,,,,,104,100,106,239.39392600000429,239.49406749999616,239.47694789999514,239.67719760000182,2,1,0.34905950000393204,239.47694789999514,None,239.85105230000045,None,False,None,None,None,None,None,None,None,None,None,None,None,None,,,,,,,,,,,,,,,,,,,,,,,,,,,,,,IA6LI11,1,Serial_COM3,C:\Users\EEG\Desktop\FINALCoScienceTasksLogfiles\,2022_Jan_05_1225,Flanker,2020.1.3,59.874933240324275,
HHH HHH,HHHHHHH,30,H,,,,,,,,,0,0,0,0,5,4,64,10,,,,,,,0.9808201429712466,242.18865880000521,None,2,,,,,,,,,,,,,134,130,137,241.82050660000823,241.92912780000188,241.91195950000838,242.11254840000765,2,1,0.23945569999341387,241.91195950000838,None,None,None,False,None,None,None,None,None,None,None,None,None,None,None,None,,,,,,,,,,,,,,,,,,,,,,,,,,,,,,IA6LI11,1,Serial_COM3,C:\Users\EEG\Desktop\FINALCoScienceTasksLogfiles\,2022_Jan_05_1225,Flanker,2020.1.3,59.874933240324275,
SSS SSS,SSSHSSS,0,H,,,,,,,,,0,0,0,0,5,5,65,6,,,,,,,0.9413617568079427,243.6240082000004,None,2,,,,,,,,,,,,,104,100,109,243.188968500006,243.29913970000052,243.26354490000813,243.46356299999752,4,0,0.3312307000014698,243.26354490000813,None,None,None,False,None,None,None,None,None,None,None,None,None,None,None,None,,,,,,,,,,,,,,,,,,,,,,,,,,,,,,IA6LI11,1,Serial_COM3,C:\Users\EEG\Desktop\FINALCoScienceTasksLogfiles\,2022_Jan_05_1225,Flanker,2020.1.3,59.874933240324275,
HHH HHH,HHHSHHH,0,S,,,,,,,,,0,0,0,0,5,6,66,0,,,,,,,0.9103384290296397,246.6839139000076,None,4,,,,,,,,,,,,,104,100,0,244.57311409999966,244.6816983000026,244.66473730000143,244.86489860000438,None,0,,244.66473730000143,None,245.67117630000575,None,False,None,None,None,None,None,None,None,None,None,None,None,None,,,,,,,,,,,,,,,,,,,,,,,,,,,,,,IA6LI11,1,Serial_COM3,C:\Users\EEG\Desktop\FINALCoScienceTasksLogfiles\,2022_Jan_05_1225,Flanker,2020.1.3,59.874933240324275,
HHH HHH,HHHHHHH,30,H,,,,,,,,,0,0,0,0,5,7,67,10,,,,,,,0.9560710435328139,249.09786779999558,None,2,,,,,,,,,,,,,134,130,136,247.60358799999813,247.71747250000772,247.7002336000005,247.9006001000089,2,1,0.33738050000101794,247.7002336000005,None,248.0807552000042,None,False,None,None,None,None,None,None,None,None,None,None,None,None,,,,,,,,,,,,,,,,,,,,,,,,,,,,,,IA6LI11,1,Serial_COM3,C:\Users\EEG\Desktop\FINALCoScienceTasksLogfiles\,2022_Jan_05_1225,Flanker,2020.1.3,59.874933240324275,
SHH HHS,SHHHHHS,20,H,,,,,,,,,0,0,0,0,5,8,68,8,,,,,,,0.9699510781997913,250.44130220000807,None,2,,,,,,,,,,,,,124,120,127,250.07146200000716,250.1861929000006,250.1692466000095,250.36894329999632,2,1,0.2361620000010589,250.1692466000095,None,None,None,False,None,None,None,None,None,None,None,None,None,None,None,None,,,,,,,,,,,,,,,,,,,,,,,,,,,,,,IA6LI11,1,Serial_COM3,C:\Users\EEG\Desktop\FINALCoScienceTasksLogfiles\,2022_Jan_05_1225,Flanker,2020.1.3,59.874933240324275,
HHH HHH,HHHSHHH,0,S,,,,,,,,,0,0,0,0,5,9,69,0,,,,,,,0.763943598653219,251.80805710000277,None,4,,,,,,,,,,,,,104,100,109,251.42713820000063,251.53730820000055,251.52041979999922,251.72041969999555,2,0,0.265270200005034,251.52041979999922,None,None,None,False,None,None,None,None,None,None,None,None,None,None,None,None,,,,,,,,,,,,,,,,,,,,,,,,,,,,,,IA6LI11,1,Serial_COM3,C:\Users\EEG\Desktop\FINALCoScienceTasksLogfiles\,2022_Jan_05_1225,Flanker,2020.1.3,59.874933240324275,
SHH HHS,SHHHHHS,20,H,,,,,,,,,0,0,0,0,5,10,70,8,,,,,,,0.8856348415589105,254.14142600000196,None,2,,,,,,,,,,,,,124,120,126,252.57894849999866,252.68824260000838,252.67138250000426,252.87141720000363,2,1,0.42725110000174027,252.67138250000426,None,253.13539039999887,None,False,None,None,None,None,None,None,None,None,None,None,None,None,,,,,,,,,,,,,,,,,,,,,,,,,,,,,,IA6LI11,1,Serial_COM3,C:\Users\EEG\Desktop\FINALCoScienceTasksLogfiles\,2022_Jan_05_1225,Flanker,2020.1.3,59.874933240324275,
HSS SSH,HSSSSSH,20,S,,,,,,,,,0,0,0,0,5,11,71,2,,,,,,,0.9809678279435036,256.54295020000427,None,4,,,,,,,,,,,,,124,120,126,255.0468441999983,255.15690060000634,255.1399659000017,255.3400920999993,4,1,0.36579290000372566,255.1399659000017,None,255.53127920000406,None,False,None,None,None,None,None,None,None,None,None,None,None,None,,,,,,,,,,,,,,,,,,,,,,,,,,,,,,IA6LI11,1,Serial_COM3,C:\Users\EEG\Desktop\FINALCoScienceTasksLogfiles\,2022_Jan_05_1225,Flanker,2020.1.3,59.874933240324275,
SSH HSS,SSHHHSS,10,H,,,,,,,,,0,0,0,0,6,0,72,7,,,,,,,0.9772744590217679,259.64438150000933,None,2,,,,,,,,,,,,,114,110,0,257.532030900009,257.6422004000051,257.6250795000087,257.8256240000046,None,0,,257.6250795000087,None,258.63143530000525,None,False,None,None,None,None,None,None,None,None,None,None,None,None,,,,,,,,,,,,,,,,,,,,,,,,,,,,,,IA6LI11,1,Serial_COM3,C:\Users\EEG\Desktop\FINALCoScienceTasksLogfiles\,2022_Jan_05_1225,Flanker,2020.1.3,59.874933240324275,
HHH HHH,HHHSHHH,0,S,,,,,,,,,0,0,0,0,6,1,73,0,,,,,,,0.8111682272793032,262.73158330000297,None,4,,,,,,,,,,,,,104,100,0,260.6355332000094,260.74714780000795,260.7114004000032,260.9117145000055,None,0,,260.7114004000032,None,261.7207919000066,None,False,None,None,None,None,None,None,None,None,None,None,None,None,,,,,,,,,,,,,,,,,,,,,,,,,,,,,,IA6LI11,1,Serial_COM3,C:\Users\EEG\Desktop\FINALCoScienceTasksLogfiles\,2022_Jan_05_1225,Flanker,2020.1.3,59.874933240324275,
HHH HHH,HHHHHHH,30,H,,,,,,,,,0,0,0,0,6,2,74,9,,,,,,,0.9689903612455737,263.9400195000053,None,2,,,,,,,,,,,,,134,130,139,263.5493789000029,263.6641430000018,263.6470299000066,263.84734449999814,4,0,0.25762410000606906,263.6470299000066,None,None,None,False,None,None,None,None,None,None,None,None,None,None,None,None,,,,,,,,,,,,,,,,,,,,,,,,,,,,,,IA6LI11,1,Serial_COM3,C:\Users\EEG\Desktop\FINALCoScienceTasksLogfiles\,2022_Jan_05_1225,Flanker,2020.1.3,59.874933240324275,
HHH HHH,HHHHHHH,30,H,,,,,,,,,0,0,0,0,6,3,75,11,,,,,,,0.8075178952610118,266.41817220000667,None,2,,,,,,,,,,,,,134,130,136,264.91519709999557,265.0151762000023,264.9981647000095,265.19833810000273,2,1,0.3816147000034107,264.9981647000095,None,265.4061914000049,None,False,None,None,None,None,None,None,None,None,None,None,None,None,,,,,,,,,,,,,,,,,,,,,,,,,,,,,,IA6LI11,1,Serial_COM3,C:\Users\EEG\Desktop\FINALCoScienceTasksLogfiles\,2022_Jan_05_1225,Flanker,2020.1.3,59.874933240324275,
HSS SSH,HSSSSSH,20,S,,,,,,,,,0,0,0,0,6,4,76,2,,,,,,,0.8438466340813149,268.7199372000032,None,4,,,,,,,,,,,,,124,120,128,267.23651830000745,267.3504385999986,267.3335572000069,267.5336798000062,2,0,0.34823669999605045,267.3335572000069,None,267.71340029999556,None,False,None,None,None,None,None,None,None,None,None,None,None,None,,,,,,,,,,,,,,,,,,,,,,,,,,,,,,IA6LI11,1,Serial_COM3,C:\Users\EEG\Desktop\FINALCoScienceTasksLogfiles\,2022_Jan_05_1225,Flanker,2020.1.3,59.874933240324275,
SSS SSS,SSSSSSS,30,S,,,,,,,,,0,0,0,0,6,5,77,4,,,,,,,0.8043770166829902,269.9966784999997,None,4,,,,,,,,,,,,,134,130,137,269.57115210000484,269.68587610000395,269.6688070999953,269.8692160000064,4,1,0.30007490000571124,269.6688070999953,None,None,None,False,None,None,None,None,None,None,None,None,None,None,None,None,,,,,,,,,,,,,,,,,,,,,,,,,,,,,,IA6LI11,1,Serial_COM3,C:\Users\EEG\Desktop\FINALCoScienceTasksLogfiles\,2022_Jan_05_1225,Flanker,2020.1.3,59.874933240324275,
SHH HHS,SHHHHHS,20,H,,,,,,,,,0,0,0,0,6,6,78,8,,,,,,,0.7796063322905161,271.19829949999985,None,2,,,,,,,,,,,,,124,120,127,270.8134427000041,270.92012579999573,270.90305409999564,271.10322859999724,2,1,0.2647027000057278,270.90305409999564,None,None,None,False,None,None,None,None,None,None,None,None,None,None,None,None,,,,,,,,,,,,,,,,,,,,,,,,,,,,,,IA6LI11,1,Serial_COM3,C:\Users\EEG\Desktop\FINALCoScienceTasksLogfiles\,2022_Jan_05_1225,Flanker,2020.1.3,59.874933240324275,
HHS SHH,HHSSSHH,10,S,,,,,,,,,0,0,0,0,6,7,79,1,,,,,,,0.816591999394274,272.3485917000071,None,4,,,,,,,,,,,,,114,110,117,271.9896163000085,272.10438499999873,272.08735460000753,272.287679800007,4,1,0.2251756000041496,272.08735460000753,None,None,None,False,None,None,None,None,None,None,None,None,None,None,None,None,,,,,,,,,,,,,,,,,,,,,,,,,,,,,,IA6LI11,1,Serial_COM3,C:\Users\EEG\Desktop\FINALCoScienceTasksLogfiles\,2022_Jan_05_1225,Flanker,2020.1.3,59.874933240324275,
HHH HHH,HHHHHHH,30,H,,,,,,,,,0,0,0,0,6,8,80,10,,,,,,,0.9723010358413036,273.46415670000715,None,2,,,,,,,,,,,,,134,130,137,273.17961330000253,273.29068580000603,273.2547812999983,None,2,1,0.18090720000327565,273.2547812999983,None,None,None,False,None,None,None,None,None,None,None,None,None,None,None,None,,,,,,,,,,,,,,,,,,,,,,,,,,,,,,IA6LI11,1,Serial_COM3,C:\Users\EEG\Desktop\FINALCoScienceTasksLogfiles\,2022_Jan_05_1225,Flanker,2020.1.3,59.874933240324275,
HSS SSH,HSSSSSH,20,S,,,,,,,,,0,0,0,0,6,9,81,2,,,,,,,0.7909162140777729,274.70194840000477,None,4,,,,,,,,,,,,,124,120,127,274.4468557000073,274.5564086000086,274.53961989999516,None,4,1,0.13334040000336245,274.53961989999516,None,None,None,False,None,None,None,None,None,None,None,None,None,None,None,None,,,,,,,,,,,,,,,,,,,,,,,,,,,,,,IA6LI11,1,Serial_COM3,C:\Users\EEG\Desktop\FINALCoScienceTasksLogfiles\,2022_Jan_05_1225,Flanker,2020.1.3,59.874933240324275,
HHH HHH,HHHHHHH,30,H,,,,,,,,,0,0,0,0,6,10,82,9,,,,,,,0.8926611693091528,275.88391469999624,None,2,,,,,,,,,,,,,134,130,137,275.5143604000041,275.6239654999954,275.607073200008,275.80708949999826,2,1,0.24606290001247544,275.607073200008,None,None,None,False,None,None,None,None,None,None,None,None,None,None,None,None,,,,,,,,,,,,,,,,,,,,,,,,,,,,,,IA6LI11,1,Serial_COM3,C:\Users\EEG\Desktop\FINALCoScienceTasksLogfiles\,2022_Jan_05_1225,Flanker,2020.1.3,59.874933240324275,
HHH HHH,HHHSHHH,0,S,,,,,,,,,0,0,0,0,6,11,83,0,,,,,,,0.9506176399516921,277.08531819999916,None,4,,,,,,,,,,,,,104,100,107,276.79129409999587,276.89175180000893,276.87466960000165,None,4,1,0.17583530000410974,276.87466960000165,None,None,None,False,None,None,None,None,None,None,None,None,None,None,None,None,,,,,,,,,,,,,,,,,,,,,,,,,,,,,,IA6LI11,1,Serial_COM3,C:\Users\EEG\Desktop\FINALCoScienceTasksLogfiles\,2022_Jan_05_1225,Flanker,2020.1.3,59.874933240324275,
HHH HHH,HHHSHHH,0,S,,,,,,,,,0,0,0,0,7,0,84,0,,,,,,,0.8136381693112966,278.3042489000072,None,4,,,,,,,,,,,,,104,100,109,278.0427146000002,278.1427958999993,278.12588200000755,None,2,0,0.136679200004437,278.12588200000755,None,None,None,False,None,None,None,None,None,None,None,None,None,None,None,None,,,,,,,,,,,,,,,,,,,,,,,,,,,,,,IA6LI11,1,Serial_COM3,C:\Users\EEG\Desktop\FINALCoScienceTasksLogfiles\,2022_Jan_05_1225,Flanker,2020.1.3,59.874933240324275,
HHH HHH,HHHHHHH,30,H,,,,,,,,,0,0,0,0,7,1,85,10,,,,,,,0.924398412009459,280.6632399000082,None,2,,,,,,,,,,,,,134,130,136,279.12927020000643,279.24368690000847,279.2267187999969,279.4268161000073,2,1,0.40023159999691416,279.2267187999969,None,279.6522086000041,None,False,None,None,None,None,None,None,None,None,None,None,None,None,,,,,,,,,,,,,,,,,,,,,,,,,,,,,,IA6LI11,1,Serial_COM3,C:\Users\EEG\Desktop\FINALCoScienceTasksLogfiles\,2022_Jan_05_1225,Flanker,2020.1.3,59.874933240324275,
SSS SSS,SSSSSSS,30,S,,,,,,,,,0,0,0,0,7,2,86,5,,,,,,,0.8462048364012733,282.01920229999814,None,4,,,,,,,,,,,,,134,130,137,281.6036660999962,281.712491600003,281.69519389999914,281.8957384999958,4,1,0.2932978000026196,281.69519389999914,None,None,None,False,None,None,None,None,None,None,None,None,None,None,None,None,,,,,,,,,,,,,,,,,,,,,,,,,,,,,,IA6LI11,1,Serial_COM3,C:\Users\EEG\Desktop\FINALCoScienceTasksLogfiles\,2022_Jan_05_1225,Flanker,2020.1.3,59.874933240324275,
HHH HHH,HHHHHHH,30,H,,,,,,,,,0,0,0,0,7,3,87,9,,,,,,,0.7721844879649508,283.28991150000365,None,2,,,,,,,,,,,,,134,130,137,282.8824339999992,282.9972201000055,282.9799023000087,283.1803063999978,2,1,0.28007910000451375,282.9799023000087,None,None,None,False,None,None,None,None,None,None,None,None,None,None,None,None,,,,,,,,,,,,,,,,,,,,,,,,,,,,,,IA6LI11,1,Serial_COM3,C:\Users\EEG\Desktop\FINALCoScienceTasksLogfiles\,2022_Jan_05_1225,Flanker,2020.1.3,59.874933240324275,
HHH HHH,HHHHHHH,30,H,,,,,,,,,0,0,0,0,7,4,88,9,,,,,,,0.9439185958801446,284.44035930000246,None,2,,,,,,,,,,,,,134,130,139,284.06443830000353,284.16444940000656,284.14741279999726,284.3472322000016,4,0,0.25715910000144504,284.14741279999726,None,None,None,False,None,None,None,None,None,None,None,None,None,None,None,None,,,,,,,,,,,,,,,,,,,,,,,,,,,,,,IA6LI11,1,Serial_COM3,C:\Users\EEG\Desktop\FINALCoScienceTasksLogfiles\,2022_Jan_05_1225,Flanker,2020.1.3,59.874933240324275,
HHH HHH,HHHHHHH,30,H,,,,,,,,,0,0,0,0,7,5,89,11,,,,,,,0.7714113970770744,285.84003030000895,None,2,,,,,,,,,,,,,134,130,137,285.39883720000216,285.49895310000284,285.48187580000376,285.6821357000008,2,1,0.3235831999918446,285.48187580000376,None,None,None,False,None,None,None,None,None,None,None,None,None,None,None,None,,,,,,,,,,,,,,,,,,,,,,,,,,,,,,IA6LI11,1,Serial_COM3,C:\Users\EEG\Desktop\FINALCoScienceTasksLogfiles\,2022_Jan_05_1225,Flanker,2020.1.3,59.874933240324275,
HSS SSH,HSSSSSH,20,S,,,,,,,,,0,0,0,0,7,6,90,2,,,,,,,0.9162682297183581,286.98646080000617,None,4,,,,,,,,,,,,,124,120,127,286.62369140000374,286.73520209999697,286.69935870000336,286.89984870000626,4,1,0.2656643000082113,286.69935870000336,None,None,None,False,None,None,None,None,None,None,None,None,None,None,None,None,,,,,,,,,,,,,,,,,,,,,,,,,,,,,,IA6LI11,1,Serial_COM3,C:\Users\EEG\Desktop\FINALCoScienceTasksLogfiles\,2022_Jan_05_1225,Flanker,2020.1.3,59.874933240324275,
HSS SSH,HSSSSSH,20,S,,,,,,,,,0,0,0,0,7,7,91,2,,,,,,,0.9543479887036347,288.27064750000136,None,4,,,,,,,,,,,,,124,120,129,287.9181138999993,288.0176516000065,288.0006774000067,288.20078349999676,2,0,0.2480234999966342,288.0006774000067,None,None,None,False,None,None,None,None,None,None,None,None,None,None,None,None,,,,,,,,,,,,,,,,,,,,,,,,,,,,,,IA6LI11,1,Serial_COM3,C:\Users\EEG\Desktop\FINALCoScienceTasksLogfiles\,2022_Jan_05_1225,Flanker,2020.1.3,59.874933240324275,
SSS SSS,SSSHSSS,0,H,,,,,,,,,0,0,0,0,7,8,92,6,,,,,,,0.8914288090398365,289.6293805000023,None,2,,,,,,,,,,,,,104,100,109,289.24411130000954,289.3520297000068,289.33504200000607,289.535168900009,4,0,0.2524091000086628,289.33504200000607,None,None,None,False,None,None,None,None,None,None,None,None,None,None,None,None,,,,,,,,,,,,,,,,,,,,,,,,,,,,,,IA6LI11,1,Serial_COM3,C:\Users\EEG\Desktop\FINALCoScienceTasksLogfiles\,2022_Jan_05_1225,Flanker,2020.1.3,59.874933240324275,
HHH HHH,HHHHHHH,30,H,,,,,,,,,0,0,0,0,7,9,93,10,,,,,,,0.8431913163029804,290.92210599999817,None,2,,,,,,,,,,,,,134,130,139,290.5437927000021,290.6531733000011,290.63619400000607,290.83625700000266,4,0,0.256362000000081,290.63619400000607,None,None,None,False,None,None,None,None,None,None,None,None,None,None,None,None,,,,,,,,,,,,,,,,,,,,,,,,,,,,,,IA6LI11,1,Serial_COM3,C:\Users\EEG\Desktop\FINALCoScienceTasksLogfiles\,2022_Jan_05_1225,Flanker,2020.1.3,59.874933240324275,
SSS SSS,SSSSSSS,30,S,,,,,,,,,0,0,0,0,7,10,94,5,,,,,,,0.763471457424097,292.2154375999962,None,4,,,,,,,,,,,,,134,130,137,291.7796703000058,291.8875623000058,291.8708607000008,292.0707240000047,4,1,0.30993950000265613,291.8708607000008,None,None,None,False,None,None,None,None,None,None,None,None,None,None,None,None,,,,,,,,,,,,,,,,,,,,,,,,,,,,,,IA6LI11,1,Serial_COM3,C:\Users\EEG\Desktop\FINALCoScienceTasksLogfiles\,2022_Jan_05_1225,Flanker,2020.1.3,59.874933240324275,
HHS SHH,HHSSSHH,10,S,,,,,,,,,0,0,0,0,7,11,95,1,,,,,,,0.8947498040099269,321.01141920000373,None,4,,,,,,,,,,,,,114,110,117,292.9953259000031,293.1052478000056,293.08824510000704,293.2883662000095,4,1,0.31121789998724125,293.08824510000704,None,None,None,False,None,None,None,None,None,293.431027300001,None,space,295.4234776000085,None,320.8980836999981,None,25.455334199999925,,,,,,,,,,,,,,,,,,,,,,,,,,,,,IA6LI11,1,Serial_COM3,C:\Users\EEG\Desktop\FINALCoScienceTasksLogfiles\,2022_Jan_05_1225,Flanker,2020.1.3,59.874933240324275,
SSS SSS,SSSHSSS,0,H,,,,,,,,,0,0,0,0,8,0,96,6,,,,,,,0.9974966915064337,323.5821602000069,None,2,,,,,,,,,,,,,104,100,106,321.92054330000246,322.03109699999914,321.99567350000143,322.1957867000019,2,1,0.5500871000112966,321.99567350000143,None,322.5751941000053,None,False,None,None,None,None,None,None,None,None,None,None,None,None,,,,,,,,,,,,,,,,,,,,,,,,,,,,,,IA6LI11,1,Serial_COM3,C:\Users\EEG\Desktop\FINALCoScienceTasksLogfiles\,2022_Jan_05_1225,Flanker,2020.1.3,59.874933240324275,
SHH HHS,SHHHHHS,20,H,,,,,,,,,0,0,0,0,8,1,97,8,,,,,,,0.8169164620881564,326.10139690000506,None,2,,,,,,,,,,,,,124,120,126,324.5886635000061,324.69813160000194,324.68110450000677,324.8812887999957,2,1,0.3838513999944553,324.68110450000677,None,325.0901404000033,None,False,None,None,None,None,None,None,None,None,None,None,None,None,,,,,,,,,,,,,,,,,,,,,,,,,,,,,,IA6LI11,1,Serial_COM3,C:\Users\EEG\Desktop\FINALCoScienceTasksLogfiles\,2022_Jan_05_1225,Flanker,2020.1.3,59.874933240324275,
HHH HHH,HHHSHHH,0,S,,,,,,,,,0,0,0,0,8,2,98,0,,,,,,,0.7823139622144606,327.3281871000072,None,4,,,,,,,,,,,,,104,100,109,326.94300369999837,327.05012450000504,327.03297709999606,327.2332757999975,2,0,0.26159529999131337,327.03297709999606,None,None,None,False,None,None,None,None,None,None,None,None,None,None,None,None,,,,,,,,,,,,,,,,,,,,,,,,,,,,,,IA6LI11,1,Serial_COM3,C:\Users\EEG\Desktop\FINALCoScienceTasksLogfiles\,2022_Jan_05_1225,Flanker,2020.1.3,59.874933240324275,
HHH HHH,HHHHHHH,30,H,,,,,,,,,0,0,0,0,8,3,99,10,,,,,,,0.9849099911343038,329.6543309999979,None,2,,,,,,,,,,,,,134,130,136,328.1195024000044,328.2343408000015,328.217344100005,328.4179121000052,2,1,0.3954065999860177,328.217344100005,None,328.64189640000404,None,False,None,None,None,None,None,None,None,None,None,None,None,None,,,,,,,,,,,,,,,,,,,,,,,,,,,,,,IA6LI11,1,Serial_COM3,C:\Users\EEG\Desktop\FINALCoScienceTasksLogfiles\,2022_Jan_05_1225,Flanker,2020.1.3,59.874933240324275,
SHH HHS,SHHHHHS,20,H,,,,,,,,,0,0,0,0,8,4,100,8,,,,,,,0.7915881906105807,331.06413660000544,None,2,,,,,,,,,,,,,124,120,127,330.6601840000076,330.7717372000043,330.7364368999988,330.9362983000028,2,1,0.3001539000106277,330.7364368999988,None,None,None,False,None,None,None,None,None,None,None,None,None,None,None,None,,,,,,,,,,,,,,,,,,,,,,,,,,,,,,IA6LI11,1,Serial_COM3,C:\Users\EEG\Desktop\FINALCoScienceTasksLogfiles\,2022_Jan_05_1225,Flanker,2020.1.3,59.874933240324275,
HHS SHH,HHSSSHH,10,S,,,,,,,,,0,0,0,0,8,5,101,1,,,,,,,0.8596408610697118,332.240526900001,None,4,,,,,,,,,,,,,114,110,117,331.8733362000057,331.9873746000085,331.9704136000073,332.1707918000029,4,1,0.23707290001038928,331.9704136000073,None,None,None,False,None,None,None,None,None,None,None,None,None,None,None,None,,,,,,,,,,,,,,,,,,,,,,,,,,,,,,IA6LI11,1,Serial_COM3,C:\Users\EEG\Desktop\FINALCoScienceTasksLogfiles\,2022_Jan_05_1225,Flanker,2020.1.3,59.874933240324275,
HHH HHH,HHHHHHH,30,H,,,,,,,,,0,0,0,0,8,6,102,11,,,,,,,0.9810851261819749,333.5089733000059,None,2,,,,,,,,,,,,,134,130,137,333.1142547000054,333.2219449999975,333.20487670000875,333.4050147000089,2,1,0.2791527999943355,333.20487670000875,None,None,None,False,None,None,None,None,None,None,None,None,None,None,None,None,,,,,,,,,,,,,,,,,,,,,,,,,,,,,,IA6LI11,1,Serial_COM3,C:\Users\EEG\Desktop\FINALCoScienceTasksLogfiles\,2022_Jan_05_1225,Flanker,2020.1.3,59.874933240324275,
HHH HHH,HHHHHHH,30,H,,,,,,,,,0,0,0,0,8,7,103,11,,,,,,,0.9058108011979196,334.85997930000303,None,2,,,,,,,,,,,,,134,130,139,334.48959140000807,334.58970680000493,334.57267979999597,334.7728214999952,4,0,0.25481159999617375,334.57267979999597,None,None,None,False,None,None,None,None,None,None,None,None,None,None,None,None,,,,,,,,,,,,,,,,,,,,,,,,,,,,,,IA6LI11,1,Serial_COM3,C:\Users\EEG\Desktop\FINALCoScienceTasksLogfiles\,2022_Jan_05_1225,Flanker,2020.1.3,59.874933240324275,
SSH HSS,SSHHHSS,10,H,,,,,,,,,0,0,0,0,8,8,104,7,,,,,,,0.7867140161845942,336.18582559999777,None,2,,,,,,,,,,,,,114,110,117,335.78120579999813,335.8927521000005,335.85719219999737,336.0572339000064,2,1,0.30131229999824427,335.85719219999737,None,None,None,False,None,None,None,None,None,None,None,None,None,None,None,None,,,,,,,,,,,,,,,,,,,,,,,,,,,,,,IA6LI11,1,Serial_COM3,C:\Users\EEG\Desktop\FINALCoScienceTasksLogfiles\,2022_Jan_05_1225,Flanker,2020.1.3,59.874933240324275,
HSS SSH,HSSSSSH,20,S,,,,,,,,,0,0,0,0,8,9,105,2,,,,,,,0.8917442782436881,337.4189979000075,None,4,,,,,,,,,,,,,124,120,127,336.9832912999991,337.09179750000476,337.0747599000024,337.27502300000924,4,1,0.30784249999851454,337.0747599000024,None,None,None,False,None,None,None,None,None,None,None,None,None,None,None,None,,,,,,,,,,,,,,,,,,,,,,,,,,,,,,IA6LI11,1,Serial_COM3,C:\Users\EEG\Desktop\FINALCoScienceTasksLogfiles\,2022_Jan_05_1225,Flanker,2020.1.3,59.874933240324275,
HSS SSH,HSSSSSH,20,S,,,,,,,,,0,0,0,0,8,10,106,2,,,,,,,0.8934599853055423,338.6712495999964,None,4,,,,,,,,,,,,,124,120,129,338.3261246000038,338.426206300006,338.4091950000002,338.60935939999763,2,0,0.23377110000001267,338.4091950000002,None,None,None,False,None,None,None,None,None,None,None,None,None,None,None,None,,,,,,,,,,,,,,,,,,,,,,,,,,,,,,IA6LI11,1,Serial_COM3,C:\Users\EEG\Desktop\FINALCoScienceTasksLogfiles\,2022_Jan_05_1225,Flanker,2020.1.3,59.874933240324275,
HHH HHH,HHHHHHH,30,H,,,,,,,,,0,0,0,0,8,11,107,11,,,,,,,0.8893548595095244,340.0056847000087,None,2,,,,,,,,,,,,,134,130,137,339.58703680000326,339.6939318000077,339.6769612000062,339.8770823000086,2,1,0.29982279999239836,339.6769612000062,None,None,None,False,None,None,None,None,None,None,None,None,None,None,None,None,,,,,,,,,,,,,,,,,,,,,,,,,,,,,,IA6LI11,1,Serial_COM3,C:\Users\EEG\Desktop\FINALCoScienceTasksLogfiles\,2022_Jan_05_1225,Flanker,2020.1.3,59.874933240324275,
HHH HHH,HHHHHHH,30,H,,,,,,,,,0,0,0,0,9,0,108,10,,,,,,,0.91958038690325,342.36454599999706,None,2,,,,,,,,,,,,,134,130,136,340.8953360000014,340.99499230000947,340.9780013999989,341.17815400000836,2,1,0.3478056000021752,340.9780013999989,None,341.356864100002,None,False,None,None,None,None,None,None,None,None,None,None,None,None,,,,,,,,,,,,,,,,,,,,,,,,,,,,,,IA6LI11,1,Serial_COM3,C:\Users\EEG\Desktop\FINALCoScienceTasksLogfiles\,2022_Jan_05_1225,Flanker,2020.1.3,59.874933240324275,
HHS SHH,HHSSSHH,10,S,,,,,,,,,0,0,0,0,9,1,109,1,,,,,,,0.9698587329778781,344.8160988000018,None,4,,,,,,,,,,,,,114,110,116,343.29902059999586,343.4136310000031,343.3966306000075,343.5968258000066,4,1,0.3700250999972923,343.3966306000075,None,343.8090158999985,None,False,None,None,None,None,None,None,None,None,None,None,None,None,,,,,,,,,,,,,,,,,,,,,,,,,,,,,,IA6LI11,1,Serial_COM3,C:\Users\EEG\Desktop\FINALCoScienceTasksLogfiles\,2022_Jan_05_1225,Flanker,2020.1.3,59.874933240324275,
SHH HHS,SHHHHHS,20,H,,,,,,,,,0,0,0,0,9,2,110,8,,,,,,,0.9371994056092431,347.2849733000039,None,2,,,,,,,,,,,,,124,120,126,345.81022230000235,345.9158272000059,345.89889520000725,346.09904339999775,2,1,0.3428057999990415,345.89889520000725,None,346.27251350000734,None,False,None,None,None,None,None,None,None,None,None,None,None,None,,,,,,,,,,,,,,,,,,,,,,,,,,,,,,IA6LI11,1,Serial_COM3,C:\Users\EEG\Desktop\FINALCoScienceTasksLogfiles\,2022_Jan_05_1225,Flanker,2020.1.3,59.874933240324275,
HHH HHH,HHHHHHH,30,H,,,,,,,,,0,0,0,0,9,3,111,11,,,,,,,0.9788256403200251,348.6959530000022,None,2,,,,,,,,,,,,,134,130,137,348.23656279999705,348.35116500000004,348.3342505000037,348.5342316000024,2,1,0.3263628999993671,348.3342505000037,None,None,None,False,None,None,None,None,None,None,None,None,None,None,None,None,,,,,,,,,,,,,,,,,,,,,,,,,,,,,,IA6LI11,1,Serial_COM3,C:\Users\EEG\Desktop\FINALCoScienceTasksLogfiles\,2022_Jan_05_1225,Flanker,2020.1.3,59.874933240324275,
SSS SSS,SSSSSSS,30,S,,,,,,,,,0,0,0,0,9,4,112,5,,,,,,,0.8086628539102008,350.0554212999996,None,4,,,,,,,,,,,,,134,130,137,349.6956719000009,349.80233299999963,349.7852236000035,349.98548859999573,4,1,0.23752780001086649,349.7852236000035,None,None,None,False,None,None,None,None,None,None,None,None,None,None,None,None,,,,,,,,,,,,,,,,,,,,,,,,,,,,,,IA6LI11,1,Serial_COM3,C:\Users\EEG\Desktop\FINALCoScienceTasksLogfiles\,2022_Jan_05_1225,Flanker,2020.1.3,59.874933240324275,
HHH HHH,HHHHHHH,30,H,,,,,,,,,0,0,0,0,9,5,113,11,,,,,,,0.8460075624021217,351.2949268000084,None,2,,,,,,,,,,,,,134,130,137,350.87725620000856,350.9885900000081,350.9528682999953,351.15312950000225,2,1,0.30381510000734124,350.9528682999953,None,None,None,False,None,None,None,None,None,None,None,None,None,None,None,None,,,,,,,,,,,,,,,,,,,,,,,,,,,,,,IA6LI11,1,Serial_COM3,C:\Users\EEG\Desktop\FINALCoScienceTasksLogfiles\,2022_Jan_05_1225,Flanker,2020.1.3,59.874933240324275,
HHH HHH,HHHHHHH,30,H,,,,,,,,,0,0,0,0,9,6,114,10,,,,,,,0.849560458159657,353.6411389999994,None,2,,,,,,,,,,,,,134,130,136,352.1543871000031,352.25455900000816,352.23736060000374,352.43761160000577,2,1,0.3672115999943344,352.23736060000374,None,352.62928540000576,None,False,None,None,None,None,None,None,None,None,None,None,None,None,,,,,,,,,,,,,,,,,,,,,,,,,,,,,,IA6LI11,1,Serial_COM3,C:\Users\EEG\Desktop\FINALCoScienceTasksLogfiles\,2022_Jan_05_1225,Flanker,2020.1.3,59.874933240324275,
HHH HHH,HHHSHHH,0,S,,,,,,,,,0,0,0,0,9,7,115,0,,,,,,,0.8863724990181765,354.9178649000096,None,4,,,,,,,,,,,,,104,100,109,354.50809489999665,354.62320070000715,354.6063622000074,354.80625960000907,2,0,0.27018419999512844,354.6063622000074,None,None,None,False,None,None,None,None,None,None,None,None,None,None,None,None,,,,,,,,,,,,,,,,,,,,,,,,,,,,,,IA6LI11,1,Serial_COM3,C:\Users\EEG\Desktop\FINALCoScienceTasksLogfiles\,2022_Jan_05_1225,Flanker,2020.1.3,59.874933240324275,
SSS SSS,SSSSSSS,30,S,,,,,,,,,0,0,0,0,9,8,116,5,,,,,,,0.8234731934033512,356.24333290000504,None,4,,,,,,,,,,,,,134,130,137,355.814338199998,355.92421060000197,355.90705570000864,356.10751699999673,4,1,0.30848939999123104,355.90705570000864,None,None,None,False,None,None,None,None,None,None,None,None,None,None,None,None,,,,,,,,,,,,,,,,,,,,,,,,,,,,,,IA6LI11,1,Serial_COM3,C:\Users\EEG\Desktop\FINALCoScienceTasksLogfiles\,2022_Jan_05_1225,Flanker,2020.1.3,59.874933240324275,
HHH HHH,HHHHHHH,30,H,,,,,,,,,0,0,0,0,9,9,117,9,,,,,,,0.83550861346753,357.47233499999857,None,2,,,,,,,,,,,,,134,130,137,357.08299930000794,357.1937212000048,357.1581533999997,357.3584111000091,2,1,0.26944709999952465,357.1581533999997,None,None,None,False,None,None,None,None,None,None,None,None,None,None,None,None,,,,,,,,,,,,,,,,,,,,,,,,,,,,,,IA6LI11,1,Serial_COM3,C:\Users\EEG\Desktop\FINALCoScienceTasksLogfiles\,2022_Jan_05_1225,Flanker,2020.1.3,59.874933240324275,
SSS SSS,SSSSSSS,30,S,,,,,,,,,0,0,0,0,9,10,118,4,,,,,,,0.7569539166620562,358.7136068999971,None,4,,,,,,,,,,,,,134,130,137,358.31656269999803,358.42656669999997,358.4095105000015,358.609621399999,4,1,0.2739560000045458,358.4095105000015,None,None,None,False,None,None,None,None,None,None,None,None,None,None,None,None,,,,,,,,,,,,,,,,,,,,,,,,,,,,,,IA6LI11,1,Serial_COM3,C:\Users\EEG\Desktop\FINALCoScienceTasksLogfiles\,2022_Jan_05_1225,Flanker,2020.1.3,59.874933240324275,
SSS SSS,SSSSSSS,30,S,,,,,,,,,0,0,0,0,9,11,119,3,,,,,,,0.821962087054199,359.9045208000025,None,4,,,,,,,,,,,,,134,130,137,359.47702879999997,359.5771118999983,359.5598251000047,359.76028240000596,4,1,0.3149712000013096,359.5598251000047,None,None,None,False,None,None,None,None,None,None,None,None,None,None,None,None,,,,,,,,,,,,,,,,,,,,,,,,,,,,,,IA6LI11,1,Serial_COM3,C:\Users\EEG\Desktop\FINALCoScienceTasksLogfiles\,2022_Jan_05_1225,Flanker,2020.1.3,59.874933240324275,
HSS SSH,HSSSSSH,20,S,,,,,,,,,0,0,0,0,10,0,120,2,,,,,,,0.8676785141434329,361.15189989999635,None,4,,,,,,,,,,,,,124,120,127,360.73697290000564,360.8468346000009,360.81112420000136,361.01130230000126,4,1,0.3183372000057716,360.81112420000136,None,None,None,False,None,None,None,None,None,None,None,None,None,None,None,None,,,,,,,,,,,,,,,,,,,,,,,,,,,,,,IA6LI11,1,Serial_COM3,C:\Users\EEG\Desktop\FINALCoScienceTasksLogfiles\,2022_Jan_05_1225,Flanker,2020.1.3,59.874933240324275,
SSS SSS,SSSSSSS,30,S,,,,,,,,,0,0,0,0,10,1,121,5,,,,,,,0.7561588277883649,362.3703144000028,None,4,,,,,,,,,,,,,134,130,137,362.03873840000597,362.14591809999547,362.12894609999785,362.3292055000056,4,1,0.21680940000806004,362.12894609999785,None,None,None,False,None,None,None,None,None,None,None,None,None,None,None,None,,,,,,,,,,,,,,,,,,,,,,,,,,,,,,IA6LI11,1,Serial_COM3,C:\Users\EEG\Desktop\FINALCoScienceTasksLogfiles\,2022_Jan_05_1225,Flanker,2020.1.3,59.874933240324275,
HHH HHH,HHHSHHH,0,S,,,,,,,,,0,0,0,0,10,2,122,0,,,,,,,0.9540040052481139,364.61053459999675,None,4,,,,,,,,,,,,,104,100,106,363.1387396000064,363.2492865999957,363.2130152000027,363.4127664999978,4,1,0.3445255999977235,363.2130152000027,None,363.58850939999684,None,False,None,None,None,None,None,None,None,None,None,None,None,None,,,,,,,,,,,,,,,,,,,,,,,,,,,,,,IA6LI11,1,Serial_COM3,C:\Users\EEG\Desktop\FINALCoScienceTasksLogfiles\,2022_Jan_05_1225,Flanker,2020.1.3,59.874933240324275,
HHH HHH,HHHHHHH,30,H,,,,,,,,,0,0,0,0,10,3,123,9,,,,,,,0.9385761789070027,367.05170710000675,None,2,,,,,,,,,,,,,134,130,136,365.57743960000516,365.6842869999964,365.6483397999982,365.84916820000217,2,1,0.36110690000350587,365.6483397999982,None,366.04083670000546,None,False,None,None,None,None,None,None,None,None,None,None,None,None,,,,,,,,,,,,,,,,,,,,,,,,,,,,,,IA6LI11,1,Serial_COM3,C:\Users\EEG\Desktop\FINALCoScienceTasksLogfiles\,2022_Jan_05_1225,Flanker,2020.1.3,59.874933240324275,
HHH HHH,HHHSHHH,0,S,,,,,,,,,0,0,0,0,10,4,124,0,,,,,,,0.9829949100778481,369.5042728999979,None,4,,,,,,,,,,,,,104,100,106,368.0024082000018,368.1194814000046,368.083795700004,368.2841691000067,4,1,0.37365379999391735,368.083795700004,None,368.4962544000009,None,False,None,None,None,None,None,None,None,None,None,None,None,None,,,,,,,,,,,,,,,,,,,,,,,,,,,,,,IA6LI11,1,Serial_COM3,C:\Users\EEG\Desktop\FINALCoScienceTasksLogfiles\,2022_Jan_05_1225,Flanker,2020.1.3,59.874933240324275,
HHH HHH,HHHHHHH,30,H,,,,,,,,,0,0,0,0,10,5,125,10,,,,,,,0.9086699995623408,370.9442320000089,None,2,,,,,,,,,,,,,134,130,139,370.5048189000081,370.6196479000064,370.60270230000606,370.8028417000023,4,0,0.3078252999985125,370.60270230000606,None,None,None,False,None,None,None,None,None,None,None,None,None,None,None,None,,,,,,,,,,,,,,,,,,,,,,,,,,,,,,IA6LI11,1,Serial_COM3,C:\Users\EEG\Desktop\FINALCoScienceTasksLogfiles\,2022_Jan_05_1225,Flanker,2020.1.3,59.874933240324275,
SSH HSS,SSHHHSS,10,H,,,,,,,,,0,0,0,0,10,6,126,7,,,,,,,0.7739462186917434,373.4903042000078,None,2,,,,,,,,,,,,,114,110,116,371.85597950000374,371.9703767000028,371.95346849999623,372.1538816999964,2,1,0.4910754000011366,371.95346849999623,None,372.47815589999664,None,False,None,None,None,None,None,None,None,None,None,None,None,None,,,,,,,,,,,,,,,,,,,,,,,,,,,,,,IA6LI11,1,Serial_COM3,C:\Users\EEG\Desktop\FINALCoScienceTasksLogfiles\,2022_Jan_05_1225,Flanker,2020.1.3,59.874933240324275,
HHH HHH,HHHSHHH,0,S,,,,,,,,,0,0,0,0,10,7,127,0,,,,,,,0.8489063358232817,374.6667024000053,None,4,,,,,,,,,,,,,104,100,109,374.2788653000025,374.38947510000435,374.37255529999675,374.5725960999989,2,0,0.2672411999956239,374.37255529999675,None,None,None,False,None,None,None,None,None,None,None,None,None,None,None,None,,,,,,,,,,,,,,,,,,,,,,,,,,,,,,IA6LI11,1,Serial_COM3,C:\Users\EEG\Desktop\FINALCoScienceTasksLogfiles\,2022_Jan_05_1225,Flanker,2020.1.3,59.874933240324275,
SSS SSS,SSSSSSS,30,S,,,,,,,,,0,0,0,0,10,8,128,3,,,,,,,0.797629175840303,377.02666560000216,None,4,,,,,,,,,,,,,134,130,136,375.5305279000022,375.64052410000295,375.6236079000082,375.8236015000002,4,1,0.3651642000040738,375.6236079000082,None,376.01469050000014,None,False,None,None,None,None,None,None,None,None,None,None,None,None,,,,,,,,,,,,,,,,,,,,,,,,,,,,,,IA6LI11,1,Serial_COM3,C:\Users\EEG\Desktop\FINALCoScienceTasksLogfiles\,2022_Jan_05_1225,Flanker,2020.1.3,59.874933240324275,
HHS SHH,HHSSSHH,10,S,,,,,,,,,0,0,0,0,10,9,129,1,,,,,,,0.834704501978192,378.2036592000077,None,4,,,,,,,,,,,,,114,110,117,377.8276932000008,377.94244430000253,377.9255390000035,378.1255269999965,4,1,0.24928069999441504,377.9255390000035,None,None,None,False,None,None,None,None,None,None,None,None,None,None,None,None,,,,,,,,,,,,,,,,,,,,,,,,,,,,,,IA6LI11,1,Serial_COM3,C:\Users\EEG\Desktop\FINALCoScienceTasksLogfiles\,2022_Jan_05_1225,Flanker,2020.1.3,59.874933240324275,
SSH HSS,SSHHHSS,10,H,,,,,,,,,0,0,0,0,10,10,130,7,,,,,,,0.9149806144490403,379.4551766000077,None,2,,,,,,,,,,,,,114,110,119,379.0452809999988,379.1601054000057,379.1433743000089,379.3432687000022,4,0,0.2804877000016859,379.1433743000089,None,None,None,False,None,None,None,None,None,None,None,None,None,None,None,None,,,,,,,,,,,,,,,,,,,,,,,,,,,,,,IA6LI11,1,Serial_COM3,C:\Users\EEG\Desktop\FINALCoScienceTasksLogfiles\,2022_Jan_05_1225,Flanker,2020.1.3,59.874933240324275,
SSS SSS,SSSHSSS,0,H,,,,,,,,,0,0,0,0,10,11,131,6,,,,,,,0.91459682693436,381.9640359000041,None,2,,,,,,,,,,,,,104,100,106,380.3853301000054,380.4945707000006,380.47754190000705,380.677671700003,2,1,0.44104950000473764,380.47754190000705,None,380.9519533999992,None,False,None,None,None,None,None,None,None,None,None,None,None,None,,,,,,,,,,,,,,,,,,,,,,,,,,,,,,IA6LI11,1,Serial_COM3,C:\Users\EEG\Desktop\FINALCoScienceTasksLogfiles\,2022_Jan_05_1225,Flanker,2020.1.3,59.874933240324275,
SSH HSS,SSHHHSS,10,H,,,,,,,,,0,0,0,0,11,0,132,7,,,,,,,0.8356912966220914,384.3995782999991,None,2,,,,,,,,,,,,,114,110,116,382.8822766000085,382.9961942000082,382.9801303999993,383.17971209999814,2,1,0.379711599991424,382.9801303999993,None,383.38858179999806,None,False,None,None,None,None,None,None,None,None,None,None,None,None,,,,,,,,,,,,,,,,,,,,,,,,,,,,,,IA6LI11,1,Serial_COM3,C:\Users\EEG\Desktop\FINALCoScienceTasksLogfiles\,2022_Jan_05_1225,Flanker,2020.1.3,59.874933240324275,
HHH HHH,HHHSHHH,0,S,,,,,,,,,0,0,0,0,11,1,133,0,,,,,,,0.9081578966045522,385.62700510000286,None,4,,,,,,,,,,,,,104,100,109,385.2551123000012,385.3652928000083,385.34831290000875,385.5483414000046,2,0,0.24034030000620987,385.34831290000875,None,None,None,False,None,None,None,None,None,None,None,None,None,None,None,None,,,,,,,,,,,,,,,,,,,,,,,,,,,,,,IA6LI11,1,Serial_COM3,C:\Users\EEG\Desktop\FINALCoScienceTasksLogfiles\,2022_Jan_05_1225,Flanker,2020.1.3,59.874933240324275,
SSS SSS,SSSSSSS,30,S,,,,,,,,,0,0,0,0,11,2,134,5,,,,,,,0.9561826693141076,388.0195018000086,None,4,,,,,,,,,,,,,134,130,136,386.55927209999936,386.6659103999991,386.6488607000065,386.8495161000028,4,1,0.33464749999984633,386.6488607000065,None,387.01256119999744,None,False,None,None,None,None,None,None,None,None,None,None,None,None,,,,,,,,,,,,,,,,,,,,,,,,,,,,,,IA6LI11,1,Serial_COM3,C:\Users\EEG\Desktop\FINALCoScienceTasksLogfiles\,2022_Jan_05_1225,Flanker,2020.1.3,59.874933240324275,
HSS SSH,HSSSSSH,20,S,,,,,,,,,0,0,0,0,11,3,135,2,,,,,,,0.8296769557759743,389.4132712999999,None,4,,,,,,,,,,,,,124,120,127,388.9935703000083,389.1013984000019,389.08470600000874,389.28482899999653,4,1,0.2908891999977641,389.08470600000874,None,None,None,False,None,None,None,None,None,None,None,None,None,None,None,None,,,,,,,,,,,,,,,,,,,,,,,,,,,,,,IA6LI11,1,Serial_COM3,C:\Users\EEG\Desktop\FINALCoScienceTasksLogfiles\,2022_Jan_05_1225,Flanker,2020.1.3,59.874933240324275,
HHH HHH,HHHHHHH,30,H,,,,,,,,,0,0,0,0,11,4,136,10,,,,,,,0.7752218908660276,391.7392377000069,None,2,,,,,,,,,,,,,134,130,136,390.26189120000345,390.3694356000051,390.35237989999587,390.5525578000088,2,1,0.34514290001243353,390.35237989999587,None,390.73147240000253,None,False,None,None,None,None,None,None,None,None,None,None,None,None,,,,,,,,,,,,,,,,,,,,,,,,,,,,,,IA6LI11,1,Serial_COM3,C:\Users\EEG\Desktop\FINALCoScienceTasksLogfiles\,2022_Jan_05_1225,Flanker,2020.1.3,59.874933240324275,
HHH HHH,HHHHHHH,30,H,,,,,,,,,0,0,0,0,11,5,137,11,,,,,,,0.9932630142454317,393.9904435000062,None,2,,,,,,,,,,,,,134,130,136,392.52174450000166,392.62131030000455,392.6043168000033,392.80469879999873,2,1,0.34408100000291597,392.6043168000033,None,392.97997329999635,None,False,None,None,None,None,None,None,None,None,None,None,None,None,,,,,,,,,,,,,,,,,,,,,,,,,,,,,,IA6LI11,1,Serial_COM3,C:\Users\EEG\Desktop\FINALCoScienceTasksLogfiles\,2022_Jan_05_1225,Flanker,2020.1.3,59.874933240324275,
SSS SSS,SSSSSSS,30,S,,,,,,,,,0,0,0,0,11,6,138,5,,,,,,,0.9155728779015957,395.377055200006,None,4,,,,,,,,,,,,,134,130,137,394.9979716999951,395.10665750000044,395.0897785999987,395.28978940000525,4,1,0.26069410001218785,395.0897785999987,None,None,None,False,None,None,None,None,None,None,None,None,None,None,None,None,,,,,,,,,,,,,,,,,,,,,,,,,,,,,,IA6LI11,1,Serial_COM3,C:\Users\EEG\Desktop\FINALCoScienceTasksLogfiles\,2022_Jan_05_1225,Flanker,2020.1.3,59.874933240324275,
HHH HHH,HHHHHHH,30,H,,,,,,,,,0,0,0,0,11,7,139,11,,,,,,,0.7895870722357954,396.685991300008,None,2,,,,,,,,,,,,,134,130,139,396.31426890000876,396.4246104000049,396.40734240000893,396.60757010000816,4,0,0.24660669999138918,396.40734240000893,None,None,None,False,None,None,None,None,None,None,None,None,None,None,None,None,,,,,,,,,,,,,,,,,,,,,,,,,,,,,,IA6LI11,1,Serial_COM3,C:\Users\EEG\Desktop\FINALCoScienceTasksLogfiles\,2022_Jan_05_1225,Flanker,2020.1.3,59.874933240324275,
HHH HHH,HHHHHHH,30,H,,,,,,,,,0,0,0,0,11,8,140,10,,,,,,,0.8628606602178219,398.94465689999925,None,2,,,,,,,,,,,,,134,130,136,397.4758776999952,397.57531949999975,397.5583343000035,397.7585657000018,2,1,0.35115240000595804,397.5583343000035,None,397.938375800004,None,False,None,None,None,None,None,None,None,None,None,None,None,None,,,,,,,,,,,,,,,,,,,,,,,,,,,,,,IA6LI11,1,Serial_COM3,C:\Users\EEG\Desktop\FINALCoScienceTasksLogfiles\,2022_Jan_05_1225,Flanker,2020.1.3,59.874933240324275,
SHH HHS,SHHHHHS,20,H,,,,,,,,,0,0,0,0,11,9,141,8,,,,,,,0.9662080854738322,400.2314067999978,None,2,,,,,,,,,,,,,124,120,127,399.8188460999954,399.9274000000005,399.91066920000594,400.11059640000167,2,1,0.28988070000195876,399.91066920000594,None,None,None,False,None,None,None,None,None,None,None,None,None,None,None,None,,,,,,,,,,,,,,,,,,,,,,,,,,,,,,IA6LI11,1,Serial_COM3,C:\Users\EEG\Desktop\FINALCoScienceTasksLogfiles\,2022_Jan_05_1225,Flanker,2020.1.3,59.874933240324275,
HHH HHH,HHHHHHH,30,H,,,,,,,,,0,0,0,0,11,10,142,11,,,,,,,0.8305748595730084,401.6363546000066,None,2,,,,,,,,,,,,,134,130,137,401.218483500008,401.3288326000038,401.31168040000193,401.51179550000234,2,1,0.2908065999945393,401.31168040000193,None,None,None,False,None,None,None,None,None,None,None,None,None,None,None,None,,,,,,,,,,,,,,,,,,,,,,,,,,,,,,IA6LI11,1,Serial_COM3,C:\Users\EEG\Desktop\FINALCoScienceTasksLogfiles\,2022_Jan_05_1225,Flanker,2020.1.3,59.874933240324275,
HHS SHH,HHSSSHH,10,S,,,,,,,,,0,0,0,0,11,11,143,1,,,,,,,0.9806819376858212,402.85776470000565,None,4,,,,,,,,,,,,,114,110,117,402.48589369999536,402.5961546000035,402.5791753000085,402.77938550000545,4,1,0.25132419999863487,402.5791753000085,None,None,None,False,None,None,None,None,None,None,None,None,None,None,None,None,,,,,,,,,,,,,,,,,,,,,,,,,,,,,,IA6LI11,1,Serial_COM3,C:\Users\EEG\Desktop\FINALCoScienceTasksLogfiles\,2022_Jan_05_1225,Flanker,2020.1.3,59.874933240324275,
HHH HHH,HHHHHHH,30,H,,,,,,,,,0,0,0,0,12,0,144,9,,,,,,,0.9770332609038679,404.22522249999747,None,2,,,,,,,,,,,,,134,130,137,403.8538472000073,403.96411319999606,403.947030299998,404.1471397999994,2,1,0.25142610000330023,403.947030299998,None,None,None,False,None,None,None,None,None,None,None,None,None,None,None,None,,,,,,,,,,,,,,,,,,,,,,,,,,,,,,IA6LI11,1,Serial_COM3,C:\Users\EEG\Desktop\FINALCoScienceTasksLogfiles\,2022_Jan_05_1225,Flanker,2020.1.3,59.874933240324275,
SSS SSS,SSSSSSS,30,S,,,,,,,,,0,0,0,0,12,1,145,4,,,,,,,0.8933768271363458,405.59246880000865,None,4,,,,,,,,,,,,,134,130,137,405.222892100006,405.34376250000787,405.29806640000606,405.4982553000009,4,1,0.2555919000005815,405.29806640000606,None,None,None,False,None,None,None,None,None,None,None,None,None,None,None,None,,,,,,,,,,,,,,,,,,,,,,,,,,,,,,IA6LI11,1,Serial_COM3,C:\Users\EEG\Desktop\FINALCoScienceTasksLogfiles\,2022_Jan_05_1225,Flanker,2020.1.3,59.874933240324275,
SHH HHS,SHHHHHS,20,H,,,,,,,,,0,0,0,0,12,2,146,8,,,,,,,0.7522338841980459,406.86964940000325,None,2,,,,,,,,,,,,,124,120,127,406.50780340000347,406.6187923999969,406.5828896000021,406.7828307000018,2,1,0.256592300007469,406.5828896000021,None,None,None,False,None,None,None,None,None,None,None,None,None,None,None,None,,,,,,,,,,,,,,,,,,,,,,,,,,,,,,IA6LI11,1,Serial_COM3,C:\Users\EEG\Desktop\FINALCoScienceTasksLogfiles\,2022_Jan_05_1225,Flanker,2020.1.3,59.874933240324275,
HHH HHH,HHHHHHH,30,H,,,,,,,,,0,0,0,0,12,3,147,9,,,,,,,0.8385140413677928,409.15359850000823,None,2,,,,,,,,,,,,,134,130,136,407.64046860000235,407.7506682999956,407.73353979999956,407.9337111000059,2,1,0.37404500000411645,407.73353979999956,None,408.14641689999553,None,False,None,None,None,None,None,None,None,None,None,None,None,None,,,,,,,,,,,,,,,,,,,,,,,,,,,,,,IA6LI11,1,Serial_COM3,C:\Users\EEG\Desktop\FINALCoScienceTasksLogfiles\,2022_Jan_05_1225,Flanker,2020.1.3,59.874933240324275,
SHH HHS,SHHHHHS,20,H,,,,,,,,,0,0,0,0,12,4,148,8,,,,,,,0.9545294066289373,411.52194350000354,None,2,,,,,,,,,,,,,124,120,126,410.0099285000033,410.1210399999982,410.0854235000006,410.2855763999978,2,1,0.386176300002262,410.0854235000006,None,410.5151346000057,None,False,None,None,None,None,None,None,None,None,None,None,None,None,,,,,,,,,,,,,,,,,,,,,,,,,,,,,,IA6LI11,1,Serial_COM3,C:\Users\EEG\Desktop\FINALCoScienceTasksLogfiles\,2022_Jan_05_1225,Flanker,2020.1.3,59.874933240324275,
HHH HHH,HHHHHHH,30,H,,,,,,,,,0,0,0,0,12,5,149,10,,,,,,,0.813775855236466,412.8657899999962,None,2,,,,,,,,,,,,,134,130,137,412.49684980000893,412.60440120000567,412.5875042999978,412.7877137000032,2,1,0.25013549999857787,412.5875042999978,None,None,None,False,None,None,None,None,None,None,None,None,None,None,None,None,,,,,,,,,,,,,,,,,,,,,,,,,,,,,,IA6LI11,1,Serial_COM3,C:\Users\EEG\Desktop\FINALCoScienceTasksLogfiles\,2022_Jan_05_1225,Flanker,2020.1.3,59.874933240324275,
HHH HHH,HHHHHHH,30,H,,,,,,,,,0,0,0,0,12,6,150,9,,,,,,,0.7651334718990472,413.951628099996,None,2,,,,,,,,,,,,,134,130,139,413.6888103999954,413.78893199999584,413.7718382000021,None,4,0,0.1470782000105828,413.7718382000021,None,None,None,False,None,None,None,None,None,None,None,None,None,None,None,None,,,,,,,,,,,,,,,,,,,,,,,,,,,,,,IA6LI11,1,Serial_COM3,C:\Users\EEG\Desktop\FINALCoScienceTasksLogfiles\,2022_Jan_05_1225,Flanker,2020.1.3,59.874933240324275,
SSS SSS,SSSSSSS,30,S,,,,,,,,,0,0,0,0,12,7,151,5,,,,,,,0.9785807184943887,415.06433059999836,None,4,,,,,,,,,,,,,134,130,139,414.7252843000024,414.83938790000684,414.8223815000092,415.02285209999536,2,0,0.20319870000821538,414.8223815000092,None,None,None,False,None,None,None,None,None,None,None,None,None,None,None,None,,,,,,,,,,,,,,,,,,,,,,,,,,,,,,IA6LI11,1,Serial_COM3,C:\Users\EEG\Desktop\FINALCoScienceTasksLogfiles\,2022_Jan_05_1225,Flanker,2020.1.3,59.874933240324275,
SSS SSS,SSSSSSS,30,S,,,,,,,,,0,0,0,0,12,8,152,5,,,,,,,0.9011793838975748,416.46163340000203,None,4,,,,,,,,,,,,,134,130,139,416.05746860000363,416.1574899999978,416.1404626000003,416.34061010000005,2,0,0.28713219999917783,416.1404626000003,None,None,None,False,None,None,None,None,None,None,None,None,None,None,None,None,,,,,,,,,,,,,,,,,,,,,,,,,,,,,,IA6LI11,1,Serial_COM3,C:\Users\EEG\Desktop\FINALCoScienceTasksLogfiles\,2022_Jan_05_1225,Flanker,2020.1.3,59.874933240324275,
HSS SSH,HSSSSSH,20,S,,,,,,,,,0,0,0,0,12,9,153,2,,,,,,,0.9989521006379287,417.75363520000246,None,4,,,,,,,,,,,,,124,120,127,417.38347450000583,417.49190290000115,417.4750547000003,417.67508149999776,4,1,0.24867770000128075,417.4750547000003,None,None,None,False,None,None,None,None,None,None,None,None,None,None,None,None,,,,,,,,,,,,,,,,,,,,,,,,,,,,,,IA6LI11,1,Serial_COM3,C:\Users\EEG\Desktop\FINALCoScienceTasksLogfiles\,2022_Jan_05_1225,Flanker,2020.1.3,59.874933240324275,
SSS SSS,SSSHSSS,0,H,,,,,,,,,0,0,0,0,12,10,154,6,,,,,,,0.9958056183639197,419.1208100000076,None,2,,,,,,,,,,,,,104,100,109,418.76973709999584,418.87647560000187,418.8593666000088,419.05970830000297,4,0,0.23354669999389444,418.8593666000088,None,None,None,False,None,None,None,None,None,None,None,None,None,None,None,None,,,,,,,,,,,,,,,,,,,,,,,,,,,,,,IA6LI11,1,Serial_COM3,C:\Users\EEG\Desktop\FINALCoScienceTasksLogfiles\,2022_Jan_05_1225,Flanker,2020.1.3,59.874933240324275,
SSH HSS,SSHHHSS,10,H,,,,,,,,,0,0,0,0,12,11,155,7,,,,,,,0.8574625360655689,420.47178520000307,None,2,,,,,,,,,,,,,114,110,117,420.1349107999995,420.2440993000055,420.2269781000068,420.42738290000125,2,1,0.21057339999242686,420.2269781000068,None,None,None,False,None,None,None,None,None,None,None,None,None,None,None,None,,,,,,,,,,,,,,,,,,,,,,,,,,,,,,IA6LI11,1,Serial_COM3,C:\Users\EEG\Desktop\FINALCoScienceTasksLogfiles\,2022_Jan_05_1225,Flanker,2020.1.3,59.874933240324275,
HHH HHH,HHHHHHH,30,H,,,,,,,,,0,0,0,0,13,0,156,9,,,,,,,0.8666085753185263,421.7561558000016,None,2,,,,,,,,,,,,,134,130,137,421.3520423000009,421.4742677000031,421.4280215000035,421.6283906000026,2,1,0.28669529999024235,421.4280215000035,None,None,None,False,None,None,None,None,None,None,None,None,None,None,None,None,,,,,,,,,,,,,,,,,,,,,,,,,,,,,,IA6LI11,1,Serial_COM3,C:\Users\EEG\Desktop\FINALCoScienceTasksLogfiles\,2022_Jan_05_1225,Flanker,2020.1.3,59.874933240324275,
SHH HHS,SHHHHHS,20,H,,,,,,,,,0,0,0,0,13,1,157,8,,,,,,,0.8197142171459181,423.0072405999963,None,2,,,,,,,,,,,,,124,120,129,422.6362408999994,422.7481783999974,422.7123108000087,422.9128006999963,4,0,0.2682894000026863,422.7123108000087,None,None,None,False,None,None,None,None,None,None,None,None,None,None,None,None,,,,,,,,,,,,,,,,,,,,,,,,,,,,,,IA6LI11,1,Serial_COM3,C:\Users\EEG\Desktop\FINALCoScienceTasksLogfiles\,2022_Jan_05_1225,Flanker,2020.1.3,59.874933240324275,
HHS SHH,HHSSSHH,10,S,,,,,,,,,0,0,0,0,13,2,158,1,,,,,,,0.9596535958936983,424.29166489999625,None,4,,,,,,,,,,,,,114,110,117,423.83230190000904,423.94748460000847,423.9306673999963,424.130828399997,4,1,0.33006269999896176,423.9306673999963,None,None,None,False,None,None,None,None,None,None,None,None,None,None,None,None,,,,,,,,,,,,,,,,,,,,,,,,,,,,,,IA6LI11,1,Serial_COM3,C:\Users\EEG\Desktop\FINALCoScienceTasksLogfiles\,2022_Jan_05_1225,Flanker,2020.1.3,59.874933240324275,
SSS SSS,SSSHSSS,0,H,,,,,,,,,0,0,0,0,13,3,159,6,,,,,,,0.7897483536081504,425.6670976000023,None,2,,,,,,,,,,,,,104,100,109,425.2731640999991,425.381962200001,425.36499080000794,425.5650170000008,4,0,0.27047840000886936,425.36499080000794,None,None,None,False,None,None,None,None,None,None,None,None,None,None,None,None,,,,,,,,,,,,,,,,,,,,,,,,,,,,,,IA6LI11,1,Serial_COM3,C:\Users\EEG\Desktop\FINALCoScienceTasksLogfiles\,2022_Jan_05_1225,Flanker,2020.1.3,59.874933240324275,
HHH HHH,HHHHHHH,30,H,,,,,,,,,0,0,0,0,13,4,160,10,,,,,,,0.8408319074627978,428.00285129999975,None,2,,,,,,,,,,,,,134,130,136,426.4781939999957,426.5847311999969,426.54931000000215,426.7492585,2,1,0.4136378999974113,426.54931000000215,None,426.9955040000059,None,False,None,None,None,None,None,None,None,None,None,None,None,None,,,,,,,,,,,,,,,,,,,,,,,,,,,,,,IA6LI11,1,Serial_COM3,C:\Users\EEG\Desktop\FINALCoScienceTasksLogfiles\,2022_Jan_05_1225,Flanker,2020.1.3,59.874933240324275,
HHH HHH,HHHHHHH,30,H,,,,,,,,,0,0,0,0,13,5,161,10,,,,,,,0.8785229032705077,429.2211024999997,None,2,,,,,,,,,,,,,134,130,137,428.8514140000043,428.95146419999946,428.93445630000497,429.13463660000707,2,1,0.25910519999160897,428.93445630000497,None,None,None,False,None,None,None,None,None,None,None,None,None,None,None,None,,,,,,,,,,,,,,,,,,,,,,,,,,,,,,IA6LI11,1,Serial_COM3,C:\Users\EEG\Desktop\FINALCoScienceTasksLogfiles\,2022_Jan_05_1225,Flanker,2020.1.3,59.874933240324275,
SSS SSS,SSSSSSS,30,S,,,,,,,,,0,0,0,0,13,6,162,4,,,,,,,0.9928750939979614,430.4400023000053,None,4,,,,,,,,,,,,,134,130,137,430.11047159999725,430.21917740000936,430.2019125000079,430.4024583999999,4,1,0.21876519999932498,430.2019125000079,None,None,None,False,None,None,None,None,None,None,None,None,None,None,None,None,,,,,,,,,,,,,,,,,,,,,,,,,,,,,,IA6LI11,1,Serial_COM3,C:\Users\EEG\Desktop\FINALCoScienceTasksLogfiles\,2022_Jan_05_1225,Flanker,2020.1.3,59.874933240324275,
HSS SSH,HSSSSSH,20,S,,,,,,,,,0,0,0,0,13,7,163,2,,,,,,,0.7718570041350723,431.8402940000087,None,4,,,,,,,,,,,,,124,120,127,431.4466084000014,431.5536187999969,431.53662460000487,431.73674580000807,4,1,0.28025049999996554,431.53662460000487,None,None,None,False,None,None,None,None,None,None,None,None,None,None,None,None,,,,,,,,,,,,,,,,,,,,,,,,,,,,,,IA6LI11,1,Serial_COM3,C:\Users\EEG\Desktop\FINALCoScienceTasksLogfiles\,2022_Jan_05_1225,Flanker,2020.1.3,59.874933240324275,
SSH HSS,SSHHHSS,10,H,,,,,,,,,0,0,0,0,13,8,164,7,,,,,,,0.8914305836088582,433.00689990000683,None,2,,,,,,,,,,,,,114,110,119,432.6295375000045,432.7399646999984,432.70434430000023,432.90443470000173,4,0,0.2761321000143653,432.70434430000023,None,None,None,False,None,None,None,None,None,None,None,None,None,None,None,None,,,,,,,,,,,,,,,,,,,,,,,,,,,,,,IA6LI11,1,Serial_COM3,C:\Users\EEG\Desktop\FINALCoScienceTasksLogfiles\,2022_Jan_05_1225,Flanker,2020.1.3,59.874933240324275,
HHH HHH,HHHHHHH,30,H,,,,,,,,,0,0,0,0,13,9,165,9,,,,,,,0.8091929623855354,434.36585860000923,None,2,,,,,,,,,,,,,134,130,137,433.91203200000746,434.0227026000066,434.0057786999969,434.2055076999968,2,1,0.3268095999956131,434.0057786999969,None,None,None,False,None,None,None,None,None,None,None,None,None,None,None,None,,,,,,,,,,,,,,,,,,,,,,,,,,,,,,IA6LI11,1,Serial_COM3,C:\Users\EEG\Desktop\FINALCoScienceTasksLogfiles\,2022_Jan_05_1225,Flanker,2020.1.3,59.874933240324275,
SSH HSS,SSHHHSS,10,H,,,,,,,,,0,0,0,0,13,10,166,7,,,,,,,0.989068888350935,435.57736399999703,None,2,,,,,,,,,,,,,114,110,117,435.19820480000635,435.3067865000048,435.2897765999951,435.4901860999962,2,1,0.26691330000176094,435.2897765999951,None,None,None,False,None,None,None,None,None,None,None,None,None,None,None,None,,,,,,,,,,,,,,,,,,,,,,,,,,,,,,IA6LI11,1,Serial_COM3,C:\Users\EEG\Desktop\FINALCoScienceTasksLogfiles\,2022_Jan_05_1225,Flanker,2020.1.3,59.874933240324275,
SSS SSS,SSSSSSS,30,S,,,,,,,,,0,0,0,0,13,11,167,4,,,,,,,0.827703433341911,436.96885440000915,None,4,,,,,,,,,,,,,134,130,137,436.58300909999525,436.69128120000823,436.6741863000061,436.87444899999537,4,1,0.2613811000046553,436.6741863000061,None,None,None,False,None,None,None,None,None,None,None,None,None,None,None,None,,,,,,,,,,,,,,,,,,,,,,,,,,,,,,IA6LI11,1,Serial_COM3,C:\Users\EEG\Desktop\FINALCoScienceTasksLogfiles\,2022_Jan_05_1225,Flanker,2020.1.3,59.874933240324275,
HHH HHH,HHHHHHH,30,H,,,,,,,,,0,0,0,0,14,0,168,11,,,,,,,0.7676391800556492,438.15283920000365,None,2,,,,,,,,,,,,,134,130,137,437.81596980000904,437.9375121000048,437.89176840000437,438.0923044000083,2,1,0.2246924999926705,437.89176840000437,None,None,None,False,None,None,None,None,None,None,None,None,None,None,None,None,,,,,,,,,,,,,,,,,,,,,,,,,,,,,,IA6LI11,1,Serial_COM3,C:\Users\EEG\Desktop\FINALCoScienceTasksLogfiles\,2022_Jan_05_1225,Flanker,2020.1.3,59.874933240324275,
SHH HHS,SHHHHHS,20,H,,,,,,,,,0,0,0,0,14,1,169,8,,,,,,,0.8255992668131594,439.23774050000065,None,2,,,,,,,,,,,,,124,120,129,438.9280288000009,439.04322229999525,439.02631070000643,None,4,0,0.17625360000238288,439.02631070000643,None,None,None,False,None,None,None,None,None,None,None,None,None,None,None,None,,,,,,,,,,,,,,,,,,,,,,,,,,,,,,IA6LI11,1,Serial_COM3,C:\Users\EEG\Desktop\FINALCoScienceTasksLogfiles\,2022_Jan_05_1225,Flanker,2020.1.3,59.874933240324275,
SSS SSS,SSSSSSS,30,S,,,,,,,,,0,0,0,0,14,2,170,3,,,,,,,0.9797067321436461,441.58034380000026,None,4,,,,,,,,,,,,,134,130,136,440.08382939999865,440.19426940000267,440.1773247999954,440.37732929999765,4,1,0.3581849000038346,440.1773247999954,None,440.5687681999989,None,False,None,None,None,None,None,None,None,None,None,None,None,None,,,,,,,,,,,,,,,,,,,,,,,,,,,,,,IA6LI11,1,Serial_COM3,C:\Users\EEG\Desktop\FINALCoScienceTasksLogfiles\,2022_Jan_05_1225,Flanker,2020.1.3,59.874933240324275,
HHH HHH,HHHHHHH,30,H,,,,,,,,,0,0,0,0,14,3,171,11,,,,,,,0.9526291695833005,444.0653108999977,None,2,,,,,,,,,,,,,134,130,136,442.571677800006,442.6795706999983,442.6625459000061,442.8626746000082,2,1,0.3610365000058664,442.6625459000061,None,443.0548235000024,None,False,None,None,None,None,None,None,None,None,None,None,None,None,,,,,,,,,,,,,,,,,,,,,,,,,,,,,,IA6LI11,1,Serial_COM3,C:\Users\EEG\Desktop\FINALCoScienceTasksLogfiles\,2022_Jan_05_1225,Flanker,2020.1.3,59.874933240324275,
HHH HHH,HHHHHHH,30,H,,,,,,,,,0,0,0,0,14,4,172,11,,,,,,,0.850538251395542,445.4754441999976,None,2,,,,,,,,,,,,,134,130,137,445.03152079999563,445.131080799998,445.1145288999978,445.3148668000067,2,1,0.332206999999471,445.1145288999978,None,None,None,False,None,None,None,None,None,None,None,None,None,None,None,None,,,,,,,,,,,,,,,,,,,,,,,,,,,,,,IA6LI11,1,Serial_COM3,C:\Users\EEG\Desktop\FINALCoScienceTasksLogfiles\,2022_Jan_05_1225,Flanker,2020.1.3,59.874933240324275,
SSH HSS,SSHHHSS,10,H,,,,,,,,,0,0,0,0,14,5,173,7,,,,,,,0.8747619992711895,446.5937908000051,None,2,,,,,,,,,,,,,114,110,119,446.3395340999996,446.4493038000073,446.4324989000015,None,4,0,0.13449409999884665,446.4324989000015,None,None,None,False,None,None,None,None,None,None,None,None,None,None,None,None,,,,,,,,,,,,,,,,,,,,,,,,,,,,,,IA6LI11,1,Serial_COM3,C:\Users\EEG\Desktop\FINALCoScienceTasksLogfiles\,2022_Jan_05_1225,Flanker,2020.1.3,59.874933240324275,
HHS SHH,HHSSSHH,10,S,,,,,,,,,0,0,0,0,14,6,174,1,,,,,,,0.7597413539977868,449.0364941000007,None,4,,,,,,,,,,,,,114,110,116,447.4899929000094,447.600325300009,447.58329070000036,447.7835217999964,4,1,0.4054057000030298,447.58329070000036,None,448.0304071999999,None,False,None,None,None,None,None,None,None,None,None,None,None,None,,,,,,,,,,,,,,,,,,,,,,,,,,,,,,IA6LI11,1,Serial_COM3,C:\Users\EEG\Desktop\FINALCoScienceTasksLogfiles\,2022_Jan_05_1225,Flanker,2020.1.3,59.874933240324275,
SSS SSS,SSSHSSS,0,H,,,,,,,,,0,0,0,0,14,7,175,6,,,,,,,0.8308449820375903,450.18002280000655,None,2,,,,,,,,,,,,,104,100,107,449.80985980000696,449.91885889999685,449.9018420000066,450.1022132000071,2,1,0.2509186000097543,449.9018420000066,None,None,None,False,None,None,None,None,None,None,None,None,None,None,None,None,,,,,,,,,,,,,,,,,,,,,,,,,,,,,,IA6LI11,1,Serial_COM3,C:\Users\EEG\Desktop\FINALCoScienceTasksLogfiles\,2022_Jan_05_1225,Flanker,2020.1.3,59.874933240324275,
SSH HSS,SSHHHSS,10,H,,,,,,,,,0,0,0,0,14,8,176,7,,,,,,,0.9573731627643062,451.41442559999996,None,2,,,,,,,,,,,,,114,110,119,451.027580199996,451.13662220000697,451.11970460000157,451.3197278000007,4,0,0.2669027000083588,451.11970460000157,None,None,None,False,None,None,None,None,None,None,None,None,None,None,None,None,,,,,,,,,,,,,,,,,,,,,,,,,,,,,,IA6LI11,1,Serial_COM3,C:\Users\EEG\Desktop\FINALCoScienceTasksLogfiles\,2022_Jan_05_1225,Flanker,2020.1.3,59.874933240324275,
HHS SHH,HHSSSHH,10,S,,,,,,,,,0,0,0,0,14,9,177,1,,,,,,,0.7799933480080405,452.7645579000091,None,4,,,,,,,,,,,,,114,110,117,452.39609560000827,452.5044274999964,452.48737889999757,452.68754450000415,4,1,0.24119559999962803,452.48737889999757,None,None,None,False,None,None,None,None,None,None,None,None,None,None,None,None,,,,,,,,,,,,,,,,,,,,,,,,,,,,,,IA6LI11,1,Serial_COM3,C:\Users\EEG\Desktop\FINALCoScienceTasksLogfiles\,2022_Jan_05_1225,Flanker,2020.1.3,59.874933240324275,
HHH HHH,HHHHHHH,30,H,,,,,,,,,0,0,0,0,14,10,178,10,,,,,,,0.8457858776470356,453.9296966999973,None,2,,,,,,,,,,,,,134,130,137,453.56368849999853,453.67220760000055,453.65529080000124,453.8555339000013,2,1,0.25137220000033267,453.65529080000124,None,None,None,False,None,None,None,None,None,None,None,None,None,None,None,None,,,,,,,,,,,,,,,,,,,,,,,,,,,,,,IA6LI11,1,Serial_COM3,C:\Users\EEG\Desktop\FINALCoScienceTasksLogfiles\,2022_Jan_05_1225,Flanker,2020.1.3,59.874933240324275,
SSS SSS,SSSSSSS,30,S,,,,,,,,,0,0,0,0,14,11,179,3,,,,,,,0.9689125371993954,455.20117690000916,None,4,,,,,,,,,,,,,134,130,137,454.7975359999982,454.9086943000002,454.87304669999867,455.072997700001,4,1,0.29680280000320636,454.87304669999867,None,None,None,False,None,None,None,None,None,None,None,None,None,None,None,None,,,,,,,,,,,,,,,,,,,,,,,,,,,,,,IA6LI11,1,Serial_COM3,C:\Users\EEG\Desktop\FINALCoScienceTasksLogfiles\,2022_Jan_05_1225,Flanker,2020.1.3,59.874933240324275,
SSS SSS,SSSSSSS,30,S,,,,,,,,,0,0,0,0,15,0,180,4,,,,,,,0.8911765871453271,456.5689104000048,None,4,,,,,,,,,,,,,134,130,139,456.174159400005,456.2742178000044,456.2572746000078,456.4577338999952,2,0,0.2782468999939738,456.2572746000078,None,None,None,False,None,None,None,None,None,None,None,None,None,None,None,None,,,,,,,,,,,,,,,,,,,,,,,,,,,,,,IA6LI11,1,Serial_COM3,C:\Users\EEG\Desktop\FINALCoScienceTasksLogfiles\,2022_Jan_05_1225,Flanker,2020.1.3,59.874933240324275,
SHH HHS,SHHHHHS,20,H,,,,,,,,,0,0,0,0,15,1,181,8,,,,,,,0.877888023584572,458.9616018000088,None,2,,,,,,,,,,,,,124,120,126,457.4825533999974,457.6038893000077,457.5578280000045,457.7583553000004,2,1,0.35879600000043865,457.5578280000045,None,457.9543193999998,None,False,None,None,None,None,None,None,None,None,None,None,None,None,,,,,,,,,,,,,,,,,,,,,,,,,,,,,,IA6LI11,1,Serial_COM3,C:\Users\EEG\Desktop\FINALCoScienceTasksLogfiles\,2022_Jan_05_1225,Flanker,2020.1.3,59.874933240324275,
HHH HHH,HHHHHHH,30,H,,,,,,,,,0,0,0,0,15,2,182,10,,,,,,,0.8899826498394294,460.1558193999954,None,2,,,,,,,,,,,,,134,130,137,459.8511790000048,459.9607726999966,459.9438317000022,None,2,1,0.1839412999979686,459.9438317000022,None,None,None,False,None,None,None,None,None,None,None,None,None,None,None,None,,,,,,,,,,,,,,,,,,,,,,,,,,,,,,IA6LI11,1,Serial_COM3,C:\Users\EEG\Desktop\FINALCoScienceTasksLogfiles\,2022_Jan_05_1225,Flanker,2020.1.3,59.874933240324275,
HHH HHH,HHHSHHH,0,S,,,,,,,,,0,0,0,0,15,3,183,0,,,,,,,0.8575155290742316,461.3189760999958,None,4,,,,,,,,,,,,,104,100,107,461.06389740000304,461.17826230000355,461.1615324000013,None,4,1,0.12397339999733958,461.1615324000013,None,None,None,False,None,None,None,None,None,None,None,None,None,None,None,None,,,,,,,,,,,,,,,,,,,,,,,,,,,,,,IA6LI11,1,Serial_COM3,C:\Users\EEG\Desktop\FINALCoScienceTasksLogfiles\,2022_Jan_05_1225,Flanker,2020.1.3,59.874933240324275,
SSS SSS,SSSSSSS,30,S,,,,,,,,,0,0,0,0,15,4,184,3,,,,,,,0.9068743060893985,462.54849850000755,None,4,,,,,,,,,,,,,134,130,139,462.1814328000037,462.2959161000035,462.27900090000185,462.4790198999981,2,0,0.236610699997982,462.27900090000185,None,None,None,False,None,None,None,None,None,None,None,None,None,None,None,None,,,,,,,,,,,,,,,,,,,,,,,,,,,,,,IA6LI11,1,Serial_COM3,C:\Users\EEG\Desktop\FINALCoScienceTasksLogfiles\,2022_Jan_05_1225,Flanker,2020.1.3,59.874933240324275,
HSS SSH,HSSSSSH,20,S,,,,,,,,,0,0,0,0,15,5,185,2,,,,,,,0.9934717182072088,463.86738160000823,None,4,,,,,,,,,,,,,124,120,127,463.4724181000056,463.5803123000078,463.56355520000216,463.76339970000845,4,1,0.276148099990678,463.56355520000216,None,None,None,False,None,None,None,None,None,None,None,None,None,None,None,None,,,,,,,,,,,,,,,,,,,,,,,,,,,,,,IA6LI11,1,Serial_COM3,C:\Users\EEG\Desktop\FINALCoScienceTasksLogfiles\,2022_Jan_05_1225,Flanker,2020.1.3,59.874933240324275,
HSS SSH,HSSSSSH,20,S,,,,,,,,,0,0,0,0,15,6,186,2,,,,,,,0.8926266460397378,465.1513818000094,None,4,,,,,,,,,,,,,124,120,127,464.8646377999976,464.9648090999981,464.9477356999996,None,4,1,0.1809757000009995,464.9477356999996,None,None,None,False,None,None,None,None,None,None,None,None,None,None,None,None,,,,,,,,,,,,,,,,,,,,,,,,,,,,,,IA6LI11,1,Serial_COM3,C:\Users\EEG\Desktop\FINALCoScienceTasksLogfiles\,2022_Jan_05_1225,Flanker,2020.1.3,59.874933240324275,
SSS SSS,SSSHSSS,0,H,,,,,,,,,0,0,0,0,15,7,187,6,,,,,,,0.8153118387422572,466.3409939999983,None,2,,,,,,,,,,,,,104,100,109,466.0561776999966,466.1783237000054,466.13187710000784,None,4,0,0.1775327999930596,466.13187710000784,None,None,None,False,None,None,None,None,None,None,None,None,None,None,None,None,,,,,,,,,,,,,,,,,,,,,,,,,,,,,,IA6LI11,1,Serial_COM3,C:\Users\EEG\Desktop\FINALCoScienceTasksLogfiles\,2022_Jan_05_1225,Flanker,2020.1.3,59.874933240324275,
HHH HHH,HHHHHHH,30,H,,,,,,,,,0,0,0,0,15,8,188,10,,,,,,,0.8127579381578934,467.5572065000015,None,2,,,,,,,,,,,,,134,130,139,467.17300239999895,467.2833236000006,467.2664017000061,467.46660660000634,4,0,0.25909049999609124,467.2664017000061,None,None,None,False,None,None,None,None,None,None,None,None,None,None,None,None,,,,,,,,,,,,,,,,,,,,,,,,,,,,,,IA6LI11,1,Serial_COM3,C:\Users\EEG\Desktop\FINALCoScienceTasksLogfiles\,2022_Jan_05_1225,Flanker,2020.1.3,59.874933240324275,
SSS SSS,SSSSSSS,30,S,,,,,,,,,0,0,0,0,15,9,189,4,,,,,,,0.7702401401570392,468.8127012000041,None,4,,,,,,,,,,,,,134,130,137,468.38650900000357,468.5009999000031,468.48416720000387,468.6841631999996,4,1,0.297636400006013,468.48416720000387,None,None,None,False,None,None,None,None,None,None,None,None,None,None,None,None,,,,,,,,,,,,,,,,,,,,,,,,,,,,,,IA6LI11,1,Serial_COM3,C:\Users\EEG\Desktop\FINALCoScienceTasksLogfiles\,2022_Jan_05_1225,Flanker,2020.1.3,59.874933240324275,
HHH HHH,HHHHHHH,30,H,,,,,,,,,0,0,0,0,15,10,190,9,,,,,,,0.8571240456300953,471.10480370000005,None,2,,,,,,,,,,,,,134,130,136,469.5916981000046,469.702011100002,469.68497309999657,469.8854868000053,2,1,0.3785513000038918,469.68497309999657,None,470.09395609999774,None,False,None,None,None,None,None,None,None,None,None,None,None,None,,,,,,,,,,,,,,,,,,,,,,,,,,,,,,IA6LI11,1,Serial_COM3,C:\Users\EEG\Desktop\FINALCoScienceTasksLogfiles\,2022_Jan_05_1225,Flanker,2020.1.3,59.874933240324275,
SSH HSS,SSHHHSS,10,H,,,,,,,,,0,0,0,0,15,11,191,7,,,,,,,0.9972350866921154,501.61166930000763,None,2,,,,,,,,,,,,,114,110,117,471.9724523000041,472.0867641000077,472.07032600000093,472.2704877000069,2,1,0.31113550000009127,472.07032600000093,None,None,None,False,None,None,None,None,None,472.4127848000062,None,space,474.4056039999996,None,501.4984647000092,None,27.073125199996866,,,,,,,,,,,,,,,,,,,,,,,,,,,,,IA6LI11,1,Serial_COM3,C:\Users\EEG\Desktop\FINALCoScienceTasksLogfiles\,2022_Jan_05_1225,Flanker,2020.1.3,59.874933240324275,
SHH HHS,SHHHHHS,20,H,,,,,,,,,0,0,0,0,16,0,192,8,,,,,,,0.9519285046123948,504.36593770000036,None,2,,,,,,,,,,,,,124,120,126,502.620376100007,502.72952429999714,502.7125245000061,502.9126064000011,2,1,0.6101723000028869,502.7125245000061,None,503.3593857000087,None,False,None,None,None,None,None,None,None,None,None,None,None,None,,,,,,,,,,,,,,,,,,,,,,,,,,,,,,IA6LI11,1,Serial_COM3,C:\Users\EEG\Desktop\FINALCoScienceTasksLogfiles\,2022_Jan_05_1225,Flanker,2020.1.3,59.874933240324275,
HHH HHH,HHHHHHH,30,H,,,,,,,,,0,0,0,0,16,1,193,10,,,,,,,0.8502946959056873,505.7102126999962,None,2,,,,,,,,,,,,,134,130,137,505.33908489999885,505.45040610000433,505.4148576000007,505.61487510000006,2,1,0.2528123000083724,505.4148576000007,None,None,None,False,None,None,None,None,None,None,None,None,None,None,None,None,,,,,,,,,,,,,,,,,,,,,,,,,,,,,,IA6LI11,1,Serial_COM3,C:\Users\EEG\Desktop\FINALCoScienceTasksLogfiles\,2022_Jan_05_1225,Flanker,2020.1.3,59.874933240324275,
