"Onset","Duration","Participant","date_time","Order_Experimenter","Response_Mapping","Running","Trial","Event","ExperimenterPresence","Congruency","Target","Response","Accuracy","RT","RT_Condition","Post_Trial","Cutoff","TaskPerf"
115.022052600005,0.1,"IA6LI11","2022_Jan_05_1225","NotPresent_First","S_blue","Practice",0,"PracFlankers",NA,0.66,"H","None",0,NA,NA,NA,NA,76.7361111111111
115.106875099998,0.2,"IA6LI11","2022_Jan_05_1225","NotPresent_First","S_blue","Practice",0,"PracTarget",NA,0.66,"H","None",0,NA,NA,NA,NA,76.7361111111111
116.107667200005,0.1,"IA6LI11","2022_Jan_05_1225","NotPresent_First","S_blue","Practice",0,"TooSlowFeedback",NA,0.66,"H","None",0,NA,NA,NA,NA,76.7361111111111
118.083916200005,0.1,"IA6LI11","2022_Jan_05_1225","NotPresent_First","S_blue","Practice",1,"PracFlankers",NA,1,"S","4",1,0.433403299990459,NA,NA,NA,76.7361111111111
118.159366799999,0.2,"IA6LI11","2022_Jan_05_1225","NotPresent_First","S_blue","Practice",1,"PracTarget",NA,1,"S","4",1,0.433403299990459,NA,NA,NA,76.7361111111111
118.592770099989,0,"IA6LI11","2022_Jan_05_1225","NotPresent_First","S_blue","Practice",1,"PracResponse",NA,1,"S","4",1,0.433403299990459,NA,NA,NA,76.7361111111111
119.384336100004,0.1,"IA6LI11","2022_Jan_05_1225","NotPresent_First","S_blue","Practice",2,"PracFlankers",NA,0,"S","None",0,NA,NA,NA,NA,76.7361111111111
119.477356700008,0.2,"IA6LI11","2022_Jan_05_1225","NotPresent_First","S_blue","Practice",2,"PracTarget",NA,0,"S","None",0,NA,NA,NA,NA,76.7361111111111
120.478002200005,0.1,"IA6LI11","2022_Jan_05_1225","NotPresent_First","S_blue","Practice",2,"TooSlowFeedback",NA,0,"S","None",0,NA,NA,NA,NA,76.7361111111111
122.370937600004,0.1,"IA6LI11","2022_Jan_05_1225","NotPresent_First","S_blue","Practice",3,"PracFlankers",NA,0.66,"S","4",1,0.349573400002555,NA,NA,NA,76.7361111111111
122.462978299998,0.2,"IA6LI11","2022_Jan_05_1225","NotPresent_First","S_blue","Practice",3,"PracTarget",NA,0.66,"S","4",1,0.349573400002555,NA,NA,NA,76.7361111111111
122.812551700001,0,"IA6LI11","2022_Jan_05_1225","NotPresent_First","S_blue","Practice",3,"PracResponse",NA,0.66,"S","4",1,0.349573400002555,NA,NA,NA,76.7361111111111
123.782754500004,0.1,"IA6LI11","2022_Jan_05_1225","NotPresent_First","S_blue","Practice",4,"PracFlankers",NA,1,"S","4",1,0.329718499997398,NA,NA,NA,76.7361111111111
123.8808746,0.2,"IA6LI11","2022_Jan_05_1225","NotPresent_First","S_blue","Practice",4,"PracTarget",NA,1,"S","4",1,0.329718499997398,NA,NA,NA,76.7361111111111
124.210593099997,0,"IA6LI11","2022_Jan_05_1225","NotPresent_First","S_blue","Practice",4,"PracResponse",NA,1,"S","4",1,0.329718499997398,NA,NA,NA,76.7361111111111
125.115453599996,0.1,"IA6LI11","2022_Jan_05_1225","NotPresent_First","S_blue","Practice",5,"PracFlankers",NA,1,"S","4",1,0.285574000008637,NA,NA,NA,76.7361111111111
125.198653600004,0.2,"IA6LI11","2022_Jan_05_1225","NotPresent_First","S_blue","Practice",5,"PracTarget",NA,1,"S","4",1,0.285574000008637,NA,NA,NA,76.7361111111111
125.484227600013,0,"IA6LI11","2022_Jan_05_1225","NotPresent_First","S_blue","Practice",5,"PracResponse",NA,1,"S","4",1,0.285574000008637,NA,NA,NA,76.7361111111111
126.485183500001,0.1,"IA6LI11","2022_Jan_05_1225","NotPresent_First","S_blue","Practice",6,"PracFlankers",NA,0,"H","4",0,0.26900129999558,NA,NA,NA,76.7361111111111
126.583193099999,0.2,"IA6LI11","2022_Jan_05_1225","NotPresent_First","S_blue","Practice",6,"PracTarget",NA,0,"H","4",0,0.26900129999558,NA,NA,NA,76.7361111111111
126.852194399995,0,"IA6LI11","2022_Jan_05_1225","NotPresent_First","S_blue","Practice",6,"PracResponse",NA,0,"H","4",0,0.26900129999558,NA,NA,NA,76.7361111111111
127.741882000002,0.1,"IA6LI11","2022_Jan_05_1225","NotPresent_First","S_blue","Practice",7,"PracFlankers",NA,0.33,"S","4",1,0.320816299994476,NA,NA,NA,76.7361111111111
127.817435999998,0.2,"IA6LI11","2022_Jan_05_1225","NotPresent_First","S_blue","Practice",7,"PracTarget",NA,0.33,"S","4",1,0.320816299994476,NA,NA,NA,76.7361111111111
128.138252299992,0,"IA6LI11","2022_Jan_05_1225","NotPresent_First","S_blue","Practice",7,"PracResponse",NA,0.33,"S","4",1,0.320816299994476,NA,NA,NA,76.7361111111111
129.025418899997,0.1,"IA6LI11","2022_Jan_05_1225","NotPresent_First","S_blue","Practice",8,"PracFlankers",NA,0.66,"S","4",1,0.310661199997412,NA,NA,NA,76.7361111111111
129.118483700004,0.2,"IA6LI11","2022_Jan_05_1225","NotPresent_First","S_blue","Practice",8,"PracTarget",NA,0.66,"S","4",1,0.310661199997412,NA,NA,NA,76.7361111111111
129.429144900001,0,"IA6LI11","2022_Jan_05_1225","NotPresent_First","S_blue","Practice",8,"PracResponse",NA,0.66,"S","4",1,0.310661199997412,NA,NA,NA,76.7361111111111
130.426169600003,0.1,"IA6LI11","2022_Jan_05_1225","NotPresent_First","S_blue","Practice",9,"PracFlankers",NA,0.33,"H","4",0,0.266749599992181,NA,NA,NA,76.7361111111111
130.519645799999,0.2,"IA6LI11","2022_Jan_05_1225","NotPresent_First","S_blue","Practice",9,"PracTarget",NA,0.33,"H","4",0,0.266749599992181,NA,NA,NA,76.7361111111111
130.786395399991,0,"IA6LI11","2022_Jan_05_1225","NotPresent_First","S_blue","Practice",9,"PracResponse",NA,0.33,"H","4",0,0.266749599992181,NA,NA,NA,76.7361111111111
131.694297199996,0.1,"IA6LI11","2022_Jan_05_1225","NotPresent_First","S_blue","Practice",10,"PracFlankers",NA,1,"S","4",1,0.325846300009289,NA,NA,NA,76.7361111111111
131.787387799995,0.2,"IA6LI11","2022_Jan_05_1225","NotPresent_First","S_blue","Practice",10,"PracTarget",NA,1,"S","4",1,0.325846300009289,NA,NA,NA,76.7361111111111
132.113234100005,0,"IA6LI11","2022_Jan_05_1225","NotPresent_First","S_blue","Practice",10,"PracResponse",NA,1,"S","4",1,0.325846300009289,NA,NA,NA,76.7361111111111
132.930137300005,0.1,"IA6LI11","2022_Jan_05_1225","NotPresent_First","S_blue","Practice",11,"PracFlankers",NA,1,"H","2",1,0.377373900002567,NA,NA,NA,76.7361111111111
133.021808500009,0.2,"IA6LI11","2022_Jan_05_1225","NotPresent_First","S_blue","Practice",11,"PracTarget",NA,1,"H","2",1,0.377373900002567,NA,NA,NA,76.7361111111111
133.399182400011,0,"IA6LI11","2022_Jan_05_1225","NotPresent_First","S_blue","Practice",11,"PracResponse",NA,1,"H","2",1,0.377373900002567,NA,NA,NA,76.7361111111111
134.423087600007,0.1,"IA6LI11","2022_Jan_05_1225","NotPresent_First","S_blue","Practice",12,"PracFlankers",NA,1,"H","2",1,0.286820599998464,NA,NA,NA,76.7361111111111
134.506332300007,0.2,"IA6LI11","2022_Jan_05_1225","NotPresent_First","S_blue","Practice",12,"PracTarget",NA,1,"H","2",1,0.286820599998464,NA,NA,NA,76.7361111111111
134.793152900005,0,"IA6LI11","2022_Jan_05_1225","NotPresent_First","S_blue","Practice",12,"PracResponse",NA,1,"H","2",1,0.286820599998464,NA,NA,NA,76.7361111111111
135.774355400004,0.1,"IA6LI11","2022_Jan_05_1225","NotPresent_First","S_blue","Practice",13,"PracFlankers",NA,1,"H","2",1,0.298733899995568,NA,NA,NA,76.7361111111111
135.857468300004,0.2,"IA6LI11","2022_Jan_05_1225","NotPresent_First","S_blue","Practice",13,"PracTarget",NA,1,"H","2",1,0.298733899995568,NA,NA,NA,76.7361111111111
136.1562022,0,"IA6LI11","2022_Jan_05_1225","NotPresent_First","S_blue","Practice",13,"PracResponse",NA,1,"H","2",1,0.298733899995568,NA,NA,NA,76.7361111111111
137.142193699998,0.1,"IA6LI11","2022_Jan_05_1225","NotPresent_First","S_blue","Practice",14,"PracFlankers",NA,1,"H","2",1,0.28991710000264,NA,NA,NA,76.7361111111111
137.225286500005,0.2,"IA6LI11","2022_Jan_05_1225","NotPresent_First","S_blue","Practice",14,"PracTarget",NA,1,"H","2",1,0.28991710000264,NA,NA,NA,76.7361111111111
137.515203600007,0,"IA6LI11","2022_Jan_05_1225","NotPresent_First","S_blue","Practice",14,"PracResponse",NA,1,"H","2",1,0.28991710000264,NA,NA,NA,76.7361111111111
150.810701199996,0.1,"IA6LI11","2022_Jan_05_1225","NotPresent_First","S_blue","MainTask",0,"Flanker","absent",1,"H","2",1,0.330120699989493,"fast",NA,0.333689481019974,76.7361111111111
150.903703100004,0.2,"IA6LI11","2022_Jan_05_1225","NotPresent_First","S_blue","MainTask",0,"Target","absent",1,"H","2",1,0.330120699989493,"fast",NA,0.333689481019974,76.7361111111111
151.233823799994,0,"IA6LI11","2022_Jan_05_1225","NotPresent_First","S_blue","MainTask",0,"Response","absent",1,"H","2",1,0.330120699989493,"fast",NA,0.333689481019974,76.7361111111111
152.198140599998,0.1,"IA6LI11","2022_Jan_05_1225","NotPresent_First","S_blue","MainTask",1,"Flanker","absent",0.66,"S","4",1,0.268595600005938,"fast","post_correct",0.333689481019974,76.7361111111111
152.287957200009,0.2,"IA6LI11","2022_Jan_05_1225","NotPresent_First","S_blue","MainTask",1,"Target","absent",0.66,"S","4",1,0.268595600005938,"fast","post_correct",0.333689481019974,76.7361111111111
152.556552800015,0,"IA6LI11","2022_Jan_05_1225","NotPresent_First","S_blue","MainTask",1,"Response","absent",0.66,"S","4",1,0.268595600005938,"fast","post_correct",0.333689481019974,76.7361111111111
153.428872200006,0.1,"IA6LI11","2022_Jan_05_1225","NotPresent_First","S_blue","MainTask",2,"Flanker","absent",0.33,"H","2",1,0.427600800001528,"slow","post_correct",0.333689481019974,76.7361111111111
153.521892200006,0.2,"IA6LI11","2022_Jan_05_1225","NotPresent_First","S_blue","MainTask",2,"Target","absent",0.33,"H","2",1,0.427600800001528,"slow","post_correct",0.333689481019974,76.7361111111111
153.949493000007,0,"IA6LI11","2022_Jan_05_1225","NotPresent_First","S_blue","MainTask",2,"Response","absent",0.33,"H","2",1,0.427600800001528,"slow","post_correct",0.333689481019974,76.7361111111111
153.986753699995,0.1,"IA6LI11","2022_Jan_05_1225","NotPresent_First","S_blue","MainTask",2,"TooSlowFeedback","absent",0.33,"H","2",1,0.427600800001528,"slow","post_correct",0.333689481019974,76.7361111111111
155.917535200002,0.1,"IA6LI11","2022_Jan_05_1225","NotPresent_First","S_blue","MainTask",3,"Flanker","absent",0.33,"S","4",1,0.435119100002339,"slow","post_correct",0.333689481019974,76.7361111111111
156.007547500005,0.2,"IA6LI11","2022_Jan_05_1225","NotPresent_First","S_blue","MainTask",3,"Target","absent",0.33,"S","4",1,0.435119100002339,"slow","post_correct",0.333689481019974,76.7361111111111
156.442666600007,0,"IA6LI11","2022_Jan_05_1225","NotPresent_First","S_blue","MainTask",3,"Response","absent",0.33,"S","4",1,0.435119100002339,"slow","post_correct",0.333689481019974,76.7361111111111
156.465786700006,0.1,"IA6LI11","2022_Jan_05_1225","NotPresent_First","S_blue","MainTask",3,"TooSlowFeedback","absent",0.33,"S","4",1,0.435119100002339,"slow","post_correct",0.333689481019974,76.7361111111111
158.428417300005,0.1,"IA6LI11","2022_Jan_05_1225","NotPresent_First","S_blue","MainTask",4,"Flanker","absent",0.66,"S","4",1,0.286338199992315,"fast","post_correct",0.333689481019974,76.7361111111111
158.526301400008,0.2,"IA6LI11","2022_Jan_05_1225","NotPresent_First","S_blue","MainTask",4,"Target","absent",0.66,"S","4",1,0.286338199992315,"fast","post_correct",0.333689481019974,76.7361111111111
158.812639600001,0,"IA6LI11","2022_Jan_05_1225","NotPresent_First","S_blue","MainTask",4,"Response","absent",0.66,"S","4",1,0.286338199992315,"fast","post_correct",0.333689481019974,76.7361111111111
159.770774400007,0.1,"IA6LI11","2022_Jan_05_1225","NotPresent_First","S_blue","MainTask",5,"Flanker","absent",0.33,"S","4",1,0.336680499996874,"slow","post_correct",0.333689481019974,76.7361111111111
159.860882100009,0.2,"IA6LI11","2022_Jan_05_1225","NotPresent_First","S_blue","MainTask",5,"Target","absent",0.33,"S","4",1,0.336680499996874,"slow","post_correct",0.333689481019974,76.7361111111111
160.197562600006,0,"IA6LI11","2022_Jan_05_1225","NotPresent_First","S_blue","MainTask",5,"Response","absent",0.33,"S","4",1,0.336680499996874,"slow","post_correct",0.333689481019974,76.7361111111111
160.236722700007,0.1,"IA6LI11","2022_Jan_05_1225","NotPresent_First","S_blue","MainTask",5,"TooSlowFeedback","absent",0.33,"S","4",1,0.336680499996874,"slow","post_correct",0.333689481019974,76.7361111111111
162.087969900007,0.1,"IA6LI11","2022_Jan_05_1225","NotPresent_First","S_blue","MainTask",6,"Flanker","absent",1,"S","4",1,0.280986400000984,"fast","post_correct",0.333689481019974,76.7361111111111
162.162780600003,0.2,"IA6LI11","2022_Jan_05_1225","NotPresent_First","S_blue","MainTask",6,"Target","absent",1,"S","4",1,0.280986400000984,"fast","post_correct",0.333689481019974,76.7361111111111
162.443767000004,0,"IA6LI11","2022_Jan_05_1225","NotPresent_First","S_blue","MainTask",6,"Response","absent",1,"S","4",1,0.280986400000984,"fast","post_correct",0.333689481019974,76.7361111111111
163.289471399999,0.1,"IA6LI11","2022_Jan_05_1225","NotPresent_First","S_blue","MainTask",7,"Flanker","absent",0.33,"H","2",1,0.334250899992185,"slow","post_correct",0.333689481019974,76.7361111111111
163.380322800003,0.2,"IA6LI11","2022_Jan_05_1225","NotPresent_First","S_blue","MainTask",7,"Target","absent",0.33,"H","2",1,0.334250899992185,"slow","post_correct",0.333689481019974,76.7361111111111
163.714573699996,0,"IA6LI11","2022_Jan_05_1225","NotPresent_First","S_blue","MainTask",7,"Response","absent",0.33,"H","2",1,0.334250899992185,"slow","post_correct",0.333689481019974,76.7361111111111
163.743334700004,0.1,"IA6LI11","2022_Jan_05_1225","NotPresent_First","S_blue","MainTask",7,"TooSlowFeedback","absent",0.33,"H","2",1,0.334250899992185,"slow","post_correct",0.333689481019974,76.7361111111111
165.672293600001,0.1,"IA6LI11","2022_Jan_05_1225","NotPresent_First","S_blue","MainTask",8,"Flanker","absent",0.66,"H","2",1,0.282108400002471,"fast","post_correct",0.333689481019974,76.7361111111111
165.765748599995,0.2,"IA6LI11","2022_Jan_05_1225","NotPresent_First","S_blue","MainTask",8,"Target","absent",0.66,"H","2",1,0.282108400002471,"fast","post_correct",0.333689481019974,76.7361111111111
166.047856999998,0,"IA6LI11","2022_Jan_05_1225","NotPresent_First","S_blue","MainTask",8,"Response","absent",0.66,"H","2",1,0.282108400002471,"fast","post_correct",0.333689481019974,76.7361111111111
166.958589400005,0.1,"IA6LI11","2022_Jan_05_1225","NotPresent_First","S_blue","MainTask",9,"Flanker","absent",0.33,"H","2",1,0.25517229999241,"fast","post_correct",0.333689481019974,76.7361111111111
167.033332000006,0.2,"IA6LI11","2022_Jan_05_1225","NotPresent_First","S_blue","MainTask",9,"Target","absent",0.33,"H","2",1,0.25517229999241,"fast","post_correct",0.333689481019974,76.7361111111111
167.288504299999,0,"IA6LI11","2022_Jan_05_1225","NotPresent_First","S_blue","MainTask",9,"Response","absent",0.33,"H","2",1,0.25517229999241,"fast","post_correct",0.333689481019974,76.7361111111111
168.191515900005,0.1,"IA6LI11","2022_Jan_05_1225","NotPresent_First","S_blue","MainTask",10,"Flanker","absent",1,"H","2",1,0.247333099992829,"fast","post_correct",0.333689481019974,76.7361111111111
168.284429399995,0.2,"IA6LI11","2022_Jan_05_1225","NotPresent_First","S_blue","MainTask",10,"Target","absent",1,"H","2",1,0.247333099992829,"fast","post_correct",0.333689481019974,76.7361111111111
168.531762499988,0,"IA6LI11","2022_Jan_05_1225","NotPresent_First","S_blue","MainTask",10,"Response","absent",1,"H","2",1,0.247333099992829,"fast","post_correct",0.333689481019974,76.7361111111111
169.437575100004,0.1,"IA6LI11","2022_Jan_05_1225","NotPresent_First","S_blue","MainTask",11,"Flanker","absent",0,"S","2",0,0.265235200000461,"fast","post_correct",0.333689481019974,76.7361111111111
169.535512800008,0.2,"IA6LI11","2022_Jan_05_1225","NotPresent_First","S_blue","MainTask",11,"Target","absent",0,"S","2",0,0.265235200000461,"fast","post_correct",0.333689481019974,76.7361111111111
169.800748000009,0,"IA6LI11","2022_Jan_05_1225","NotPresent_First","S_blue","MainTask",11,"Response","absent",0,"S","2",0,0.265235200000461,"fast","post_correct",0.333689481019974,76.7361111111111
170.693970799999,0.1,"IA6LI11","2022_Jan_05_1225","NotPresent_First","S_blue","MainTask",12,"Flanker","absent",0.66,"S","4",1,0.425945399998454,"slow","post_error",0.333689481019974,76.7361111111111
170.786514899999,0.2,"IA6LI11","2022_Jan_05_1225","NotPresent_First","S_blue","MainTask",12,"Target","absent",0.66,"S","4",1,0.425945399998454,"slow","post_error",0.333689481019974,76.7361111111111
171.212460299997,0,"IA6LI11","2022_Jan_05_1225","NotPresent_First","S_blue","MainTask",12,"Response","absent",0.66,"S","4",1,0.425945399998454,"slow","post_error",0.333689481019974,76.7361111111111
171.2502141,0.1,"IA6LI11","2022_Jan_05_1225","NotPresent_First","S_blue","MainTask",12,"TooSlowFeedback","absent",0.66,"S","4",1,0.425945399998454,"slow","post_error",0.333689481019974,76.7361111111111
173.045166199998,0.1,"IA6LI11","2022_Jan_05_1225","NotPresent_First","S_blue","MainTask",13,"Flanker","absent",1,"H","2",1,0.349187100000563,"slow","post_correct",0.333689481019974,76.7361111111111
173.138455599998,0.2,"IA6LI11","2022_Jan_05_1225","NotPresent_First","S_blue","MainTask",13,"Target","absent",1,"H","2",1,0.349187100000563,"slow","post_correct",0.333689481019974,76.7361111111111
173.487642699998,0,"IA6LI11","2022_Jan_05_1225","NotPresent_First","S_blue","MainTask",13,"Response","absent",1,"H","2",1,0.349187100000563,"slow","post_correct",0.333689481019974,76.7361111111111
173.518705099996,0.1,"IA6LI11","2022_Jan_05_1225","NotPresent_First","S_blue","MainTask",13,"TooSlowFeedback","absent",1,"H","2",1,0.349187100000563,"slow","post_correct",0.333689481019974,76.7361111111111
175.499421300003,0.1,"IA6LI11","2022_Jan_05_1225","NotPresent_First","S_blue","MainTask",14,"Flanker","absent",1,"S","4",1,0.28607839999313,"fast","post_correct",0.333689481019974,76.7361111111111
175.590532000002,0.2,"IA6LI11","2022_Jan_05_1225","NotPresent_First","S_blue","MainTask",14,"Target","absent",1,"S","4",1,0.28607839999313,"fast","post_correct",0.333689481019974,76.7361111111111
175.876610399995,0,"IA6LI11","2022_Jan_05_1225","NotPresent_First","S_blue","MainTask",14,"Response","absent",1,"S","4",1,0.28607839999313,"fast","post_correct",0.333689481019974,76.7361111111111
176.849474800008,0.1,"IA6LI11","2022_Jan_05_1225","NotPresent_First","S_blue","MainTask",15,"Flanker","absent",0.66,"H","2",1,0.26325820000784,"fast","post_correct",0.333689481019974,76.7361111111111
176.941645400002,0.2,"IA6LI11","2022_Jan_05_1225","NotPresent_First","S_blue","MainTask",15,"Target","absent",0.66,"H","2",1,0.26325820000784,"fast","post_correct",0.333689481019974,76.7361111111111
177.20490360001,0,"IA6LI11","2022_Jan_05_1225","NotPresent_First","S_blue","MainTask",15,"Response","absent",0.66,"H","2",1,0.26325820000784,"fast","post_correct",0.333689481019974,76.7361111111111
178.232955500003,0.1,"IA6LI11","2022_Jan_05_1225","NotPresent_First","S_blue","MainTask",16,"Flanker","absent",0.33,"H","4",0,0.240371399995638,"fast","post_correct",0.333689481019974,76.7361111111111
178.326224000004,0.2,"IA6LI11","2022_Jan_05_1225","NotPresent_First","S_blue","MainTask",16,"Target","absent",0.33,"H","4",0,0.240371399995638,"fast","post_correct",0.333689481019974,76.7361111111111
178.5665954,0,"IA6LI11","2022_Jan_05_1225","NotPresent_First","S_blue","MainTask",16,"Response","absent",0.33,"H","4",0,0.240371399995638,"fast","post_correct",0.333689481019974,76.7361111111111
179.517780800001,0.1,"IA6LI11","2022_Jan_05_1225","NotPresent_First","S_blue","MainTask",17,"Flanker","absent",1,"H","2",1,0.355114399993909,"slow","post_error",0.333689481019974,76.7361111111111
179.610584900001,0.2,"IA6LI11","2022_Jan_05_1225","NotPresent_First","S_blue","MainTask",17,"Target","absent",1,"H","2",1,0.355114399993909,"slow","post_error",0.333689481019974,76.7361111111111
179.965699299995,0,"IA6LI11","2022_Jan_05_1225","NotPresent_First","S_blue","MainTask",17,"Response","absent",1,"H","2",1,0.355114399993909,"slow","post_error",0.333689481019974,76.7361111111111
180.0075775,0.1,"IA6LI11","2022_Jan_05_1225","NotPresent_First","S_blue","MainTask",17,"TooSlowFeedback","absent",1,"H","2",1,0.355114399993909,"slow","post_error",0.333689481019974,76.7361111111111
181.953090099996,0.1,"IA6LI11","2022_Jan_05_1225","NotPresent_First","S_blue","MainTask",18,"Flanker","absent",0,"H","4",0,0.30362010000681,"fast","post_correct",0.333689481019974,76.7361111111111
182.028805199996,0.2,"IA6LI11","2022_Jan_05_1225","NotPresent_First","S_blue","MainTask",18,"Target","absent",0,"H","4",0,0.30362010000681,"fast","post_correct",0.333689481019974,76.7361111111111
182.332425300003,0,"IA6LI11","2022_Jan_05_1225","NotPresent_First","S_blue","MainTask",18,"Response","absent",0,"H","4",0,0.30362010000681,"fast","post_correct",0.333689481019974,76.7361111111111
183.365115599998,0.1,"IA6LI11","2022_Jan_05_1225","NotPresent_First","S_blue","MainTask",19,"Flanker","absent",0.66,"H","4",0,0.275484200014034,"fast","post_error",0.333689481019974,76.7361111111111
183.447073700008,0.2,"IA6LI11","2022_Jan_05_1225","NotPresent_First","S_blue","MainTask",19,"Target","absent",0.66,"H","4",0,0.275484200014034,"fast","post_error",0.333689481019974,76.7361111111111
183.722557900022,0,"IA6LI11","2022_Jan_05_1225","NotPresent_First","S_blue","MainTask",19,"Response","absent",0.66,"H","4",0,0.275484200014034,"fast","post_error",0.333689481019974,76.7361111111111
184.623846200004,0.1,"IA6LI11","2022_Jan_05_1225","NotPresent_First","S_blue","MainTask",20,"Flanker","absent",0.33,"H","2",1,0.281069200005732,"fast","post_error",0.333689481019974,76.7361111111111
184.714751000007,0.2,"IA6LI11","2022_Jan_05_1225","NotPresent_First","S_blue","MainTask",20,"Target","absent",0.33,"H","2",1,0.281069200005732,"fast","post_error",0.333689481019974,76.7361111111111
184.995820200013,0,"IA6LI11","2022_Jan_05_1225","NotPresent_First","S_blue","MainTask",20,"Response","absent",0.33,"H","2",1,0.281069200005732,"fast","post_error",0.333689481019974,76.7361111111111
185.9931469,0.1,"IA6LI11","2022_Jan_05_1225","NotPresent_First","S_blue","MainTask",21,"Flanker","absent",1,"S","4",1,0.255764699992142,"fast","post_correct",0.333689481019974,76.7361111111111
186.082669900003,0.2,"IA6LI11","2022_Jan_05_1225","NotPresent_First","S_blue","MainTask",21,"Target","absent",1,"S","4",1,0.255764699992142,"fast","post_correct",0.333689481019974,76.7361111111111
186.338434599995,0,"IA6LI11","2022_Jan_05_1225","NotPresent_First","S_blue","MainTask",21,"Response","absent",1,"S","4",1,0.255764699992142,"fast","post_correct",0.333689481019974,76.7361111111111
187.267238900007,0.1,"IA6LI11","2022_Jan_05_1225","NotPresent_First","S_blue","MainTask",22,"Flanker","absent",1,"S","2",0,0.238804900000105,"fast","post_correct",0.333689481019974,76.7361111111111
187.349937400009,0.2,"IA6LI11","2022_Jan_05_1225","NotPresent_First","S_blue","MainTask",22,"Target","absent",1,"S","2",0,0.238804900000105,"fast","post_correct",0.333689481019974,76.7361111111111
187.588742300009,0,"IA6LI11","2022_Jan_05_1225","NotPresent_First","S_blue","MainTask",22,"Response","absent",1,"S","2",0,0.238804900000105,"fast","post_correct",0.333689481019974,76.7361111111111
188.453322500005,0.1,"IA6LI11","2022_Jan_05_1225","NotPresent_First","S_blue","MainTask",23,"Flanker","absent",0.66,"S","4",1,0.313305499992566,"fast","post_error",0.333689481019974,76.7361111111111
188.551457599999,0.2,"IA6LI11","2022_Jan_05_1225","NotPresent_First","S_blue","MainTask",23,"Target","absent",0.66,"S","4",1,0.313305499992566,"fast","post_error",0.333689481019974,76.7361111111111
188.864763099991,0,"IA6LI11","2022_Jan_05_1225","NotPresent_First","S_blue","MainTask",23,"Response","absent",0.66,"S","4",1,0.313305499992566,"fast","post_error",0.333689481019974,76.7361111111111
189.744044400009,0.1,"IA6LI11","2022_Jan_05_1225","NotPresent_First","S_blue","MainTask",24,"Flanker","absent",1,"S","4",1,0.242637500006822,"fast","post_correct",0.333689481019974,76.7361111111111
189.835775200001,0.2,"IA6LI11","2022_Jan_05_1225","NotPresent_First","S_blue","MainTask",24,"Target","absent",1,"S","4",1,0.242637500006822,"fast","post_correct",0.333689481019974,76.7361111111111
190.078412700008,0,"IA6LI11","2022_Jan_05_1225","NotPresent_First","S_blue","MainTask",24,"Response","absent",1,"S","4",1,0.242637500006822,"fast","post_correct",0.333689481019974,76.7361111111111
191.113650800005,0.1,"IA6LI11","2022_Jan_05_1225","NotPresent_First","S_blue","MainTask",25,"Flanker","absent",1,"H","2",1,0.270243100007065,"fast","post_correct",0.333689481019974,76.7361111111111
191.203206400009,0.2,"IA6LI11","2022_Jan_05_1225","NotPresent_First","S_blue","MainTask",25,"Target","absent",1,"H","2",1,0.270243100007065,"fast","post_correct",0.333689481019974,76.7361111111111
191.473449500016,0,"IA6LI11","2022_Jan_05_1225","NotPresent_First","S_blue","MainTask",25,"Response","absent",1,"H","2",1,0.270243100007065,"fast","post_correct",0.333689481019974,76.7361111111111
192.310809999995,0.1,"IA6LI11","2022_Jan_05_1225","NotPresent_First","S_blue","MainTask",26,"Flanker","absent",0.33,"S","4",1,0.218418999997084,"fast","post_correct",0.333689481019974,76.7361111111111
192.404230500004,0.2,"IA6LI11","2022_Jan_05_1225","NotPresent_First","S_blue","MainTask",26,"Target","absent",0.33,"S","4",1,0.218418999997084,"fast","post_correct",0.333689481019974,76.7361111111111
192.622649500001,0,"IA6LI11","2022_Jan_05_1225","NotPresent_First","S_blue","MainTask",26,"Response","absent",0.33,"S","4",1,0.218418999997084,"fast","post_correct",0.333689481019974,76.7361111111111
193.498434599998,0.1,"IA6LI11","2022_Jan_05_1225","NotPresent_First","S_blue","MainTask",27,"Flanker","absent",1,"S","4",1,0.261465399991721,"fast","post_correct",0.333689481019974,76.7361111111111
193.589028700007,0.2,"IA6LI11","2022_Jan_05_1225","NotPresent_First","S_blue","MainTask",27,"Target","absent",1,"S","4",1,0.261465399991721,"fast","post_correct",0.333689481019974,76.7361111111111
193.850494099999,0,"IA6LI11","2022_Jan_05_1225","NotPresent_First","S_blue","MainTask",27,"Response","absent",1,"S","4",1,0.261465399991721,"fast","post_correct",0.333689481019974,76.7361111111111
194.7401082,0.1,"IA6LI11","2022_Jan_05_1225","NotPresent_First","S_blue","MainTask",28,"Flanker","absent",1,"S","4",1,0.215380499997991,"fast","post_correct",0.333689481019974,76.7361111111111
194.823221600003,0.2,"IA6LI11","2022_Jan_05_1225","NotPresent_First","S_blue","MainTask",28,"Target","absent",1,"S","4",1,0.215380499997991,"fast","post_correct",0.333689481019974,76.7361111111111
195.038602100001,0,"IA6LI11","2022_Jan_05_1225","NotPresent_First","S_blue","MainTask",28,"Response","absent",1,"S","4",1,0.215380499997991,"fast","post_correct",0.333689481019974,76.7361111111111
196.007626200008,0.1,"IA6LI11","2022_Jan_05_1225","NotPresent_First","S_blue","MainTask",29,"Flanker","absent",1,"S","4",1,0.237603899993701,"fast","post_correct",0.333689481019974,76.7361111111111
196.090875000009,0.2,"IA6LI11","2022_Jan_05_1225","NotPresent_First","S_blue","MainTask",29,"Target","absent",1,"S","4",1,0.237603899993701,"fast","post_correct",0.333689481019974,76.7361111111111
196.328478900003,0,"IA6LI11","2022_Jan_05_1225","NotPresent_First","S_blue","MainTask",29,"Response","absent",1,"S","4",1,0.237603899993701,"fast","post_correct",0.333689481019974,76.7361111111111
197.158791399997,0.1,"IA6LI11","2022_Jan_05_1225","NotPresent_First","S_blue","MainTask",30,"Flanker","absent",1,"S","4",1,0.287787799999933,"fast","post_correct",0.333689481019974,76.7361111111111
197.241827599995,0.2,"IA6LI11","2022_Jan_05_1225","NotPresent_First","S_blue","MainTask",30,"Target","absent",1,"S","4",1,0.287787799999933,"fast","post_correct",0.333689481019974,76.7361111111111
197.529615399995,0,"IA6LI11","2022_Jan_05_1225","NotPresent_First","S_blue","MainTask",30,"Response","absent",1,"S","4",1,0.287787799999933,"fast","post_correct",0.333689481019974,76.7361111111111
198.449952800001,0.1,"IA6LI11","2022_Jan_05_1225","NotPresent_First","S_blue","MainTask",31,"Flanker","absent",1,"H","2",1,0.26690950000193,"fast","post_correct",0.333689481019974,76.7361111111111
198.526025800005,0.2,"IA6LI11","2022_Jan_05_1225","NotPresent_First","S_blue","MainTask",31,"Target","absent",1,"H","2",1,0.26690950000193,"fast","post_correct",0.333689481019974,76.7361111111111
198.792935300007,0,"IA6LI11","2022_Jan_05_1225","NotPresent_First","S_blue","MainTask",31,"Response","absent",1,"H","2",1,0.26690950000193,"fast","post_correct",0.333689481019974,76.7361111111111
199.718513100001,0.1,"IA6LI11","2022_Jan_05_1225","NotPresent_First","S_blue","MainTask",32,"Flanker","absent",1,"S","4",1,0.297776099992916,"fast","post_correct",0.333689481019974,76.7361111111111
199.793938800009,0.2,"IA6LI11","2022_Jan_05_1225","NotPresent_First","S_blue","MainTask",32,"Target","absent",1,"S","4",1,0.297776099992916,"fast","post_correct",0.333689481019974,76.7361111111111
200.091714900002,0,"IA6LI11","2022_Jan_05_1225","NotPresent_First","S_blue","MainTask",32,"Response","absent",1,"S","4",1,0.297776099992916,"fast","post_correct",0.333689481019974,76.7361111111111
200.921603099996,0.1,"IA6LI11","2022_Jan_05_1225","NotPresent_First","S_blue","MainTask",33,"Flanker","absent",0.33,"S","4",1,0.234053399995901,"fast","post_correct",0.333689481019974,76.7361111111111
201.011686600003,0.2,"IA6LI11","2022_Jan_05_1225","NotPresent_First","S_blue","MainTask",33,"Target","absent",0.33,"S","4",1,0.234053399995901,"fast","post_correct",0.333689481019974,76.7361111111111
201.245739999998,0,"IA6LI11","2022_Jan_05_1225","NotPresent_First","S_blue","MainTask",33,"Response","absent",0.33,"S","4",1,0.234053399995901,"fast","post_correct",0.333689481019974,76.7361111111111
202.252894400008,0.1,"IA6LI11","2022_Jan_05_1225","NotPresent_First","S_blue","MainTask",34,"Flanker","absent",0,"S","2",0,0.308732400008012,"fast","post_correct",0.333689481019974,76.7361111111111
202.345858700006,0.2,"IA6LI11","2022_Jan_05_1225","NotPresent_First","S_blue","MainTask",34,"Target","absent",0,"S","2",0,0.308732400008012,"fast","post_correct",0.333689481019974,76.7361111111111
202.654591100014,0,"IA6LI11","2022_Jan_05_1225","NotPresent_First","S_blue","MainTask",34,"Response","absent",0,"S","2",0,0.308732400008012,"fast","post_correct",0.333689481019974,76.7361111111111
203.487284500006,0.1,"IA6LI11","2022_Jan_05_1225","NotPresent_First","S_blue","MainTask",35,"Flanker","absent",0.66,"S","4",1,0.23706330001005,"fast","post_error",0.333689481019974,76.7361111111111
203.580556200002,0.2,"IA6LI11","2022_Jan_05_1225","NotPresent_First","S_blue","MainTask",35,"Target","absent",0.66,"S","4",1,0.23706330001005,"fast","post_error",0.333689481019974,76.7361111111111
203.817619500012,0,"IA6LI11","2022_Jan_05_1225","NotPresent_First","S_blue","MainTask",35,"Response","absent",0.66,"S","4",1,0.23706330001005,"fast","post_error",0.333689481019974,76.7361111111111
204.671958699997,0.1,"IA6LI11","2022_Jan_05_1225","NotPresent_First","S_blue","MainTask",36,"Flanker","absent",1,"S","4",1,0.172509199997876,"fast","post_correct",0.333689481019974,76.7361111111111
204.747996599996,0.2,"IA6LI11","2022_Jan_05_1225","NotPresent_First","S_blue","MainTask",36,"Target","absent",1,"S","4",1,0.172509199997876,"fast","post_correct",0.333689481019974,76.7361111111111
204.920505799993,0,"IA6LI11","2022_Jan_05_1225","NotPresent_First","S_blue","MainTask",36,"Response","absent",1,"S","4",1,0.172509199997876,"fast","post_correct",0.333689481019974,76.7361111111111
205.733088499997,0.1,"IA6LI11","2022_Jan_05_1225","NotPresent_First","S_blue","MainTask",37,"Flanker","absent",1,"S","4",1,0.257800999999745,"fast","post_correct",0.333689481019974,76.7361111111111
205.815671600008,0.2,"IA6LI11","2022_Jan_05_1225","NotPresent_First","S_blue","MainTask",37,"Target","absent",1,"S","4",1,0.257800999999745,"fast","post_correct",0.333689481019974,76.7361111111111
206.073472600008,0,"IA6LI11","2022_Jan_05_1225","NotPresent_First","S_blue","MainTask",37,"Response","absent",1,"S","4",1,0.257800999999745,"fast","post_correct",0.333689481019974,76.7361111111111
207.100372200002,0.1,"IA6LI11","2022_Jan_05_1225","NotPresent_First","S_blue","MainTask",38,"Flanker","absent",1,"S","4",1,0.227860400002101,"fast","post_correct",0.333689481019974,76.7361111111111
207.183550800008,0.2,"IA6LI11","2022_Jan_05_1225","NotPresent_First","S_blue","MainTask",38,"Target","absent",1,"S","4",1,0.227860400002101,"fast","post_correct",0.333689481019974,76.7361111111111
207.41141120001,0,"IA6LI11","2022_Jan_05_1225","NotPresent_First","S_blue","MainTask",38,"Response","absent",1,"S","4",1,0.227860400002101,"fast","post_correct",0.333689481019974,76.7361111111111
208.3926221,0.1,"IA6LI11","2022_Jan_05_1225","NotPresent_First","S_blue","MainTask",39,"Flanker","absent",0.33,"S","4",1,0.255184500012547,"fast","post_correct",0.333689481019974,76.7361111111111
208.468282800008,0.2,"IA6LI11","2022_Jan_05_1225","NotPresent_First","S_blue","MainTask",39,"Target","absent",0.33,"S","4",1,0.255184500012547,"fast","post_correct",0.333689481019974,76.7361111111111
208.72346730002,0,"IA6LI11","2022_Jan_05_1225","NotPresent_First","S_blue","MainTask",39,"Response","absent",0.33,"S","4",1,0.255184500012547,"fast","post_correct",0.333689481019974,76.7361111111111
209.6610698,0.1,"IA6LI11","2022_Jan_05_1225","NotPresent_First","S_blue","MainTask",40,"Flanker","absent",0,"H","4",0,0.214095699993777,"fast","post_correct",0.333689481019974,76.7361111111111
209.735663800006,0.2,"IA6LI11","2022_Jan_05_1225","NotPresent_First","S_blue","MainTask",40,"Target","absent",0,"H","4",0,0.214095699993777,"fast","post_correct",0.333689481019974,76.7361111111111
209.949759499999,0,"IA6LI11","2022_Jan_05_1225","NotPresent_First","S_blue","MainTask",40,"Response","absent",0,"H","4",0,0.214095699993777,"fast","post_correct",0.333689481019974,76.7361111111111
210.843945700006,0.1,"IA6LI11","2022_Jan_05_1225","NotPresent_First","S_blue","MainTask",41,"Flanker","absent",0,"S","4",1,0.253770199997234,"fast","post_error",0.333689481019974,76.7361111111111
210.936648200004,0.2,"IA6LI11","2022_Jan_05_1225","NotPresent_First","S_blue","MainTask",41,"Target","absent",0,"S","4",1,0.253770199997234,"fast","post_error",0.333689481019974,76.7361111111111
211.190418400001,0,"IA6LI11","2022_Jan_05_1225","NotPresent_First","S_blue","MainTask",41,"Response","absent",0,"S","4",1,0.253770199997234,"fast","post_error",0.333689481019974,76.7361111111111
212.195947200002,0.1,"IA6LI11","2022_Jan_05_1225","NotPresent_First","S_blue","MainTask",42,"Flanker","absent",0,"H","4",0,0.244401000003563,"fast","post_correct",0.333689481019974,76.7361111111111
212.271041400003,0.2,"IA6LI11","2022_Jan_05_1225","NotPresent_First","S_blue","MainTask",42,"Target","absent",0,"H","4",0,0.244401000003563,"fast","post_correct",0.333689481019974,76.7361111111111
212.515442400007,0,"IA6LI11","2022_Jan_05_1225","NotPresent_First","S_blue","MainTask",42,"Response","absent",0,"H","4",0,0.244401000003563,"fast","post_correct",0.333689481019974,76.7361111111111
213.357422500005,0.1,"IA6LI11","2022_Jan_05_1225","NotPresent_First","S_blue","MainTask",43,"Flanker","absent",1,"S","4",1,0.293009199987864,"fast","post_error",0.333689481019974,76.7361111111111
213.438720899998,0.2,"IA6LI11","2022_Jan_05_1225","NotPresent_First","S_blue","MainTask",43,"Target","absent",1,"S","4",1,0.293009199987864,"fast","post_error",0.333689481019974,76.7361111111111
213.731730099986,0,"IA6LI11","2022_Jan_05_1225","NotPresent_First","S_blue","MainTask",43,"Response","absent",1,"S","4",1,0.293009199987864,"fast","post_error",0.333689481019974,76.7361111111111
214.682536000008,0.1,"IA6LI11","2022_Jan_05_1225","NotPresent_First","S_blue","MainTask",44,"Flanker","absent",1,"H","2",1,0.278778899999452,"fast","post_correct",0.333689481019974,76.7361111111111
214.772876000003,0.2,"IA6LI11","2022_Jan_05_1225","NotPresent_First","S_blue","MainTask",44,"Target","absent",1,"H","2",1,0.278778899999452,"fast","post_correct",0.333689481019974,76.7361111111111
215.051654900002,0,"IA6LI11","2022_Jan_05_1225","NotPresent_First","S_blue","MainTask",44,"Response","absent",1,"H","2",1,0.278778899999452,"fast","post_correct",0.333689481019974,76.7361111111111
216.08177260001,0.1,"IA6LI11","2022_Jan_05_1225","NotPresent_First","S_blue","MainTask",45,"Flanker","absent",1,"S","4",1,0.253217999998014,"fast","post_correct",0.333689481019974,76.7361111111111
216.157433700006,0.2,"IA6LI11","2022_Jan_05_1225","NotPresent_First","S_blue","MainTask",45,"Target","absent",1,"S","4",1,0.253217999998014,"fast","post_correct",0.333689481019974,76.7361111111111
216.410651700004,0,"IA6LI11","2022_Jan_05_1225","NotPresent_First","S_blue","MainTask",45,"Response","absent",1,"S","4",1,0.253217999998014,"fast","post_correct",0.333689481019974,76.7361111111111
217.226022300005,0.1,"IA6LI11","2022_Jan_05_1225","NotPresent_First","S_blue","MainTask",46,"Flanker","absent",1,"S","4",1,0.276083000004292,"fast","post_correct",0.333689481019974,76.7361111111111
217.308476000006,0.2,"IA6LI11","2022_Jan_05_1225","NotPresent_First","S_blue","MainTask",46,"Target","absent",1,"S","4",1,0.276083000004292,"fast","post_correct",0.333689481019974,76.7361111111111
217.58455900001,0,"IA6LI11","2022_Jan_05_1225","NotPresent_First","S_blue","MainTask",46,"Response","absent",1,"S","4",1,0.276083000004292,"fast","post_correct",0.333689481019974,76.7361111111111
218.459800800003,0.1,"IA6LI11","2022_Jan_05_1225","NotPresent_First","S_blue","MainTask",47,"Flanker","absent",1,"S","4",1,0.165831199992681,"fast","post_correct",0.333689481019974,76.7361111111111
218.542648700008,0.2,"IA6LI11","2022_Jan_05_1225","NotPresent_First","S_blue","MainTask",47,"Target","absent",1,"S","4",1,0.165831199992681,"fast","post_correct",0.333689481019974,76.7361111111111
218.7084799,0,"IA6LI11","2022_Jan_05_1225","NotPresent_First","S_blue","MainTask",47,"Response","absent",1,"S","4",1,0.165831199992681,"fast","post_correct",0.333689481019974,76.7361111111111
219.629735099996,0.1,"IA6LI11","2022_Jan_05_1225","NotPresent_First","S_blue","MainTask",48,"Flanker","absent",1,"H","4",0,0.116699600010179,"fast","post_correct",0.333689481019974,76.7361111111111
219.727187900004,0.2,"IA6LI11","2022_Jan_05_1225","NotPresent_First","S_blue","MainTask",48,"Target","absent",1,"H","4",0,0.116699600010179,"fast","post_correct",0.333689481019974,76.7361111111111
219.843887500014,0,"IA6LI11","2022_Jan_05_1225","NotPresent_First","S_blue","MainTask",48,"Response","absent",1,"H","4",0,0.116699600010179,"fast","post_correct",0.333689481019974,76.7361111111111
220.735524200005,0.1,"IA6LI11","2022_Jan_05_1225","NotPresent_First","S_blue","MainTask",49,"Flanker","absent",0.66,"H","4",0,0.233512600010727,"fast","post_error",0.333689481019974,76.7361111111111
220.828242800009,0.2,"IA6LI11","2022_Jan_05_1225","NotPresent_First","S_blue","MainTask",49,"Target","absent",0.66,"H","4",0,0.233512600010727,"fast","post_error",0.333689481019974,76.7361111111111
221.06175540002,0,"IA6LI11","2022_Jan_05_1225","NotPresent_First","S_blue","MainTask",49,"Response","absent",0.66,"H","4",0,0.233512600010727,"fast","post_error",0.333689481019974,76.7361111111111
222.056306400002,0.1,"IA6LI11","2022_Jan_05_1225","NotPresent_First","S_blue","MainTask",50,"Flanker","absent",1,"H","2",1,0.311635500009288,"fast","post_error",0.333689481019974,76.7361111111111
222.145965300006,0.2,"IA6LI11","2022_Jan_05_1225","NotPresent_First","S_blue","MainTask",50,"Target","absent",1,"H","2",1,0.311635500009288,"fast","post_error",0.333689481019974,76.7361111111111
222.457600800015,0,"IA6LI11","2022_Jan_05_1225","NotPresent_First","S_blue","MainTask",50,"Response","absent",1,"H","2",1,0.311635500009288,"fast","post_error",0.333689481019974,76.7361111111111
223.366334799997,0.1,"IA6LI11","2022_Jan_05_1225","NotPresent_First","S_blue","MainTask",51,"Flanker","absent",1,"S","4",1,0.165841900001396,"fast","post_correct",0.333689481019974,76.7361111111111
223.4637908,0.2,"IA6LI11","2022_Jan_05_1225","NotPresent_First","S_blue","MainTask",51,"Target","absent",1,"S","4",1,0.165841900001396,"fast","post_correct",0.333689481019974,76.7361111111111
223.629632700002,0,"IA6LI11","2022_Jan_05_1225","NotPresent_First","S_blue","MainTask",51,"Response","absent",1,"S","4",1,0.165841900001396,"fast","post_correct",0.333689481019974,76.7361111111111
224.471495400008,0.1,"IA6LI11","2022_Jan_05_1225","NotPresent_First","S_blue","MainTask",52,"Flanker","absent",0.66,"H","2",1,0.246944300000905,"fast","post_correct",0.333689481019974,76.7361111111111
224.564859400009,0.2,"IA6LI11","2022_Jan_05_1225","NotPresent_First","S_blue","MainTask",52,"Target","absent",0.66,"H","2",1,0.246944300000905,"fast","post_correct",0.333689481019974,76.7361111111111
224.811803700009,0,"IA6LI11","2022_Jan_05_1225","NotPresent_First","S_blue","MainTask",52,"Response","absent",0.66,"H","2",1,0.246944300000905,"fast","post_correct",0.333689481019974,76.7361111111111
225.756040200009,0.1,"IA6LI11","2022_Jan_05_1225","NotPresent_First","S_blue","MainTask",53,"Flanker","absent",1,"H","2",1,0.297002999999677,"fast","post_correct",0.333689481019974,76.7361111111111
225.8319242,0.2,"IA6LI11","2022_Jan_05_1225","NotPresent_First","S_blue","MainTask",53,"Target","absent",1,"H","2",1,0.297002999999677,"fast","post_correct",0.333689481019974,76.7361111111111
226.128927199999,0,"IA6LI11","2022_Jan_05_1225","NotPresent_First","S_blue","MainTask",53,"Response","absent",1,"H","2",1,0.297002999999677,"fast","post_correct",0.333689481019974,76.7361111111111
227.135656600003,0.1,"IA6LI11","2022_Jan_05_1225","NotPresent_First","S_blue","MainTask",54,"Flanker","absent",0.33,"S","4",1,0.261143800002174,"fast","post_correct",0.333689481019974,76.7361111111111
227.233375399999,0.2,"IA6LI11","2022_Jan_05_1225","NotPresent_First","S_blue","MainTask",54,"Target","absent",0.33,"S","4",1,0.261143800002174,"fast","post_correct",0.333689481019974,76.7361111111111
227.494519200001,0,"IA6LI11","2022_Jan_05_1225","NotPresent_First","S_blue","MainTask",54,"Response","absent",0.33,"S","4",1,0.261143800002174,"fast","post_correct",0.333689481019974,76.7361111111111
228.343356400001,0.1,"IA6LI11","2022_Jan_05_1225","NotPresent_First","S_blue","MainTask",55,"Flanker","absent",0,"S","2",0,0.256747699997504,"fast","post_correct",0.333689481019974,76.7361111111111
228.417743500002,0.2,"IA6LI11","2022_Jan_05_1225","NotPresent_First","S_blue","MainTask",55,"Target","absent",0,"S","2",0,0.256747699997504,"fast","post_correct",0.333689481019974,76.7361111111111
228.674491199999,0,"IA6LI11","2022_Jan_05_1225","NotPresent_First","S_blue","MainTask",55,"Response","absent",0,"S","2",0,0.256747699997504,"fast","post_correct",0.333689481019974,76.7361111111111
229.695041700004,0.1,"IA6LI11","2022_Jan_05_1225","NotPresent_First","S_blue","MainTask",56,"Flanker","absent",0.33,"S","4",1,0.348827699999674,"slow","post_error",0.333689481019974,76.7361111111111
229.785677200009,0.2,"IA6LI11","2022_Jan_05_1225","NotPresent_First","S_blue","MainTask",56,"Target","absent",0.33,"S","4",1,0.348827699999674,"slow","post_error",0.333689481019974,76.7361111111111
230.134504900008,0,"IA6LI11","2022_Jan_05_1225","NotPresent_First","S_blue","MainTask",56,"Response","absent",0.33,"S","4",1,0.348827699999674,"slow","post_error",0.333689481019974,76.7361111111111
230.160228399996,0.1,"IA6LI11","2022_Jan_05_1225","NotPresent_First","S_blue","MainTask",56,"TooSlowFeedback","absent",0.33,"S","4",1,0.348827699999674,"slow","post_error",0.333689481019974,76.7361111111111
232.014060600006,0.1,"IA6LI11","2022_Jan_05_1225","NotPresent_First","S_blue","MainTask",57,"Flanker","absent",0.66,"S","4",1,0.286501799986581,"fast","post_correct",0.333689481019974,76.7361111111111
232.104106700004,0.2,"IA6LI11","2022_Jan_05_1225","NotPresent_First","S_blue","MainTask",57,"Target","absent",0.66,"S","4",1,0.286501799986581,"fast","post_correct",0.333689481019974,76.7361111111111
232.390608499991,0,"IA6LI11","2022_Jan_05_1225","NotPresent_First","S_blue","MainTask",57,"Response","absent",0.66,"S","4",1,0.286501799986581,"fast","post_correct",0.333689481019974,76.7361111111111
233.197036500002,0.1,"IA6LI11","2022_Jan_05_1225","NotPresent_First","S_blue","MainTask",58,"Flanker","absent",1,"H","2",1,0.304910399994696,"fast","post_correct",0.333689481019974,76.7361111111111
233.288578799999,0.2,"IA6LI11","2022_Jan_05_1225","NotPresent_First","S_blue","MainTask",58,"Target","absent",1,"H","2",1,0.304910399994696,"fast","post_correct",0.333689481019974,76.7361111111111
233.593489199993,0,"IA6LI11","2022_Jan_05_1225","NotPresent_First","S_blue","MainTask",58,"Response","absent",1,"H","2",1,0.304910399994696,"fast","post_correct",0.333689481019974,76.7361111111111
234.432735099996,0.1,"IA6LI11","2022_Jan_05_1225","NotPresent_First","S_blue","MainTask",59,"Flanker","absent",0.66,"H","2",1,0.300624600000447,"fast","post_correct",0.333689481019974,76.7361111111111
234.523017600004,0.2,"IA6LI11","2022_Jan_05_1225","NotPresent_First","S_blue","MainTask",59,"Target","absent",0.66,"H","2",1,0.300624600000447,"fast","post_correct",0.333689481019974,76.7361111111111
234.823642200005,0,"IA6LI11","2022_Jan_05_1225","NotPresent_First","S_blue","MainTask",59,"Response","absent",0.66,"H","2",1,0.300624600000447,"fast","post_correct",0.333689481019974,76.7361111111111
235.742844100008,0.1,"IA6LI11","2022_Jan_05_1225","NotPresent_First","S_blue","MainTask",60,"Flanker","absent",1,"S","4",1,0.218667599998298,"fast","post_correct",0.333689481019974,76.7361111111111
235.840743299996,0.2,"IA6LI11","2022_Jan_05_1225","NotPresent_First","S_blue","MainTask",60,"Target","absent",1,"S","4",1,0.218667599998298,"fast","post_correct",0.333689481019974,76.7361111111111
236.059410899994,0,"IA6LI11","2022_Jan_05_1225","NotPresent_First","S_blue","MainTask",60,"Response","absent",1,"S","4",1,0.218667599998298,"fast","post_correct",0.333689481019974,76.7361111111111
236.877426300009,0.1,"IA6LI11","2022_Jan_05_1225","NotPresent_First","S_blue","MainTask",61,"Flanker","absent",0.33,"S","4",1,0.260466100007761,"fast","post_correct",0.333689481019974,76.7361111111111
236.974979999999,0.2,"IA6LI11","2022_Jan_05_1225","NotPresent_First","S_blue","MainTask",61,"Target","absent",0.33,"S","4",1,0.260466100007761,"fast","post_correct",0.333689481019974,76.7361111111111
237.235446100007,0,"IA6LI11","2022_Jan_05_1225","NotPresent_First","S_blue","MainTask",61,"Response","absent",0.33,"S","4",1,0.260466100007761,"fast","post_correct",0.333689481019974,76.7361111111111
238.051101799996,0.1,"IA6LI11","2022_Jan_05_1225","NotPresent_First","S_blue","MainTask",62,"Flanker","absent",0,"H","4",0,0.241735199990217,"fast","post_correct",0.333689481019974,76.7361111111111
238.125867800001,0.2,"IA6LI11","2022_Jan_05_1225","NotPresent_First","S_blue","MainTask",62,"Target","absent",0,"H","4",0,0.241735199990217,"fast","post_correct",0.333689481019974,76.7361111111111
238.367602999992,0,"IA6LI11","2022_Jan_05_1225","NotPresent_First","S_blue","MainTask",62,"Response","absent",0,"H","4",0,0.241735199990217,"fast","post_correct",0.333689481019974,76.7361111111111
239.393926000004,0.1,"IA6LI11","2022_Jan_05_1225","NotPresent_First","S_blue","MainTask",63,"Flanker","absent",0,"H","2",1,0.349059500003932,"slow","post_error",0.333689481019974,76.7361111111111
239.476947899995,0.2,"IA6LI11","2022_Jan_05_1225","NotPresent_First","S_blue","MainTask",63,"Target","absent",0,"H","2",1,0.349059500003932,"slow","post_error",0.333689481019974,76.7361111111111
239.826007399999,0,"IA6LI11","2022_Jan_05_1225","NotPresent_First","S_blue","MainTask",63,"Response","absent",0,"H","2",1,0.349059500003932,"slow","post_error",0.333689481019974,76.7361111111111
239.8510523,0.1,"IA6LI11","2022_Jan_05_1225","NotPresent_First","S_blue","MainTask",63,"TooSlowFeedback","absent",0,"H","2",1,0.349059500003932,"slow","post_error",0.333689481019974,76.7361111111111
241.820506600008,0.1,"IA6LI11","2022_Jan_05_1225","NotPresent_First","S_blue","MainTask",64,"Flanker","absent",1,"H","2",1,0.239455699993414,"fast","post_correct",0.333689481019974,76.7361111111111
241.911959500008,0.2,"IA6LI11","2022_Jan_05_1225","NotPresent_First","S_blue","MainTask",64,"Target","absent",1,"H","2",1,0.239455699993414,"fast","post_correct",0.333689481019974,76.7361111111111
242.151415200002,0,"IA6LI11","2022_Jan_05_1225","NotPresent_First","S_blue","MainTask",64,"Response","absent",1,"H","2",1,0.239455699993414,"fast","post_correct",0.333689481019974,76.7361111111111
243.188968500006,0.1,"IA6LI11","2022_Jan_05_1225","NotPresent_First","S_blue","MainTask",65,"Flanker","absent",0,"H","4",0,0.33123070000147,"fast","post_correct",0.333689481019974,76.7361111111111
243.263544900008,0.2,"IA6LI11","2022_Jan_05_1225","NotPresent_First","S_blue","MainTask",65,"Target","absent",0,"H","4",0,0.33123070000147,"fast","post_correct",0.333689481019974,76.7361111111111
243.59477560001,0,"IA6LI11","2022_Jan_05_1225","NotPresent_First","S_blue","MainTask",65,"Response","absent",0,"H","4",0,0.33123070000147,"fast","post_correct",0.333689481019974,76.7361111111111
244.5731141,0.1,"IA6LI11","2022_Jan_05_1225","NotPresent_First","S_blue","MainTask",66,"Flanker","absent",0,"S","None",0,NA,NA,"post_error",0.333689481019974,76.7361111111111
244.664737300001,0.2,"IA6LI11","2022_Jan_05_1225","NotPresent_First","S_blue","MainTask",66,"Target","absent",0,"S","None",0,NA,NA,"post_error",0.333689481019974,76.7361111111111
245.671176300006,0.1,"IA6LI11","2022_Jan_05_1225","NotPresent_First","S_blue","MainTask",66,"TooSlowFeedback","absent",0,"S","None",0,NA,NA,"post_error",0.333689481019974,76.7361111111111
247.603587999998,0.1,"IA6LI11","2022_Jan_05_1225","NotPresent_First","S_blue","MainTask",67,"Flanker","absent",1,"H","2",1,0.337380500001018,"slow","post_error",0.333689481019974,76.7361111111111
247.700233600001,0.2,"IA6LI11","2022_Jan_05_1225","NotPresent_First","S_blue","MainTask",67,"Target","absent",1,"H","2",1,0.337380500001018,"slow","post_error",0.333689481019974,76.7361111111111
248.037614100002,0,"IA6LI11","2022_Jan_05_1225","NotPresent_First","S_blue","MainTask",67,"Response","absent",1,"H","2",1,0.337380500001018,"slow","post_error",0.333689481019974,76.7361111111111
248.080755200004,0.1,"IA6LI11","2022_Jan_05_1225","NotPresent_First","S_blue","MainTask",67,"TooSlowFeedback","absent",1,"H","2",1,0.337380500001018,"slow","post_error",0.333689481019974,76.7361111111111
250.071462000007,0.1,"IA6LI11","2022_Jan_05_1225","NotPresent_First","S_blue","MainTask",68,"Flanker","absent",0.66,"H","2",1,0.236162000001059,"fast","post_correct",0.333689481019974,76.7361111111111
250.16924660001,0.2,"IA6LI11","2022_Jan_05_1225","NotPresent_First","S_blue","MainTask",68,"Target","absent",0.66,"H","2",1,0.236162000001059,"fast","post_correct",0.333689481019974,76.7361111111111
250.405408600011,0,"IA6LI11","2022_Jan_05_1225","NotPresent_First","S_blue","MainTask",68,"Response","absent",0.66,"H","2",1,0.236162000001059,"fast","post_correct",0.333689481019974,76.7361111111111
251.427138200001,0.1,"IA6LI11","2022_Jan_05_1225","NotPresent_First","S_blue","MainTask",69,"Flanker","absent",0,"S","2",0,0.265270200005034,"fast","post_correct",0.333689481019974,76.7361111111111
251.520419799999,0.2,"IA6LI11","2022_Jan_05_1225","NotPresent_First","S_blue","MainTask",69,"Target","absent",0,"S","2",0,0.265270200005034,"fast","post_correct",0.333689481019974,76.7361111111111
251.785690000004,0,"IA6LI11","2022_Jan_05_1225","NotPresent_First","S_blue","MainTask",69,"Response","absent",0,"S","2",0,0.265270200005034,"fast","post_correct",0.333689481019974,76.7361111111111
252.578948499999,0.1,"IA6LI11","2022_Jan_05_1225","NotPresent_First","S_blue","MainTask",70,"Flanker","absent",0.66,"H","2",1,0.42725110000174,"slow","post_error",0.333689481019974,76.7361111111111
252.671382500004,0.2,"IA6LI11","2022_Jan_05_1225","NotPresent_First","S_blue","MainTask",70,"Target","absent",0.66,"H","2",1,0.42725110000174,"slow","post_error",0.333689481019974,76.7361111111111
253.098633600006,0,"IA6LI11","2022_Jan_05_1225","NotPresent_First","S_blue","MainTask",70,"Response","absent",0.66,"H","2",1,0.42725110000174,"slow","post_error",0.333689481019974,76.7361111111111
253.135390399999,0.1,"IA6LI11","2022_Jan_05_1225","NotPresent_First","S_blue","MainTask",70,"TooSlowFeedback","absent",0.66,"H","2",1,0.42725110000174,"slow","post_error",0.333689481019974,76.7361111111111
255.046844199998,0.1,"IA6LI11","2022_Jan_05_1225","NotPresent_First","S_blue","MainTask",71,"Flanker","absent",0.66,"S","4",1,0.365792900003726,"slow","post_correct",0.333689481019974,76.7361111111111
255.139965900002,0.2,"IA6LI11","2022_Jan_05_1225","NotPresent_First","S_blue","MainTask",71,"Target","absent",0.66,"S","4",1,0.365792900003726,"slow","post_correct",0.333689481019974,76.7361111111111
255.505758800005,0,"IA6LI11","2022_Jan_05_1225","NotPresent_First","S_blue","MainTask",71,"Response","absent",0.66,"S","4",1,0.365792900003726,"slow","post_correct",0.333689481019974,76.7361111111111
255.531279200004,0.1,"IA6LI11","2022_Jan_05_1225","NotPresent_First","S_blue","MainTask",71,"TooSlowFeedback","absent",0.66,"S","4",1,0.365792900003726,"slow","post_correct",0.333689481019974,76.7361111111111
257.532030900009,0.1,"IA6LI11","2022_Jan_05_1225","NotPresent_First","S_blue","MainTask",72,"Flanker","absent",0.33,"H","None",0,NA,NA,"post_correct",0.333689481019974,76.7361111111111
257.625079500009,0.2,"IA6LI11","2022_Jan_05_1225","NotPresent_First","S_blue","MainTask",72,"Target","absent",0.33,"H","None",0,NA,NA,"post_correct",0.333689481019974,76.7361111111111
258.631435300005,0.1,"IA6LI11","2022_Jan_05_1225","NotPresent_First","S_blue","MainTask",72,"TooSlowFeedback","absent",0.33,"H","None",0,NA,NA,"post_correct",0.333689481019974,76.7361111111111
260.635533200009,0.1,"IA6LI11","2022_Jan_05_1225","NotPresent_First","S_blue","MainTask",73,"Flanker","absent",0,"S","None",0,NA,NA,"post_error",0.333689481019974,76.7361111111111
260.711400400003,0.2,"IA6LI11","2022_Jan_05_1225","NotPresent_First","S_blue","MainTask",73,"Target","absent",0,"S","None",0,NA,NA,"post_error",0.333689481019974,76.7361111111111
261.720791900007,0.1,"IA6LI11","2022_Jan_05_1225","NotPresent_First","S_blue","MainTask",73,"TooSlowFeedback","absent",0,"S","None",0,NA,NA,"post_error",0.333689481019974,76.7361111111111
263.549378900003,0.1,"IA6LI11","2022_Jan_05_1225","NotPresent_First","S_blue","MainTask",74,"Flanker","absent",1,"H","4",0,0.257624100006069,"fast","post_error",0.333689481019974,76.7361111111111
263.647029900007,0.2,"IA6LI11","2022_Jan_05_1225","NotPresent_First","S_blue","MainTask",74,"Target","absent",1,"H","4",0,0.257624100006069,"fast","post_error",0.333689481019974,76.7361111111111
263.904654000013,0,"IA6LI11","2022_Jan_05_1225","NotPresent_First","S_blue","MainTask",74,"Response","absent",1,"H","4",0,0.257624100006069,"fast","post_error",0.333689481019974,76.7361111111111
264.915197099996,0.1,"IA6LI11","2022_Jan_05_1225","NotPresent_First","S_blue","MainTask",75,"Flanker","absent",1,"H","2",1,0.381614700003411,"slow","post_error",0.333689481019974,76.7361111111111
264.99816470001,0.2,"IA6LI11","2022_Jan_05_1225","NotPresent_First","S_blue","MainTask",75,"Target","absent",1,"H","2",1,0.381614700003411,"slow","post_error",0.333689481019974,76.7361111111111
265.379779400013,0,"IA6LI11","2022_Jan_05_1225","NotPresent_First","S_blue","MainTask",75,"Response","absent",1,"H","2",1,0.381614700003411,"slow","post_error",0.333689481019974,76.7361111111111
265.406191400005,0.1,"IA6LI11","2022_Jan_05_1225","NotPresent_First","S_blue","MainTask",75,"TooSlowFeedback","absent",1,"H","2",1,0.381614700003411,"slow","post_error",0.333689481019974,76.7361111111111
267.236518300007,0.1,"IA6LI11","2022_Jan_05_1225","NotPresent_First","S_blue","MainTask",76,"Flanker","absent",0.66,"S","2",0,0.34823669999605,"slow","post_correct",0.333689481019974,76.7361111111111
267.333557200007,0.2,"IA6LI11","2022_Jan_05_1225","NotPresent_First","S_blue","MainTask",76,"Target","absent",0.66,"S","2",0,0.34823669999605,"slow","post_correct",0.333689481019974,76.7361111111111
267.681793900003,0,"IA6LI11","2022_Jan_05_1225","NotPresent_First","S_blue","MainTask",76,"Response","absent",0.66,"S","2",0,0.34823669999605,"slow","post_correct",0.333689481019974,76.7361111111111
267.713400299996,0.1,"IA6LI11","2022_Jan_05_1225","NotPresent_First","S_blue","MainTask",76,"TooSlowFeedback","absent",0.66,"S","2",0,0.34823669999605,"slow","post_correct",0.333689481019974,76.7361111111111
269.571152100005,0.1,"IA6LI11","2022_Jan_05_1225","NotPresent_First","S_blue","MainTask",77,"Flanker","absent",1,"S","4",1,0.300074900005711,"fast","post_error",0.333689481019974,76.7361111111111
269.668807099995,0.2,"IA6LI11","2022_Jan_05_1225","NotPresent_First","S_blue","MainTask",77,"Target","absent",1,"S","4",1,0.300074900005711,"fast","post_error",0.333689481019974,76.7361111111111
269.968882000001,0,"IA6LI11","2022_Jan_05_1225","NotPresent_First","S_blue","MainTask",77,"Response","absent",1,"S","4",1,0.300074900005711,"fast","post_error",0.333689481019974,76.7361111111111
270.813442700004,0.1,"IA6LI11","2022_Jan_05_1225","NotPresent_First","S_blue","MainTask",78,"Flanker","absent",0.66,"H","2",1,0.264702700005728,"fast","post_correct",0.333689481019974,76.7361111111111
270.903054099996,0.2,"IA6LI11","2022_Jan_05_1225","NotPresent_First","S_blue","MainTask",78,"Target","absent",0.66,"H","2",1,0.264702700005728,"fast","post_correct",0.333689481019974,76.7361111111111
271.167756800001,0,"IA6LI11","2022_Jan_05_1225","NotPresent_First","S_blue","MainTask",78,"Response","absent",0.66,"H","2",1,0.264702700005728,"fast","post_correct",0.333689481019974,76.7361111111111
271.989616300008,0.1,"IA6LI11","2022_Jan_05_1225","NotPresent_First","S_blue","MainTask",79,"Flanker","absent",0.33,"S","4",1,0.22517560000415,"fast","post_correct",0.333689481019974,76.7361111111111
272.087354600008,0.2,"IA6LI11","2022_Jan_05_1225","NotPresent_First","S_blue","MainTask",79,"Target","absent",0.33,"S","4",1,0.22517560000415,"fast","post_correct",0.333689481019974,76.7361111111111
272.312530200012,0,"IA6LI11","2022_Jan_05_1225","NotPresent_First","S_blue","MainTask",79,"Response","absent",0.33,"S","4",1,0.22517560000415,"fast","post_correct",0.333689481019974,76.7361111111111
273.179613300003,0.1,"IA6LI11","2022_Jan_05_1225","NotPresent_First","S_blue","MainTask",80,"Flanker","absent",1,"H","2",1,0.180907200003276,"fast","post_correct",0.333689481019974,76.7361111111111
273.254781299998,0.2,"IA6LI11","2022_Jan_05_1225","NotPresent_First","S_blue","MainTask",80,"Target","absent",1,"H","2",1,0.180907200003276,"fast","post_correct",0.333689481019974,76.7361111111111
273.435688500002,0,"IA6LI11","2022_Jan_05_1225","NotPresent_First","S_blue","MainTask",80,"Response","absent",1,"H","2",1,0.180907200003276,"fast","post_correct",0.333689481019974,76.7361111111111
274.446855700007,0.1,"IA6LI11","2022_Jan_05_1225","NotPresent_First","S_blue","MainTask",81,"Flanker","absent",0.66,"S","4",1,0.133340400003362,"fast","post_correct",0.333689481019974,76.7361111111111
274.539619899995,0.2,"IA6LI11","2022_Jan_05_1225","NotPresent_First","S_blue","MainTask",81,"Target","absent",0.66,"S","4",1,0.133340400003362,"fast","post_correct",0.333689481019974,76.7361111111111
274.672960299999,0,"IA6LI11","2022_Jan_05_1225","NotPresent_First","S_blue","MainTask",81,"Response","absent",0.66,"S","4",1,0.133340400003362,"fast","post_correct",0.333689481019974,76.7361111111111
275.514360400004,0.1,"IA6LI11","2022_Jan_05_1225","NotPresent_First","S_blue","MainTask",82,"Flanker","absent",1,"H","2",1,0.246062900012475,"fast","post_correct",0.333689481019974,76.7361111111111
275.607073200008,0.2,"IA6LI11","2022_Jan_05_1225","NotPresent_First","S_blue","MainTask",82,"Target","absent",1,"H","2",1,0.246062900012475,"fast","post_correct",0.333689481019974,76.7361111111111
275.85313610002,0,"IA6LI11","2022_Jan_05_1225","NotPresent_First","S_blue","MainTask",82,"Response","absent",1,"H","2",1,0.246062900012475,"fast","post_correct",0.333689481019974,76.7361111111111
276.791294099996,0.1,"IA6LI11","2022_Jan_05_1225","NotPresent_First","S_blue","MainTask",83,"Flanker","absent",0,"S","4",1,0.17583530000411,"fast","post_correct",0.333689481019974,76.7361111111111
276.874669600002,0.2,"IA6LI11","2022_Jan_05_1225","NotPresent_First","S_blue","MainTask",83,"Target","absent",0,"S","4",1,0.17583530000411,"fast","post_correct",0.333689481019974,76.7361111111111
277.050504900006,0,"IA6LI11","2022_Jan_05_1225","NotPresent_First","S_blue","MainTask",83,"Response","absent",0,"S","4",1,0.17583530000411,"fast","post_correct",0.333689481019974,76.7361111111111
278.0427146,0.1,"IA6LI11","2022_Jan_05_1225","NotPresent_First","S_blue","MainTask",84,"Flanker","absent",0,"S","2",0,0.136679200004437,"fast","post_correct",0.333689481019974,76.7361111111111
278.125882000008,0.2,"IA6LI11","2022_Jan_05_1225","NotPresent_First","S_blue","MainTask",84,"Target","absent",0,"S","2",0,0.136679200004437,"fast","post_correct",0.333689481019974,76.7361111111111
278.262561200012,0,"IA6LI11","2022_Jan_05_1225","NotPresent_First","S_blue","MainTask",84,"Response","absent",0,"S","2",0,0.136679200004437,"fast","post_correct",0.333689481019974,76.7361111111111
279.129270200006,0.1,"IA6LI11","2022_Jan_05_1225","NotPresent_First","S_blue","MainTask",85,"Flanker","absent",1,"H","2",1,0.400231599996914,"slow","post_error",0.333689481019974,76.7361111111111
279.226718799997,0.2,"IA6LI11","2022_Jan_05_1225","NotPresent_First","S_blue","MainTask",85,"Target","absent",1,"H","2",1,0.400231599996914,"slow","post_error",0.333689481019974,76.7361111111111
279.626950399994,0,"IA6LI11","2022_Jan_05_1225","NotPresent_First","S_blue","MainTask",85,"Response","absent",1,"H","2",1,0.400231599996914,"slow","post_error",0.333689481019974,76.7361111111111
279.652208600004,0.1,"IA6LI11","2022_Jan_05_1225","NotPresent_First","S_blue","MainTask",85,"TooSlowFeedback","absent",1,"H","2",1,0.400231599996914,"slow","post_error",0.333689481019974,76.7361111111111
281.603666099996,0.1,"IA6LI11","2022_Jan_05_1225","NotPresent_First","S_blue","MainTask",86,"Flanker","absent",1,"S","4",1,0.29329780000262,"fast","post_correct",0.333689481019974,76.7361111111111
281.695193899999,0.2,"IA6LI11","2022_Jan_05_1225","NotPresent_First","S_blue","MainTask",86,"Target","absent",1,"S","4",1,0.29329780000262,"fast","post_correct",0.333689481019974,76.7361111111111
281.988491700002,0,"IA6LI11","2022_Jan_05_1225","NotPresent_First","S_blue","MainTask",86,"Response","absent",1,"S","4",1,0.29329780000262,"fast","post_correct",0.333689481019974,76.7361111111111
282.882433999999,0.1,"IA6LI11","2022_Jan_05_1225","NotPresent_First","S_blue","MainTask",87,"Flanker","absent",1,"H","2",1,0.280079100004514,"fast","post_correct",0.333689481019974,76.7361111111111
282.979902300009,0.2,"IA6LI11","2022_Jan_05_1225","NotPresent_First","S_blue","MainTask",87,"Target","absent",1,"H","2",1,0.280079100004514,"fast","post_correct",0.333689481019974,76.7361111111111
283.259981400013,0,"IA6LI11","2022_Jan_05_1225","NotPresent_First","S_blue","MainTask",87,"Response","absent",1,"H","2",1,0.280079100004514,"fast","post_correct",0.333689481019974,76.7361111111111
284.064438300004,0.1,"IA6LI11","2022_Jan_05_1225","NotPresent_First","S_blue","MainTask",88,"Flanker","absent",1,"H","4",0,0.257159100001445,"fast","post_correct",0.333689481019974,76.7361111111111
284.147412799997,0.2,"IA6LI11","2022_Jan_05_1225","NotPresent_First","S_blue","MainTask",88,"Target","absent",1,"H","4",0,0.257159100001445,"fast","post_correct",0.333689481019974,76.7361111111111
284.404571899999,0,"IA6LI11","2022_Jan_05_1225","NotPresent_First","S_blue","MainTask",88,"Response","absent",1,"H","4",0,0.257159100001445,"fast","post_correct",0.333689481019974,76.7361111111111
285.398837200002,0.1,"IA6LI11","2022_Jan_05_1225","NotPresent_First","S_blue","MainTask",89,"Flanker","absent",1,"H","2",1,0.323583199991845,"fast","post_error",0.333689481019974,76.7361111111111
285.481875800004,0.2,"IA6LI11","2022_Jan_05_1225","NotPresent_First","S_blue","MainTask",89,"Target","absent",1,"H","2",1,0.323583199991845,"fast","post_error",0.333689481019974,76.7361111111111
285.805458999996,0,"IA6LI11","2022_Jan_05_1225","NotPresent_First","S_blue","MainTask",89,"Response","absent",1,"H","2",1,0.323583199991845,"fast","post_error",0.333689481019974,76.7361111111111
286.623691400004,0.1,"IA6LI11","2022_Jan_05_1225","NotPresent_First","S_blue","MainTask",90,"Flanker","absent",0.66,"S","4",1,0.265664300008211,"fast","post_correct",0.333689481019974,76.7361111111111
286.699358700003,0.2,"IA6LI11","2022_Jan_05_1225","NotPresent_First","S_blue","MainTask",90,"Target","absent",0.66,"S","4",1,0.265664300008211,"fast","post_correct",0.333689481019974,76.7361111111111
286.965023000012,0,"IA6LI11","2022_Jan_05_1225","NotPresent_First","S_blue","MainTask",90,"Response","absent",0.66,"S","4",1,0.265664300008211,"fast","post_correct",0.333689481019974,76.7361111111111
287.918113899999,0.1,"IA6LI11","2022_Jan_05_1225","NotPresent_First","S_blue","MainTask",91,"Flanker","absent",0.66,"S","2",0,0.248023499996634,"fast","post_correct",0.333689481019974,76.7361111111111
288.000677400007,0.2,"IA6LI11","2022_Jan_05_1225","NotPresent_First","S_blue","MainTask",91,"Target","absent",0.66,"S","2",0,0.248023499996634,"fast","post_correct",0.333689481019974,76.7361111111111
288.248700900003,0,"IA6LI11","2022_Jan_05_1225","NotPresent_First","S_blue","MainTask",91,"Response","absent",0.66,"S","2",0,0.248023499996634,"fast","post_correct",0.333689481019974,76.7361111111111
289.24411130001,0.1,"IA6LI11","2022_Jan_05_1225","NotPresent_First","S_blue","MainTask",92,"Flanker","absent",0,"H","4",0,0.252409100008663,"fast","post_error",0.333689481019974,76.7361111111111
289.335042000006,0.2,"IA6LI11","2022_Jan_05_1225","NotPresent_First","S_blue","MainTask",92,"Target","absent",0,"H","4",0,0.252409100008663,"fast","post_error",0.333689481019974,76.7361111111111
289.587451100015,0,"IA6LI11","2022_Jan_05_1225","NotPresent_First","S_blue","MainTask",92,"Response","absent",0,"H","4",0,0.252409100008663,"fast","post_error",0.333689481019974,76.7361111111111
290.543792700002,0.1,"IA6LI11","2022_Jan_05_1225","NotPresent_First","S_blue","MainTask",93,"Flanker","absent",1,"H","4",0,0.256362000000081,"fast","post_error",0.333689481019974,76.7361111111111
290.636194000006,0.2,"IA6LI11","2022_Jan_05_1225","NotPresent_First","S_blue","MainTask",93,"Target","absent",1,"H","4",0,0.256362000000081,"fast","post_error",0.333689481019974,76.7361111111111
290.892556000006,0,"IA6LI11","2022_Jan_05_1225","NotPresent_First","S_blue","MainTask",93,"Response","absent",1,"H","4",0,0.256362000000081,"fast","post_error",0.333689481019974,76.7361111111111
291.779670300006,0.1,"IA6LI11","2022_Jan_05_1225","NotPresent_First","S_blue","MainTask",94,"Flanker","absent",1,"S","4",1,0.309939500002656,"fast","post_error",0.333689481019974,76.7361111111111
291.870860700001,0.2,"IA6LI11","2022_Jan_05_1225","NotPresent_First","S_blue","MainTask",94,"Target","absent",1,"S","4",1,0.309939500002656,"fast","post_error",0.333689481019974,76.7361111111111
292.180800200003,0,"IA6LI11","2022_Jan_05_1225","NotPresent_First","S_blue","MainTask",94,"Response","absent",1,"S","4",1,0.309939500002656,"fast","post_error",0.333689481019974,76.7361111111111
292.995325900003,0.1,"IA6LI11","2022_Jan_05_1225","NotPresent_First","S_blue","MainTask",95,"Flanker","absent",0.33,"S","4",1,0.311217899987241,"fast","post_correct",0.333689481019974,76.7361111111111
293.088245100007,0.2,"IA6LI11","2022_Jan_05_1225","NotPresent_First","S_blue","MainTask",95,"Target","absent",0.33,"S","4",1,0.311217899987241,"fast","post_correct",0.333689481019974,76.7361111111111
293.399462999994,0,"IA6LI11","2022_Jan_05_1225","NotPresent_First","S_blue","MainTask",95,"Response","absent",0.33,"S","4",1,0.311217899987241,"fast","post_correct",0.333689481019974,76.7361111111111
293.431027300001,25.4553341999999,"IA6LI11","2022_Jan_05_1225","NotPresent_First","S_blue","MainTask",95,"Break","absent",0.33,"S","4",1,25.4553341999999,"fast","post_correct",NA,76.7361111111111
321.920543300002,0.1,"IA6LI11","2022_Jan_05_1225","NotPresent_First","S_blue","MainTask",96,"Flanker","absent",0,"H","2",1,0.550087100011297,"slow","post_break",0.333689481019974,76.7361111111111
321.995673500001,0.2,"IA6LI11","2022_Jan_05_1225","NotPresent_First","S_blue","MainTask",96,"Target","absent",0,"H","2",1,0.550087100011297,"slow","post_break",0.333689481019974,76.7361111111111
322.545760600013,0,"IA6LI11","2022_Jan_05_1225","NotPresent_First","S_blue","MainTask",96,"Response","absent",0,"H","2",1,0.550087100011297,"slow","post_break",0.333689481019974,76.7361111111111
322.575194100005,0.1,"IA6LI11","2022_Jan_05_1225","NotPresent_First","S_blue","MainTask",96,"TooSlowFeedback","absent",0,"H","2",1,0.550087100011297,"slow","post_break",0.333689481019974,76.7361111111111
324.588663500006,0.1,"IA6LI11","2022_Jan_05_1225","NotPresent_First","S_blue","MainTask",97,"Flanker","absent",0.66,"H","2",1,0.383851399994455,"slow","post_correct",0.333689481019974,76.7361111111111
324.681104500007,0.2,"IA6LI11","2022_Jan_05_1225","NotPresent_First","S_blue","MainTask",97,"Target","absent",0.66,"H","2",1,0.383851399994455,"slow","post_correct",0.333689481019974,76.7361111111111
325.064955900001,0,"IA6LI11","2022_Jan_05_1225","NotPresent_First","S_blue","MainTask",97,"Response","absent",0.66,"H","2",1,0.383851399994455,"slow","post_correct",0.333689481019974,76.7361111111111
325.090140400003,0.1,"IA6LI11","2022_Jan_05_1225","NotPresent_First","S_blue","MainTask",97,"TooSlowFeedback","absent",0.66,"H","2",1,0.383851399994455,"slow","post_correct",0.333689481019974,76.7361111111111
326.943003699998,0.1,"IA6LI11","2022_Jan_05_1225","NotPresent_First","S_blue","MainTask",98,"Flanker","absent",0,"S","2",0,0.261595299991313,"fast","post_correct",0.333689481019974,76.7361111111111
327.032977099996,0.2,"IA6LI11","2022_Jan_05_1225","NotPresent_First","S_blue","MainTask",98,"Target","absent",0,"S","2",0,0.261595299991313,"fast","post_correct",0.333689481019974,76.7361111111111
327.294572399987,0,"IA6LI11","2022_Jan_05_1225","NotPresent_First","S_blue","MainTask",98,"Response","absent",0,"S","2",0,0.261595299991313,"fast","post_correct",0.333689481019974,76.7361111111111
328.119502400004,0.1,"IA6LI11","2022_Jan_05_1225","NotPresent_First","S_blue","MainTask",99,"Flanker","absent",1,"H","2",1,0.395406599986018,"slow","post_error",0.333689481019974,76.7361111111111
328.217344100005,0.2,"IA6LI11","2022_Jan_05_1225","NotPresent_First","S_blue","MainTask",99,"Target","absent",1,"H","2",1,0.395406599986018,"slow","post_error",0.333689481019974,76.7361111111111
328.612750699991,0,"IA6LI11","2022_Jan_05_1225","NotPresent_First","S_blue","MainTask",99,"Response","absent",1,"H","2",1,0.395406599986018,"slow","post_error",0.333689481019974,76.7361111111111
328.641896400004,0.1,"IA6LI11","2022_Jan_05_1225","NotPresent_First","S_blue","MainTask",99,"TooSlowFeedback","absent",1,"H","2",1,0.395406599986018,"slow","post_error",0.333689481019974,76.7361111111111
330.660184000008,0.1,"IA6LI11","2022_Jan_05_1225","NotPresent_First","S_blue","MainTask",100,"Flanker","absent",0.66,"H","2",1,0.300153900010628,"fast","post_correct",0.333689481019974,76.7361111111111
330.736436899999,0.2,"IA6LI11","2022_Jan_05_1225","NotPresent_First","S_blue","MainTask",100,"Target","absent",0.66,"H","2",1,0.300153900010628,"fast","post_correct",0.333689481019974,76.7361111111111
331.036590800009,0,"IA6LI11","2022_Jan_05_1225","NotPresent_First","S_blue","MainTask",100,"Response","absent",0.66,"H","2",1,0.300153900010628,"fast","post_correct",0.333689481019974,76.7361111111111
331.873336200006,0.1,"IA6LI11","2022_Jan_05_1225","NotPresent_First","S_blue","MainTask",101,"Flanker","absent",0.33,"S","4",1,0.237072900010389,"fast","post_correct",0.333689481019974,76.7361111111111
331.970413600007,0.2,"IA6LI11","2022_Jan_05_1225","NotPresent_First","S_blue","MainTask",101,"Target","absent",0.33,"S","4",1,0.237072900010389,"fast","post_correct",0.333689481019974,76.7361111111111
332.207486500018,0,"IA6LI11","2022_Jan_05_1225","NotPresent_First","S_blue","MainTask",101,"Response","absent",0.33,"S","4",1,0.237072900010389,"fast","post_correct",0.333689481019974,76.7361111111111
333.114254700005,0.1,"IA6LI11","2022_Jan_05_1225","NotPresent_First","S_blue","MainTask",102,"Flanker","absent",1,"H","2",1,0.279152799994336,"fast","post_correct",0.333689481019974,76.7361111111111
333.204876700009,0.2,"IA6LI11","2022_Jan_05_1225","NotPresent_First","S_blue","MainTask",102,"Target","absent",1,"H","2",1,0.279152799994336,"fast","post_correct",0.333689481019974,76.7361111111111
333.484029500003,0,"IA6LI11","2022_Jan_05_1225","NotPresent_First","S_blue","MainTask",102,"Response","absent",1,"H","2",1,0.279152799994336,"fast","post_correct",0.333689481019974,76.7361111111111
334.489591400008,0.1,"IA6LI11","2022_Jan_05_1225","NotPresent_First","S_blue","MainTask",103,"Flanker","absent",1,"H","4",0,0.254811599996174,"fast","post_correct",0.333689481019974,76.7361111111111
334.572679799996,0.2,"IA6LI11","2022_Jan_05_1225","NotPresent_First","S_blue","MainTask",103,"Target","absent",1,"H","4",0,0.254811599996174,"fast","post_correct",0.333689481019974,76.7361111111111
334.827491399992,0,"IA6LI11","2022_Jan_05_1225","NotPresent_First","S_blue","MainTask",103,"Response","absent",1,"H","4",0,0.254811599996174,"fast","post_correct",0.333689481019974,76.7361111111111
335.781205799998,0.1,"IA6LI11","2022_Jan_05_1225","NotPresent_First","S_blue","MainTask",104,"Flanker","absent",0.33,"H","2",1,0.301312299998244,"fast","post_error",0.333689481019974,76.7361111111111
335.857192199997,0.2,"IA6LI11","2022_Jan_05_1225","NotPresent_First","S_blue","MainTask",104,"Target","absent",0.33,"H","2",1,0.301312299998244,"fast","post_error",0.333689481019974,76.7361111111111
336.158504499996,0,"IA6LI11","2022_Jan_05_1225","NotPresent_First","S_blue","MainTask",104,"Response","absent",0.33,"H","2",1,0.301312299998244,"fast","post_error",0.333689481019974,76.7361111111111
336.983291299999,0.1,"IA6LI11","2022_Jan_05_1225","NotPresent_First","S_blue","MainTask",105,"Flanker","absent",0.66,"S","4",1,0.307842499998515,"fast","post_correct",0.333689481019974,76.7361111111111
337.074759900002,0.2,"IA6LI11","2022_Jan_05_1225","NotPresent_First","S_blue","MainTask",105,"Target","absent",0.66,"S","4",1,0.307842499998515,"fast","post_correct",0.333689481019974,76.7361111111111
337.382602400001,0,"IA6LI11","2022_Jan_05_1225","NotPresent_First","S_blue","MainTask",105,"Response","absent",0.66,"S","4",1,0.307842499998515,"fast","post_correct",0.333689481019974,76.7361111111111
338.326124600004,0.1,"IA6LI11","2022_Jan_05_1225","NotPresent_First","S_blue","MainTask",106,"Flanker","absent",0.66,"S","2",0,0.233771100000013,"fast","post_correct",0.333689481019974,76.7361111111111
338.409195,0.2,"IA6LI11","2022_Jan_05_1225","NotPresent_First","S_blue","MainTask",106,"Target","absent",0.66,"S","2",0,0.233771100000013,"fast","post_correct",0.333689481019974,76.7361111111111
338.6429661,0,"IA6LI11","2022_Jan_05_1225","NotPresent_First","S_blue","MainTask",106,"Response","absent",0.66,"S","2",0,0.233771100000013,"fast","post_correct",0.333689481019974,76.7361111111111
339.587036800003,0.1,"IA6LI11","2022_Jan_05_1225","NotPresent_First","S_blue","MainTask",107,"Flanker","absent",1,"H","2",1,0.299822799992398,"fast","post_error",0.333689481019974,76.7361111111111
339.676961200006,0.2,"IA6LI11","2022_Jan_05_1225","NotPresent_First","S_blue","MainTask",107,"Target","absent",1,"H","2",1,0.299822799992398,"fast","post_error",0.333689481019974,76.7361111111111
339.976783999999,0,"IA6LI11","2022_Jan_05_1225","NotPresent_First","S_blue","MainTask",107,"Response","absent",1,"H","2",1,0.299822799992398,"fast","post_error",0.333689481019974,76.7361111111111
340.895336000001,0.1,"IA6LI11","2022_Jan_05_1225","NotPresent_First","S_blue","MainTask",108,"Flanker","absent",1,"H","2",1,0.347805600002175,"slow","post_correct",0.333689481019974,76.7361111111111
340.978001399999,0.2,"IA6LI11","2022_Jan_05_1225","NotPresent_First","S_blue","MainTask",108,"Target","absent",1,"H","2",1,0.347805600002175,"slow","post_correct",0.333689481019974,76.7361111111111
341.325807000001,0,"IA6LI11","2022_Jan_05_1225","NotPresent_First","S_blue","MainTask",108,"Response","absent",1,"H","2",1,0.347805600002175,"slow","post_correct",0.333689481019974,76.7361111111111
341.356864100002,0.1,"IA6LI11","2022_Jan_05_1225","NotPresent_First","S_blue","MainTask",108,"TooSlowFeedback","absent",1,"H","2",1,0.347805600002175,"slow","post_correct",0.333689481019974,76.7361111111111
343.299020599996,0.1,"IA6LI11","2022_Jan_05_1225","NotPresent_First","S_blue","MainTask",109,"Flanker","absent",0.33,"S","4",1,0.370025099997292,"slow","post_correct",0.333689481019974,76.7361111111111
343.396630600007,0.2,"IA6LI11","2022_Jan_05_1225","NotPresent_First","S_blue","MainTask",109,"Target","absent",0.33,"S","4",1,0.370025099997292,"slow","post_correct",0.333689481019974,76.7361111111111
343.766655700005,0,"IA6LI11","2022_Jan_05_1225","NotPresent_First","S_blue","MainTask",109,"Response","absent",0.33,"S","4",1,0.370025099997292,"slow","post_correct",0.333689481019974,76.7361111111111
343.809015899998,0.1,"IA6LI11","2022_Jan_05_1225","NotPresent_First","S_blue","MainTask",109,"TooSlowFeedback","absent",0.33,"S","4",1,0.370025099997292,"slow","post_correct",0.333689481019974,76.7361111111111
345.810222300002,0.1,"IA6LI11","2022_Jan_05_1225","NotPresent_First","S_blue","MainTask",110,"Flanker","absent",0.66,"H","2",1,0.342805799999041,"slow","post_correct",0.333689481019974,76.7361111111111
345.898895200007,0.2,"IA6LI11","2022_Jan_05_1225","NotPresent_First","S_blue","MainTask",110,"Target","absent",0.66,"H","2",1,0.342805799999041,"slow","post_correct",0.333689481019974,76.7361111111111
346.241701000006,0,"IA6LI11","2022_Jan_05_1225","NotPresent_First","S_blue","MainTask",110,"Response","absent",0.66,"H","2",1,0.342805799999041,"slow","post_correct",0.333689481019974,76.7361111111111
346.272513500007,0.1,"IA6LI11","2022_Jan_05_1225","NotPresent_First","S_blue","MainTask",110,"TooSlowFeedback","absent",0.66,"H","2",1,0.342805799999041,"slow","post_correct",0.333689481019974,76.7361111111111
348.236562799997,0.1,"IA6LI11","2022_Jan_05_1225","NotPresent_First","S_blue","MainTask",111,"Flanker","absent",1,"H","2",1,0.326362899999367,"fast","post_correct",0.333689481019974,76.7361111111111
348.334250500004,0.2,"IA6LI11","2022_Jan_05_1225","NotPresent_First","S_blue","MainTask",111,"Target","absent",1,"H","2",1,0.326362899999367,"fast","post_correct",0.333689481019974,76.7361111111111
348.660613400003,0,"IA6LI11","2022_Jan_05_1225","NotPresent_First","S_blue","MainTask",111,"Response","absent",1,"H","2",1,0.326362899999367,"fast","post_correct",0.333689481019974,76.7361111111111
349.695671900001,0.1,"IA6LI11","2022_Jan_05_1225","NotPresent_First","S_blue","MainTask",112,"Flanker","absent",1,"S","4",1,0.237527800010866,"fast","post_correct",0.333689481019974,76.7361111111111
349.785223600004,0.2,"IA6LI11","2022_Jan_05_1225","NotPresent_First","S_blue","MainTask",112,"Target","absent",1,"S","4",1,0.237527800010866,"fast","post_correct",0.333689481019974,76.7361111111111
350.022751400014,0,"IA6LI11","2022_Jan_05_1225","NotPresent_First","S_blue","MainTask",112,"Response","absent",1,"S","4",1,0.237527800010866,"fast","post_correct",0.333689481019974,76.7361111111111
350.877256200009,0.1,"IA6LI11","2022_Jan_05_1225","NotPresent_First","S_blue","MainTask",113,"Flanker","absent",1,"H","2",1,0.303815100007341,"fast","post_correct",0.333689481019974,76.7361111111111
350.952868299995,0.2,"IA6LI11","2022_Jan_05_1225","NotPresent_First","S_blue","MainTask",113,"Target","absent",1,"H","2",1,0.303815100007341,"fast","post_correct",0.333689481019974,76.7361111111111
351.256683400003,0,"IA6LI11","2022_Jan_05_1225","NotPresent_First","S_blue","MainTask",113,"Response","absent",1,"H","2",1,0.303815100007341,"fast","post_correct",0.333689481019974,76.7361111111111
352.154387100003,0.1,"IA6LI11","2022_Jan_05_1225","NotPresent_First","S_blue","MainTask",114,"Flanker","absent",1,"H","2",1,0.367211599994334,"slow","post_correct",0.333689481019974,76.7361111111111
352.237360600004,0.2,"IA6LI11","2022_Jan_05_1225","NotPresent_First","S_blue","MainTask",114,"Target","absent",1,"H","2",1,0.367211599994334,"slow","post_correct",0.333689481019974,76.7361111111111
352.604572199998,0,"IA6LI11","2022_Jan_05_1225","NotPresent_First","S_blue","MainTask",114,"Response","absent",1,"H","2",1,0.367211599994334,"slow","post_correct",0.333689481019974,76.7361111111111
352.629285400006,0.1,"IA6LI11","2022_Jan_05_1225","NotPresent_First","S_blue","MainTask",114,"TooSlowFeedback","absent",1,"H","2",1,0.367211599994334,"slow","post_correct",0.333689481019974,76.7361111111111
354.508094899997,0.1,"IA6LI11","2022_Jan_05_1225","NotPresent_First","S_blue","MainTask",115,"Flanker","absent",0,"S","2",0,0.270184199995128,"fast","post_correct",0.333689481019974,76.7361111111111
354.606362200007,0.2,"IA6LI11","2022_Jan_05_1225","NotPresent_First","S_blue","MainTask",115,"Target","absent",0,"S","2",0,0.270184199995128,"fast","post_correct",0.333689481019974,76.7361111111111
354.876546400003,0,"IA6LI11","2022_Jan_05_1225","NotPresent_First","S_blue","MainTask",115,"Response","absent",0,"S","2",0,0.270184199995128,"fast","post_correct",0.333689481019974,76.7361111111111
355.814338199998,0.1,"IA6LI11","2022_Jan_05_1225","NotPresent_First","S_blue","MainTask",116,"Flanker","absent",1,"S","4",1,0.308489399991231,"fast","post_error",0.333689481019974,76.7361111111111
355.907055700009,0.2,"IA6LI11","2022_Jan_05_1225","NotPresent_First","S_blue","MainTask",116,"Target","absent",1,"S","4",1,0.308489399991231,"fast","post_error",0.333689481019974,76.7361111111111
356.2155451,0,"IA6LI11","2022_Jan_05_1225","NotPresent_First","S_blue","MainTask",116,"Response","absent",1,"S","4",1,0.308489399991231,"fast","post_error",0.333689481019974,76.7361111111111
357.082999300008,0.1,"IA6LI11","2022_Jan_05_1225","NotPresent_First","S_blue","MainTask",117,"Flanker","absent",1,"H","2",1,0.269447099999525,"fast","post_correct",0.333689481019974,76.7361111111111
357.1581534,0.2,"IA6LI11","2022_Jan_05_1225","NotPresent_First","S_blue","MainTask",117,"Target","absent",1,"H","2",1,0.269447099999525,"fast","post_correct",0.333689481019974,76.7361111111111
357.427600499999,0,"IA6LI11","2022_Jan_05_1225","NotPresent_First","S_blue","MainTask",117,"Response","absent",1,"H","2",1,0.269447099999525,"fast","post_correct",0.333689481019974,76.7361111111111
358.316562699998,0.1,"IA6LI11","2022_Jan_05_1225","NotPresent_First","S_blue","MainTask",118,"Flanker","absent",1,"S","4",1,0.273956000004546,"fast","post_correct",0.333689481019974,76.7361111111111
358.409510500001,0.2,"IA6LI11","2022_Jan_05_1225","NotPresent_First","S_blue","MainTask",118,"Target","absent",1,"S","4",1,0.273956000004546,"fast","post_correct",0.333689481019974,76.7361111111111
358.683466500006,0,"IA6LI11","2022_Jan_05_1225","NotPresent_First","S_blue","MainTask",118,"Response","absent",1,"S","4",1,0.273956000004546,"fast","post_correct",0.333689481019974,76.7361111111111
359.4770288,0.1,"IA6LI11","2022_Jan_05_1225","NotPresent_First","S_blue","MainTask",119,"Flanker","absent",1,"S","4",1,0.31497120000131,"fast","post_correct",0.333689481019974,76.7361111111111
359.559825100005,0.2,"IA6LI11","2022_Jan_05_1225","NotPresent_First","S_blue","MainTask",119,"Target","absent",1,"S","4",1,0.31497120000131,"fast","post_correct",0.333689481019974,76.7361111111111
359.874796300006,0,"IA6LI11","2022_Jan_05_1225","NotPresent_First","S_blue","MainTask",119,"Response","absent",1,"S","4",1,0.31497120000131,"fast","post_correct",0.333689481019974,76.7361111111111
360.736972900006,0.1,"IA6LI11","2022_Jan_05_1225","NotPresent_First","S_blue","MainTask",120,"Flanker","absent",0.66,"S","4",1,0.318337200005772,"fast","post_correct",0.333689481019974,76.7361111111111
360.811124200001,0.2,"IA6LI11","2022_Jan_05_1225","NotPresent_First","S_blue","MainTask",120,"Target","absent",0.66,"S","4",1,0.318337200005772,"fast","post_correct",0.333689481019974,76.7361111111111
361.129461400007,0,"IA6LI11","2022_Jan_05_1225","NotPresent_First","S_blue","MainTask",120,"Response","absent",0.66,"S","4",1,0.318337200005772,"fast","post_correct",0.333689481019974,76.7361111111111
362.038738400006,0.1,"IA6LI11","2022_Jan_05_1225","NotPresent_First","S_blue","MainTask",121,"Flanker","absent",1,"S","4",1,0.21680940000806,"fast","post_correct",0.333689481019974,76.7361111111111
362.128946099998,0.2,"IA6LI11","2022_Jan_05_1225","NotPresent_First","S_blue","MainTask",121,"Target","absent",1,"S","4",1,0.21680940000806,"fast","post_correct",0.333689481019974,76.7361111111111
362.345755500006,0,"IA6LI11","2022_Jan_05_1225","NotPresent_First","S_blue","MainTask",121,"Response","absent",1,"S","4",1,0.21680940000806,"fast","post_correct",0.333689481019974,76.7361111111111
363.138739600006,0.1,"IA6LI11","2022_Jan_05_1225","NotPresent_First","S_blue","MainTask",122,"Flanker","absent",0,"S","4",1,0.344525599997723,"slow","post_correct",0.333689481019974,76.7361111111111
363.213015200003,0.2,"IA6LI11","2022_Jan_05_1225","NotPresent_First","S_blue","MainTask",122,"Target","absent",0,"S","4",1,0.344525599997723,"slow","post_correct",0.333689481019974,76.7361111111111
363.5575408,0,"IA6LI11","2022_Jan_05_1225","NotPresent_First","S_blue","MainTask",122,"Response","absent",0,"S","4",1,0.344525599997723,"slow","post_correct",0.333689481019974,76.7361111111111
363.588509399997,0.1,"IA6LI11","2022_Jan_05_1225","NotPresent_First","S_blue","MainTask",122,"TooSlowFeedback","absent",0,"S","4",1,0.344525599997723,"slow","post_correct",0.333689481019974,76.7361111111111
365.577439600005,0.1,"IA6LI11","2022_Jan_05_1225","NotPresent_First","S_blue","MainTask",123,"Flanker","absent",1,"H","2",1,0.361106900003506,"slow","post_correct",0.333689481019974,76.7361111111111
365.648339799998,0.2,"IA6LI11","2022_Jan_05_1225","NotPresent_First","S_blue","MainTask",123,"Target","absent",1,"H","2",1,0.361106900003506,"slow","post_correct",0.333689481019974,76.7361111111111
366.009446700002,0,"IA6LI11","2022_Jan_05_1225","NotPresent_First","S_blue","MainTask",123,"Response","absent",1,"H","2",1,0.361106900003506,"slow","post_correct",0.333689481019974,76.7361111111111
366.040836700005,0.1,"IA6LI11","2022_Jan_05_1225","NotPresent_First","S_blue","MainTask",123,"TooSlowFeedback","absent",1,"H","2",1,0.361106900003506,"slow","post_correct",0.333689481019974,76.7361111111111
368.002408200002,0.1,"IA6LI11","2022_Jan_05_1225","NotPresent_First","S_blue","MainTask",124,"Flanker","absent",0,"S","4",1,0.373653799993917,"slow","post_correct",0.333689481019974,76.7361111111111
368.083795700004,0.2,"IA6LI11","2022_Jan_05_1225","NotPresent_First","S_blue","MainTask",124,"Target","absent",0,"S","4",1,0.373653799993917,"slow","post_correct",0.333689481019974,76.7361111111111
368.457449499998,0,"IA6LI11","2022_Jan_05_1225","NotPresent_First","S_blue","MainTask",124,"Response","absent",0,"S","4",1,0.373653799993917,"slow","post_correct",0.333689481019974,76.7361111111111
368.496254400001,0.1,"IA6LI11","2022_Jan_05_1225","NotPresent_First","S_blue","MainTask",124,"TooSlowFeedback","absent",0,"S","4",1,0.373653799993917,"slow","post_correct",0.333689481019974,76.7361111111111
370.504818900008,0.1,"IA6LI11","2022_Jan_05_1225","NotPresent_First","S_blue","MainTask",125,"Flanker","absent",1,"H","4",0,0.307825299998512,"fast","post_correct",0.333689481019974,76.7361111111111
370.602702300006,0.2,"IA6LI11","2022_Jan_05_1225","NotPresent_First","S_blue","MainTask",125,"Target","absent",1,"H","4",0,0.307825299998512,"fast","post_correct",0.333689481019974,76.7361111111111
370.910527600005,0,"IA6LI11","2022_Jan_05_1225","NotPresent_First","S_blue","MainTask",125,"Response","absent",1,"H","4",0,0.307825299998512,"fast","post_correct",0.333689481019974,76.7361111111111
371.855979500004,0.1,"IA6LI11","2022_Jan_05_1225","NotPresent_First","S_blue","MainTask",126,"Flanker","absent",0.33,"H","2",1,0.491075400001137,"slow","post_error",0.333689481019974,76.7361111111111
371.953468499996,0.2,"IA6LI11","2022_Jan_05_1225","NotPresent_First","S_blue","MainTask",126,"Target","absent",0.33,"H","2",1,0.491075400001137,"slow","post_error",0.333689481019974,76.7361111111111
372.444543899997,0,"IA6LI11","2022_Jan_05_1225","NotPresent_First","S_blue","MainTask",126,"Response","absent",0.33,"H","2",1,0.491075400001137,"slow","post_error",0.333689481019974,76.7361111111111
372.478155899997,0.1,"IA6LI11","2022_Jan_05_1225","NotPresent_First","S_blue","MainTask",126,"TooSlowFeedback","absent",0.33,"H","2",1,0.491075400001137,"slow","post_error",0.333689481019974,76.7361111111111
374.278865300003,0.1,"IA6LI11","2022_Jan_05_1225","NotPresent_First","S_blue","MainTask",127,"Flanker","absent",0,"S","2",0,0.267241199995624,"fast","post_correct",0.333689481019974,76.7361111111111
374.372555299997,0.2,"IA6LI11","2022_Jan_05_1225","NotPresent_First","S_blue","MainTask",127,"Target","absent",0,"S","2",0,0.267241199995624,"fast","post_correct",0.333689481019974,76.7361111111111
374.639796499992,0,"IA6LI11","2022_Jan_05_1225","NotPresent_First","S_blue","MainTask",127,"Response","absent",0,"S","2",0,0.267241199995624,"fast","post_correct",0.333689481019974,76.7361111111111
375.530527900002,0.1,"IA6LI11","2022_Jan_05_1225","NotPresent_First","S_blue","MainTask",128,"Flanker","absent",1,"S","4",1,0.365164200004074,"slow","post_error",0.333689481019974,76.7361111111111
375.623607900008,0.2,"IA6LI11","2022_Jan_05_1225","NotPresent_First","S_blue","MainTask",128,"Target","absent",1,"S","4",1,0.365164200004074,"slow","post_error",0.333689481019974,76.7361111111111
375.988772100012,0,"IA6LI11","2022_Jan_05_1225","NotPresent_First","S_blue","MainTask",128,"Response","absent",1,"S","4",1,0.365164200004074,"slow","post_error",0.333689481019974,76.7361111111111
376.0146905,0.1,"IA6LI11","2022_Jan_05_1225","NotPresent_First","S_blue","MainTask",128,"TooSlowFeedback","absent",1,"S","4",1,0.365164200004074,"slow","post_error",0.333689481019974,76.7361111111111
377.827693200001,0.1,"IA6LI11","2022_Jan_05_1225","NotPresent_First","S_blue","MainTask",129,"Flanker","absent",0.33,"S","4",1,0.249280699994415,"fast","post_correct",0.333689481019974,76.7361111111111
377.925539000003,0.2,"IA6LI11","2022_Jan_05_1225","NotPresent_First","S_blue","MainTask",129,"Target","absent",0.33,"S","4",1,0.249280699994415,"fast","post_correct",0.333689481019974,76.7361111111111
378.174819699998,0,"IA6LI11","2022_Jan_05_1225","NotPresent_First","S_blue","MainTask",129,"Response","absent",0.33,"S","4",1,0.249280699994415,"fast","post_correct",0.333689481019974,76.7361111111111
379.045280999999,0.1,"IA6LI11","2022_Jan_05_1225","NotPresent_First","S_blue","MainTask",130,"Flanker","absent",0.33,"H","4",0,0.280487700001686,"fast","post_correct",0.333689481019974,76.7361111111111
379.143374300009,0.2,"IA6LI11","2022_Jan_05_1225","NotPresent_First","S_blue","MainTask",130,"Target","absent",0.33,"H","4",0,0.280487700001686,"fast","post_correct",0.333689481019974,76.7361111111111
379.423862000011,0,"IA6LI11","2022_Jan_05_1225","NotPresent_First","S_blue","MainTask",130,"Response","absent",0.33,"H","4",0,0.280487700001686,"fast","post_correct",0.333689481019974,76.7361111111111
380.385330100005,0.1,"IA6LI11","2022_Jan_05_1225","NotPresent_First","S_blue","MainTask",131,"Flanker","absent",0,"H","2",1,0.441049500004738,"slow","post_error",0.333689481019974,76.7361111111111
380.477541900007,0.2,"IA6LI11","2022_Jan_05_1225","NotPresent_First","S_blue","MainTask",131,"Target","absent",0,"H","2",1,0.441049500004738,"slow","post_error",0.333689481019974,76.7361111111111
380.918591400012,0,"IA6LI11","2022_Jan_05_1225","NotPresent_First","S_blue","MainTask",131,"Response","absent",0,"H","2",1,0.441049500004738,"slow","post_error",0.333689481019974,76.7361111111111
380.951953399999,0.1,"IA6LI11","2022_Jan_05_1225","NotPresent_First","S_blue","MainTask",131,"TooSlowFeedback","absent",0,"H","2",1,0.441049500004738,"slow","post_error",0.333689481019974,76.7361111111111
382.882276600008,0.1,"IA6LI11","2022_Jan_05_1225","NotPresent_First","S_blue","MainTask",132,"Flanker","absent",0.33,"H","2",1,0.379711599991424,"slow","post_correct",0.333689481019974,76.7361111111111
382.980130399999,0.2,"IA6LI11","2022_Jan_05_1225","NotPresent_First","S_blue","MainTask",132,"Target","absent",0.33,"H","2",1,0.379711599991424,"slow","post_correct",0.333689481019974,76.7361111111111
383.359841999991,0,"IA6LI11","2022_Jan_05_1225","NotPresent_First","S_blue","MainTask",132,"Response","absent",0.33,"H","2",1,0.379711599991424,"slow","post_correct",0.333689481019974,76.7361111111111
383.388581799998,0.1,"IA6LI11","2022_Jan_05_1225","NotPresent_First","S_blue","MainTask",132,"TooSlowFeedback","absent",0.33,"H","2",1,0.379711599991424,"slow","post_correct",0.333689481019974,76.7361111111111
385.255112300001,0.1,"IA6LI11","2022_Jan_05_1225","NotPresent_First","S_blue","MainTask",133,"Flanker","absent",0,"S","2",0,0.24034030000621,"fast","post_correct",0.333689481019974,76.7361111111111
385.348312900009,0.2,"IA6LI11","2022_Jan_05_1225","NotPresent_First","S_blue","MainTask",133,"Target","absent",0,"S","2",0,0.24034030000621,"fast","post_correct",0.333689481019974,76.7361111111111
385.588653200015,0,"IA6LI11","2022_Jan_05_1225","NotPresent_First","S_blue","MainTask",133,"Response","absent",0,"S","2",0,0.24034030000621,"fast","post_correct",0.333689481019974,76.7361111111111
386.559272099999,0.1,"IA6LI11","2022_Jan_05_1225","NotPresent_First","S_blue","MainTask",134,"Flanker","absent",1,"S","4",1,0.334647499999846,"slow","post_error",0.333689481019974,76.7361111111111
386.648860700006,0.2,"IA6LI11","2022_Jan_05_1225","NotPresent_First","S_blue","MainTask",134,"Target","absent",1,"S","4",1,0.334647499999846,"slow","post_error",0.333689481019974,76.7361111111111
386.983508200006,0,"IA6LI11","2022_Jan_05_1225","NotPresent_First","S_blue","MainTask",134,"Response","absent",1,"S","4",1,0.334647499999846,"slow","post_error",0.333689481019974,76.7361111111111
387.012561199997,0.1,"IA6LI11","2022_Jan_05_1225","NotPresent_First","S_blue","MainTask",134,"TooSlowFeedback","absent",1,"S","4",1,0.334647499999846,"slow","post_error",0.333689481019974,76.7361111111111
388.993570300008,0.1,"IA6LI11","2022_Jan_05_1225","NotPresent_First","S_blue","MainTask",135,"Flanker","absent",0.66,"S","4",1,0.290889199997764,"fast","post_correct",0.333689481019974,76.7361111111111
389.084706000009,0.2,"IA6LI11","2022_Jan_05_1225","NotPresent_First","S_blue","MainTask",135,"Target","absent",0.66,"S","4",1,0.290889199997764,"fast","post_correct",0.333689481019974,76.7361111111111
389.375595200007,0,"IA6LI11","2022_Jan_05_1225","NotPresent_First","S_blue","MainTask",135,"Response","absent",0.66,"S","4",1,0.290889199997764,"fast","post_correct",0.333689481019974,76.7361111111111
390.261891200003,0.1,"IA6LI11","2022_Jan_05_1225","NotPresent_First","S_blue","MainTask",136,"Flanker","absent",1,"H","2",1,0.345142900012434,"slow","post_correct",0.333689481019974,76.7361111111111
390.352379899996,0.2,"IA6LI11","2022_Jan_05_1225","NotPresent_First","S_blue","MainTask",136,"Target","absent",1,"H","2",1,0.345142900012434,"slow","post_correct",0.333689481019974,76.7361111111111
390.697522800008,0,"IA6LI11","2022_Jan_05_1225","NotPresent_First","S_blue","MainTask",136,"Response","absent",1,"H","2",1,0.345142900012434,"slow","post_correct",0.333689481019974,76.7361111111111
390.731472400003,0.1,"IA6LI11","2022_Jan_05_1225","NotPresent_First","S_blue","MainTask",136,"TooSlowFeedback","absent",1,"H","2",1,0.345142900012434,"slow","post_correct",0.333689481019974,76.7361111111111
392.521744500002,0.1,"IA6LI11","2022_Jan_05_1225","NotPresent_First","S_blue","MainTask",137,"Flanker","absent",1,"H","2",1,0.344081000002916,"slow","post_correct",0.333689481019974,76.7361111111111
392.604316800003,0.2,"IA6LI11","2022_Jan_05_1225","NotPresent_First","S_blue","MainTask",137,"Target","absent",1,"H","2",1,0.344081000002916,"slow","post_correct",0.333689481019974,76.7361111111111
392.948397800006,0,"IA6LI11","2022_Jan_05_1225","NotPresent_First","S_blue","MainTask",137,"Response","absent",1,"H","2",1,0.344081000002916,"slow","post_correct",0.333689481019974,76.7361111111111
392.979973299996,0.1,"IA6LI11","2022_Jan_05_1225","NotPresent_First","S_blue","MainTask",137,"TooSlowFeedback","absent",1,"H","2",1,0.344081000002916,"slow","post_correct",0.333689481019974,76.7361111111111
394.997971699995,0.1,"IA6LI11","2022_Jan_05_1225","NotPresent_First","S_blue","MainTask",138,"Flanker","absent",1,"S","4",1,0.260694100012188,"fast","post_correct",0.333689481019974,76.7361111111111
395.089778599999,0.2,"IA6LI11","2022_Jan_05_1225","NotPresent_First","S_blue","MainTask",138,"Target","absent",1,"S","4",1,0.260694100012188,"fast","post_correct",0.333689481019974,76.7361111111111
395.350472700011,0,"IA6LI11","2022_Jan_05_1225","NotPresent_First","S_blue","MainTask",138,"Response","absent",1,"S","4",1,0.260694100012188,"fast","post_correct",0.333689481019974,76.7361111111111
396.314268900009,0.1,"IA6LI11","2022_Jan_05_1225","NotPresent_First","S_blue","MainTask",139,"Flanker","absent",1,"H","4",0,0.246606699991389,"fast","post_correct",0.333689481019974,76.7361111111111
396.407342400009,0.2,"IA6LI11","2022_Jan_05_1225","NotPresent_First","S_blue","MainTask",139,"Target","absent",1,"H","4",0,0.246606699991389,"fast","post_correct",0.333689481019974,76.7361111111111
396.6539491,0,"IA6LI11","2022_Jan_05_1225","NotPresent_First","S_blue","MainTask",139,"Response","absent",1,"H","4",0,0.246606699991389,"fast","post_correct",0.333689481019974,76.7361111111111
397.475877699995,0.1,"IA6LI11","2022_Jan_05_1225","NotPresent_First","S_blue","MainTask",140,"Flanker","absent",1,"H","2",1,0.351152400005958,"slow","post_error",0.333689481019974,76.7361111111111
397.558334300003,0.2,"IA6LI11","2022_Jan_05_1225","NotPresent_First","S_blue","MainTask",140,"Target","absent",1,"H","2",1,0.351152400005958,"slow","post_error",0.333689481019974,76.7361111111111
397.909486700009,0,"IA6LI11","2022_Jan_05_1225","NotPresent_First","S_blue","MainTask",140,"Response","absent",1,"H","2",1,0.351152400005958,"slow","post_error",0.333689481019974,76.7361111111111
397.938375800004,0.1,"IA6LI11","2022_Jan_05_1225","NotPresent_First","S_blue","MainTask",140,"TooSlowFeedback","absent",1,"H","2",1,0.351152400005958,"slow","post_error",0.333689481019974,76.7361111111111
399.818846099995,0.1,"IA6LI11","2022_Jan_05_1225","NotPresent_First","S_blue","MainTask",141,"Flanker","absent",0.66,"H","2",1,0.289880700001959,"fast","post_correct",0.333689481019974,76.7361111111111
399.910669200006,0.2,"IA6LI11","2022_Jan_05_1225","NotPresent_First","S_blue","MainTask",141,"Target","absent",0.66,"H","2",1,0.289880700001959,"fast","post_correct",0.333689481019974,76.7361111111111
400.200549900008,0,"IA6LI11","2022_Jan_05_1225","NotPresent_First","S_blue","MainTask",141,"Response","absent",0.66,"H","2",1,0.289880700001959,"fast","post_correct",0.333689481019974,76.7361111111111
401.218483500008,0.1,"IA6LI11","2022_Jan_05_1225","NotPresent_First","S_blue","MainTask",142,"Flanker","absent",1,"H","2",1,0.290806599994539,"fast","post_correct",0.333689481019974,76.7361111111111
401.311680400002,0.2,"IA6LI11","2022_Jan_05_1225","NotPresent_First","S_blue","MainTask",142,"Target","absent",1,"H","2",1,0.290806599994539,"fast","post_correct",0.333689481019974,76.7361111111111
401.602486999996,0,"IA6LI11","2022_Jan_05_1225","NotPresent_First","S_blue","MainTask",142,"Response","absent",1,"H","2",1,0.290806599994539,"fast","post_correct",0.333689481019974,76.7361111111111
402.485893699995,0.1,"IA6LI11","2022_Jan_05_1225","NotPresent_First","S_blue","MainTask",143,"Flanker","absent",0.33,"S","4",1,0.251324199998635,"fast","post_correct",0.333689481019974,76.7361111111111
402.579175300009,0.2,"IA6LI11","2022_Jan_05_1225","NotPresent_First","S_blue","MainTask",143,"Target","absent",0.33,"S","4",1,0.251324199998635,"fast","post_correct",0.333689481019974,76.7361111111111
402.830499500007,0,"IA6LI11","2022_Jan_05_1225","NotPresent_First","S_blue","MainTask",143,"Response","absent",0.33,"S","4",1,0.251324199998635,"fast","post_correct",0.333689481019974,76.7361111111111
