values,cards,winlose,winlosecolor,MoneyTrigger,ChoiceTrigger,FeedbackTrigger,TrialPractice.thisRepN,TrialPractice.thisTrialN,TrialPractice.thisN,TrialPractice.thisIndex,Trial.thisRepN,Trial.thisTrialN,Trial.thisN,Trial.thisIndex,example2.started,example2.stopped,jitter,Fixation_prac.started,Fixation_prac.stopped,Money_prac.started,Money_prac.stopped,Choice_prac.started,Choice_prac.stopped,choice_prac.keys,choice_prac.rt,FeedbackSlide_prac.started,FeedbackSlide_prac.stopped,Fixation.started,Fixation.stopped,Money.started,Money.stopped,Choice.started,Choice.stopped,choice_resp.keys,choice_resp.rt,choice_resp.started,choice_resp.stopped,Square1.started,Square1.stopped,Square2.started,Square2.stopped,MoneyWon,FeedbackSlide.started,FeedbackSlide.stopped,square5.started,square5.stopped,square4.started,square4.stopped,Break_Text.started,Break_Text.stopped,Key_Response_Break.keys,Key_Response_Break.rt,text_2.started,text_2.stopped,participant,session,EEGPort,LogFilesFolder,date,expName,psychopyVersion,frameRate,
0,7,x,#ed1c24,,,,0,0,0,1,,,,,83.3152932322264,None,4.020847995135348,99.89607550571236,103.91613451825106,103.91613451825106,104.4165760183896,104.4165760183896,None,2,3.8179715497135476,110.25525708959867,None,,,,,,,,,,,,,,,,,,,,,,,,,,,,AM04EN20b,1,0xC010,G:\Experimente\CoScience\Tasks\Logfiles\,2022_Feb_16_1043,Gambling,2020.1.3,59.94392199733289,
50,4,x,#ed1c24,,,,0,1,1,4,,,,,,,2.6198147896660866,111.25611412785838,113.87500251598249,113.85832615002255,114.35874752230484,114.35874752230484,None,4,4.113581489373246,120.48062110478531,None,,,,,,,,,,,,,,,,,,,,,,,,,,,,AM04EN20b,1,0xC010,G:\Experimente\CoScience\Tasks\Logfiles\,2022_Feb_16_1043,Gambling,2020.1.3,59.94392199733289,
50,3,o,#3ced1d,,,,0,2,2,8,,,,,,,2.692507570950468,121.48147814304502,124.18377198931739,124.15040933932505,124.65083829601645,124.65083829601645,None,4,2.76329787621944,129.4215636426743,None,,,,,,,,,,,,,,,,,,,,,,,,,,,,AM04EN20b,1,0xC010,G:\Experimente\CoScience\Tasks\Logfiles\,2022_Feb_16_1043,Gambling,2020.1.3,59.94392199733289,
10,4,o,#3ced1d,,,,0,3,3,7,,,,,,,4.372177937868887,130.42241572189778,134.80947876146638,134.7761184451374,135.27654331791564,135.27654331791564,None,4,1.4813952979584428,138.76284222824142,None,,,,,,,,,,,,,,,,,,,,,,,,,,,,AM04EN20b,1,0xC010,G:\Experimente\CoScience\Tasks\Logfiles\,2022_Feb_16_1043,Gambling,2020.1.3,59.94392199733289,
0,5,x,#ed1c24,,,,0,4,4,0,,,,,,,3.690848360962904,139.76369984991652,143.46685481835993,143.4334831254182,143.93390741478106,143.93390741478106,None,2,2.2558297125069657,148.20420759695298,None,,,,,,,,,,,,,,,,,,,,,,,,,,,,AM04EN20b,1,0xC010,G:\Experimente\CoScience\Tasks\Logfiles\,2022_Feb_16_1043,Gambling,2020.1.3,59.94392199733289,
0,5,o,#3ced1d,,,,0,5,5,5,,,,,,,3.2570165671782965,149.2050623015475,152.47450661229232,152.44114658767285,152.9415708770357,152.9415708770357,None,2,2.9469674760111957,157.89578875669577,None,,,,,,,,,,,,,,,,,,,,,,,,,,,,AM04EN20b,1,0xC010,G:\Experimente\CoScience\Tasks\Logfiles\,2022_Feb_16_1043,Gambling,2020.1.3,59.94392199733289,
10,5,x,#ed1c24,,,,0,6,6,2,,,,,,,3.0295147842739993,158.89663996079435,161.9325562230806,161.89919240625568,162.39961757074343,162.39961757074343,None,2,2.8277125567183248,167.23706763397058,None,,,,,,,,,,,,,,,,,,,,,,,,,,,,AM04EN20b,1,0xC010,G:\Experimente\CoScience\Tasks\Logfiles\,2022_Feb_16_1043,Gambling,2020.1.3,59.94392199733289,
10,4,o,#3ced1d,,,,0,7,7,6,,,,,,,2.855086228693507,168.23791942148455,171.10702418405526,171.07366474285118,171.5740919492946,171.5740919492946,None,4,2.1700958406800055,175.76098550648567,None,,,,,,,,,,,,,,,,,,,,,,,,,,,,AM04EN20b,1,0xC010,G:\Experimente\CoScience\Tasks\Logfiles\,2022_Feb_16_1043,Gambling,2020.1.3,59.94392199733289,
50,8,o,#3ced1d,,,,0,8,8,9,,,,,,,3.0228446439984324,176.76184983744497,179.79775122262072,179.76439119800125,180.2648157790718,180.2648157790718,None,2,2.2091470894101803,184.48507286137828,None,,,,,,,,,,,,,,,,,,,,,,,,,,,,AM04EN20b,1,0xC010,G:\Experimente\CoScience\Tasks\Logfiles\,2022_Feb_16_1043,Gambling,2020.1.3,59.94392199733289,
10,4,x,#ed1c24,,,,0,9,9,3,,,,,,,3.4926708846799723,185.48592698255743,188.98890692616988,188.95554281763725,189.45596885724808,189.45596885724808,None,4,1.3948125556980813,192.85886318454686,None,,,,,,,,,,,,,,,,,,,,,,,,,,,,AM04EN20b,1,0xC010,G:\Experimente\CoScience\Tasks\Logfiles\,2022_Feb_16_1043,Gambling,2020.1.3,59.94392199733289,
50,4,x,#ed1c24,59,54,150,,,,,0,0,0,85,,,2.8423033026174327,,,,,,,,,,,202.61717314477391,205.46959074818733,205.43622926502758,205.9366555963461,205.9366555963461,None,4,0.9387844817156292,205.9366555963461,None,205.43622926502758,205.9366555963461,205.9366555963461,None,950,208.88918594492316,None,206.9041467758234,208.90584714206307,208.88918594492316,None,None,None,None,,,,AM04EN20b,1,0xC010,G:\Experimente\CoScience\Tasks\Logfiles\,2022_Feb_16_1043,Gambling,2020.1.3,59.94392199733289,
0,5,o,#3ced1d,9,5,101,,,,,0,1,1,103,,,3.7239301333719714,,,,,,,,,,,209.92338404677866,213.65989262226503,213.62653288935326,214.12695688700842,214.12695688700842,None,4,1.5942941904886538,214.12695688700842,None,213.62653288935326,214.12695688700842,214.12695688700842,None,950,217.7467026050981,None,215.76168735606007,217.7633833466789,217.7467026050981,None,None,None,None,,,,AM04EN20b,1,0xC010,G:\Experimente\CoScience\Tasks\Logfiles\,2022_Feb_16_1043,Gambling,2020.1.3,59.94392199733289,
10,5,x,#ed1c24,19,15,110,,,,,0,2,2,166,,,3.4844639108904802,,,,,,,,,,,218.74756489410174,222.23385417806094,222.21717256135707,222.7175986009679,222.7175986009679,None,2,2.247453899188258,222.7175986009679,None,222.21717256135707,222.7175986009679,222.7175986009679,None,940,226.98790695096613,None,225.00288703459773,227.00457689934774,226.98790695096613,None,None,None,None,,,,AM04EN20b,1,0xC010,G:\Experimente\CoScience\Tasks\Logfiles\,2022_Feb_16_1043,Gambling,2020.1.3,59.94392199733289,
50,6,o,#3ced1d,59,56,251,,,,,0,3,3,224,,,3.6132297241621822,,,,,,,,,,,228.02211963822447,231.64185543823987,231.62518665669086,232.12560131968712,232.12560131968712,None,2,2.023249131803823,232.12560131968712,None,231.62518665669086,232.12560131968712,232.12560131968712,None,990,236.17904981936044,None,234.19404098789892,236.19572997752402,236.17904981936044,None,None,None,None,,,,AM04EN20b,1,0xC010,G:\Experimente\CoScience\Tasks\Logfiles\,2022_Feb_16_1043,Gambling,2020.1.3,59.94392199733289,
50,3,o,#3ced1d,59,53,251,,,,,0,4,4,216,,,2.853191566438645,,,,,,,,,,,237.21326454857444,240.0656882778585,240.0490069528605,240.54943474272113,240.54943474272113,None,4,2.88322634940414,240.54943474272113,None,240.0490069528605,240.54943474272113,240.54943474272113,None,1040,245.43692353019287,None,243.4519024469937,245.45360456348135,245.43692353019287,None,None,None,None,,,,AM04EN20b,1,0xC010,G:\Experimente\CoScience\Tasks\Logfiles\,2022_Feb_16_1043,Gambling,2020.1.3,59.94392199733289,
0,4,o,#3ced1d,9,4,101,,,,,0,5,5,7,,,3.7523367366485303,,,,,,,,,,,246.45445985149126,250.20764916855842,250.19096901039484,250.6913932997577,250.6913932997577,None,2,2.1310685120115522,250.6913932997577,None,250.19096901039484,250.6913932997577,250.6913932997577,None,1040,254.8282452156236,None,252.8432258826724,254.84492654061978,254.8282452156236,None,None,None,None,,,,AM04EN20b,1,0xC010,G:\Experimente\CoScience\Tasks\Logfiles\,2022_Feb_16_1043,Gambling,2020.1.3,59.94392199733289,
10,4,x,#ed1c24,19,14,110,,,,,0,6,6,53,,,3.1758225648219565,,,,,,,,,,,255.82910021192583,259.01514139818573,258.9817790399011,259.4822039126793,259.4822039126793,None,4,2.4300628484998015,259.4822039126793,None,258.9817790399011,259.4822039126793,259.4822039126793,None,1030,263.935995169315,None,261.9509831290652,263.9526721186903,263.935995169315,None,None,None,None,,,,AM04EN20b,1,0xC010,G:\Experimente\CoScience\Tasks\Logfiles\,2022_Feb_16_1043,Gambling,2020.1.3,59.94392199733289,
10,4,o,#3ced1d,19,14,111,,,,,0,7,7,49,,,3.9849563043331715,,,,,,,,,,,264.9702078565733,268.95693047284476,268.94025964933826,269.4406772294151,269.4406772294151,None,4,2.0423863468968193,269.4406772294151,None,268.94025964933826,269.4406772294151,269.4406772294151,None,1040,273.5108050121271,None,271.52579209675423,273.52748692054047,273.5108050121271,None,None,None,None,,,,AM04EN20b,1,0xC010,G:\Experimente\CoScience\Tasks\Logfiles\,2022_Feb_16_1043,Gambling,2020.1.3,59.94392199733289,
10,4,x,#ed1c24,19,14,110,,,,,0,8,8,55,,,3.5921422680958326,,,,,,,,,,,274.5450276174597,278.14808325931153,278.13140426798054,278.6318270988031,278.6151472323472,None,4,1.3987296114300989,278.6151472323472,None,278.13140426798054,278.6318270988031,278.6151472323472,None,1030,282.0347228846422,None,280.04970763560414,282.0514015842655,282.0347228846422,None,None,None,None,,,,AM04EN20b,1,0xC010,G:\Experimente\CoScience\Tasks\Logfiles\,2022_Feb_16_1043,Gambling,2020.1.3,59.94392199733289,
10,3,x,#ed1c24,19,13,210,,,,,0,9,9,214,,,4.446322975258056,,,,,,,,,,,283.06894198947884,287.5227230363307,287.50604200304224,288.00646891777797,288.00646891777797,None,4,1.7702081482802896,288.00646891777797,None,287.50604200304224,288.00646891777797,288.00646891777797,None,1020,291.79302292679495,None,289.8080009684709,291.8097060020391,291.79302292679495,None,None,None,None,,,,AM04EN20b,1,0xC010,G:\Experimente\CoScience\Tasks\Logfiles\,2022_Feb_16_1043,Gambling,2020.1.3,59.94392199733289,
0,5,x,#ed1c24,9,5,100,,,,,0,10,10,120,,,2.7689761241691353,,,,,,,,,,,292.8273079576502,295.5962565105583,295.5795766441024,296.08000239200555,296.08000239200555,None,4,3.097464911168572,296.08000239200555,None,295.5795766441024,296.08000239200555,296.08000239200555,None,1020,301.18434548734876,None,299.1993223621939,301.20102535380465,301.18434548734876,None,None,None,None,,,,AM04EN20b,1,0xC010,G:\Experimente\CoScience\Tasks\Logfiles\,2022_Feb_16_1043,Gambling,2020.1.3,59.94392199733289,
50,5,x,#ed1c24,59,55,150,,,,,0,11,11,194,,,2.7844694910550527,,,,,,,,,,,302.1852077763524,304.97089949636575,304.9542164211216,305.4546459612284,305.4546459612284,None,4,1.524652685098772,305.4546459612284,None,304.9542164211216,305.4546459612284,305.4546459612284,None,970,308.9909850543372,None,307.00596309601497,309.0076660876257,308.9909850543372,None,None,None,None,,,,AM04EN20b,1,0xC010,G:\Experimente\CoScience\Tasks\Logfiles\,2022_Feb_16_1043,Gambling,2020.1.3,59.94392199733289,
0,5,x,#ed1c24,9,5,100,,,,,0,12,12,128,,,2.527376809817571,,,,,,,,,,,310.0085295434619,312.5440080978151,312.51064603123814,313.0110723625585,313.0110723625585,None,4,2.1020724398604216,313.0110723625585,None,312.51064603123814,313.0110723625585,313.0110723625585,None,970,317.11455987818226,None,315.12954258718855,317.1312435368436,317.11455987818226,None,None,None,None,,,,AM04EN20b,1,0xC010,G:\Experimente\CoScience\Tasks\Logfiles\,2022_Feb_16_1043,Gambling,2020.1.3,59.94392199733289,
10,5,o,#3ced1d,19,15,111,,,,,0,13,13,149,,,4.342870936741436,,,,,,,,,,,318.1154131242365,322.46911701431054,322.4357552394413,322.9361806956367,322.9361806956367,None,4,2.129731905713925,322.9361806956367,None,322.4357552394413,322.9361806956367,322.9361806956367,None,980,327.0897148116219,None,325.1047016045395,327.106395261495,327.0897148116219,None,None,None,None,,,,AM04EN20b,1,0xC010,G:\Experimente\CoScience\Tasks\Logfiles\,2022_Feb_16_1043,Gambling,2020.1.3,59.94392199733289,
10,5,x,#ed1c24,19,15,110,,,,,0,14,14,153,,,3.647166130168899,,,,,,,,,,,328.1239289574205,331.77703528354687,331.74367234184683,332.24409808974997,332.24409808974997,None,4,1.712628187457085,332.24409808974997,None,331.74367234184683,332.24409808974997,332.24409808974997,None,970,335.9806326272537,None,333.99559608352683,335.9972909073149,335.9806326272537,None,None,None,None,,,,AM04EN20b,1,0xC010,G:\Experimente\CoScience\Tasks\Logfiles\,2022_Feb_16_1043,Gambling,2020.1.3,59.94392199733289,
10,7,o,#3ced1d,19,17,211,,,,,0,15,15,229,,,3.1300678634846935,,,,,,,,,,,337.0148178939562,340.1508229813444,340.1341436983039,340.6345697379147,340.6345697379147,None,2,1.4309855210703972,340.6345697379147,None,340.1341436983039,340.6345697379147,340.6345697379147,None,980,344.08750541483096,None,342.102491040916,344.10418615641174,344.08750541483096,None,None,None,None,,,,AM04EN20b,1,0xC010,G:\Experimente\CoScience\Tasks\Logfiles\,2022_Feb_16_1043,Gambling,2020.1.3,59.94392199733289,
10,5,o,#3ced1d,19,15,111,,,,,0,16,16,150,,,3.7339936684277157,,,,,,,,,,,345.12172247771014,348.8582325117368,348.8415508950329,349.34197664293606,349.34197664293606,None,4,1.5783847250004328,349.34197664293606,None,348.8415508950329,349.34197664293606,349.34197664293606,None,990,352.9283617529909,None,350.94333600246136,352.9450404526142,352.9283617529909,None,None,None,None,,,,AM04EN20b,1,0xC010,G:\Experimente\CoScience\Tasks\Logfiles\,2022_Feb_16_1043,Gambling,2020.1.3,59.94392199733289,
50,4,o,#3ced1d,59,54,151,,,,,0,17,17,79,,,4.408408639354576,,,,,,,,,,,353.9459039084504,358.3663182213968,358.34964448081155,358.85006351942866,358.85006351942866,None,4,1.2601023603565409,358.85006351942866,None,358.34964448081155,358.85006351942866,358.85006351942866,None,1040,362.119510747254,None,360.134487038682,362.1361914888348,362.119510747254,None,None,None,None,,,,AM04EN20b,1,0xC010,G:\Experimente\CoScience\Tasks\Logfiles\,2022_Feb_16_1043,Gambling,2020.1.3,59.94392199733289,
10,5,o,#3ced1d,19,15,111,,,,,0,18,18,139,,,2.8136610330902183,,,,,,,,,,,363.13704298463927,365.95610639759434,365.9227449144346,366.4231712457531,366.4231712457531,None,2,2.180818445282057,366.4231712457531,None,365.9227449144346,366.4231712457531,366.4231712457531,None,1050,370.61006596977677,None,368.6250527626944,370.62674612794035,370.61006596977677,None,None,None,None,,,,AM04EN20b,1,0xC010,G:\Experimente\CoScience\Tasks\Logfiles\,2022_Feb_16_1043,Gambling,2020.1.3,59.94392199733289,
10,5,x,#ed1c24,19,15,110,,,,,0,19,19,169,,,4.451508619397061,,,,,,,,,,,371.6275996657023,376.0813871301325,376.04802418843246,376.54845139487406,376.54845139487406,None,2,1.2543376258163335,376.54845139487406,None,376.04802418843246,376.54845139487406,376.54845139487406,None,1040,379.8345781974476,None,377.84956732403043,379.8512592307361,379.8345781974476,None,None,None,None,,,,AM04EN20b,1,0xC010,G:\Experimente\CoScience\Tasks\Logfiles\,2022_Feb_16_1043,Gambling,2020.1.3,59.94392199733289,
50,5,x,#ed1c24,59,55,150,,,,,0,20,20,193,,,4.280295318343935,,,,,,,,,,,380.8687938017865,385.15577180845867,385.1390910668779,385.6395173981982,385.6395173981982,None,2,2.925041240225255,385.6395173981982,None,385.1390910668779,385.6395173981982,385.6395173981982,None,990,390.57705074407386,None,388.5920282023344,390.59373061052975,390.57705074407386,None,None,None,None,,,,AM04EN20b,1,0xC010,G:\Experimente\CoScience\Tasks\Logfiles\,2022_Feb_16_1043,Gambling,2020.1.3,59.94392199733289,
0,4,x,#ed1c24,9,4,100,,,,,0,21,21,24,,,2.5113498477982255,,,,,,,,,,,391.5945861902492,394.1133901288904,394.0967099707268,394.59715088744815,394.59715088744815,None,4,1.7782388709747465,394.59715088744815,None,394.0967099707268,394.59715088744815,394.59715088744815,None,990,398.3836897276469,None,396.3986709781111,398.40037309459876,398.3836897276469,None,None,None,None,,,,AM04EN20b,1,0xC010,G:\Experimente\CoScience\Tasks\Logfiles\,2022_Feb_16_1043,Gambling,2020.1.3,59.94392199733289,
50,2,o,#3ced1d,59,52,251,,,,,0,22,22,208,,,3.429298640830908,,,,,,,,,,,399.38454559907404,402.82079586708096,402.80411716745584,403.30454641585675,403.30454641585675,None,4,0.8996792669968272,403.30454641585675,None,402.80411716745584,403.30454641585675,403.30454641585675,None,1040,406.2236925280449,None,404.2386804877933,406.2403712276682,406.2236925280449,None,None,None,None,,,,AM04EN20b,1,0xC010,G:\Experimente\CoScience\Tasks\Logfiles\,2022_Feb_16_1043,Gambling,2020.1.3,59.94392199733289,
50,2,x,#ed1c24,59,52,250,,,,,0,23,23,209,,,4.292449032915199,,,,,,,,,,,407.2579078406743,411.56156425526206,411.54489459858814,412.0453092615844,412.0453092615844,None,4,0.6997341081114428,412.0453092615844,None,411.54489459858814,412.0453092615844,412.0453092615844,None,990,414.7642896835987,None,412.779276768224,414.780968383222,414.7642896835987,None,None,None,None,,,,AM04EN20b,1,0xC010,G:\Experimente\CoScience\Tasks\Logfiles\,2022_Feb_16_1043,Gambling,2020.1.3,59.94392199733289,
50,5,o,#3ced1d,59,55,151,,,,,0,24,24,181,,,4.050278265560925,,,,,,,,,,,415.7984971201131,419.8519552461512,419.83527012894956,420.33569791880836,420.33569791880836,None,4,1.319196869388179,420.33569791880836,None,419.83527012894956,420.33569791880836,420.33569791880836,None,1040,423.68854739599556,None,421.70353710599375,423.70522726245144,423.68854739599556,None,None,None,None,,,,AM04EN20b,1,0xC010,G:\Experimente\CoScience\Tasks\Logfiles\,2022_Feb_16_1043,Gambling,2020.1.3,59.94392199733289,
0,4,x,#ed1c24,9,4,100,,,,,0,25,25,27,,,4.128873862264316,,,,,,,,,,,424.7227662091227,428.8595892458907,428.82625751695196,429.32672672935405,429.32672672935405,None,2,1.6259246780628018,429.32672672935405,None,428.82625751695196,429.32672672935405,429.32672672935405,None,1040,432.979800967596,None,430.99476938290536,432.9964636232762,432.979800967596,None,None,None,None,,,,AM04EN20b,1,0xC010,G:\Experimente\CoScience\Tasks\Logfiles\,2022_Feb_16_1043,Gambling,2020.1.3,59.94392199733289,
50,4,o,#3ced1d,59,54,151,,,,,0,26,26,70,,,3.8239838012190353,,,,,,,,,,,433.98063962824745,437.8172326532167,437.78386941980716,438.2842951677103,438.2842951677103,None,4,1.466170762976617,438.2842951677103,None,437.78386941980716,438.2842951677103,438.2842951677103,None,1090,441.77059553657455,None,439.7855732865428,441.78727511132274,441.77059553657455,None,None,None,None,,,,AM04EN20b,1,0xC010,G:\Experimente\CoScience\Tasks\Logfiles\,2022_Feb_16_1043,Gambling,2020.1.3,59.94392199733289,
50,5,x,#ed1c24,59,55,150,,,,,0,27,27,195,,,3.9742487147091534,,,,,,,,,,,442.80481055749806,446.7915314235215,446.75816906523687,447.2585942297228,447.2585942297228,None,2,2.097664147768228,447.2585942297228,None,446.75816906523687,447.2585942297228,447.2585942297228,None,1040,451.3787686127962,None,449.39375365546584,451.3954481875444,451.3787686127962,None,None,None,None,,,,AM04EN20b,1,0xC010,G:\Experimente\CoScience\Tasks\Logfiles\,2022_Feb_16_1043,Gambling,2020.1.3,59.94392199733289,
0,4,o,#3ced1d,9,4,101,,,,,0,28,28,4,,,2.6649412445509224,,,,,,,,,,,452.4129848005523,455.0819151217074,455.0652364220841,455.5656601280298,455.5656601280298,None,4,1.2344440117431077,455.5656601280298,None,455.0652364220841,455.5656601280298,455.5656601280298,None,1040,458.81841844644987,None,456.83340873986526,458.8351102729357,458.81841844644987,None,None,None,None,,,,AM04EN20b,1,0xC010,G:\Experimente\CoScience\Tasks\Logfiles\,2022_Feb_16_1043,Gambling,2020.1.3,59.94392199733289,
50,4,x,#ed1c24,59,54,150,,,,,0,29,29,87,,,3.842813224864612,,,,,,,,,,,459.8192819022861,463.6725565439592,463.63919447738226,464.1396205169949,464.1396205169949,None,4,1.148295914483242,464.1396205169949,None,463.63919447738226,464.1396205169949,464.1396205169949,None,990,467.3089838787546,None,465.3239616287228,467.32566432862586,467.3089838787546,None,None,None,None,,,,AM04EN20b,1,0xC010,G:\Experimente\CoScience\Tasks\Logfiles\,2022_Feb_16_1043,Gambling,2020.1.3,59.94392199733289,
50,5,x,#ed1c24,59,55,150,,,,,0,30,30,188,,,4.124154653277785,,,,,,,,,,,468.3432741603556,472.48004848187884,472.46336949054603,472.9637923213686,472.9637923213686,None,4,1.0549391278218536,472.9637923213686,None,472.46336949054603,472.9637923213686,472.9637923213686,None,940,476.0330709419395,None,474.04805685973406,476.0497505166877,476.0330709419395,None,None,None,None,,,,AM04EN20b,1,0xC010,G:\Experimente\CoScience\Tasks\Logfiles\,2022_Feb_16_1043,Gambling,2020.1.3,59.94392199733289,
10,5,o,#3ced1d,19,15,111,,,,,0,31,31,147,,,3.5370991564346372,,,,,,,,,,,477.05060638811483,480.5869425641431,480.5869425641431,481.08736831204624,481.08736831204624,None,4,0.9651913531888567,481.08736831204624,None,480.5869425641431,481.08736831204624,481.08736831204624,None,950,484.07324439154763,None,482.0882189327276,484.08992221604785,484.07324439154763,None,None,None,None,,,,AM04EN20b,1,0xC010,G:\Experimente\CoScience\Tasks\Logfiles\,2022_Feb_16_1043,Gambling,2020.1.3,59.94392199733289,
50,4,x,#ed1c24,59,54,150,,,,,0,32,32,98,,,2.826558318083725,,,,,,,,,,,485.10745882905394,487.9432018167572,487.92652020005335,488.4269468230814,488.4269468230814,None,4,0.6684819658785273,488.4269468230814,None,487.92652020005335,488.4269468230814,488.4269468230814,None,900,491.12924183618634,None,489.14423738034566,491.1459252031382,491.12924183618634,None,None,None,None,,,,AM04EN20b,1,0xC010,G:\Experimente\CoScience\Tasks\Logfiles\,2022_Feb_16_1043,Gambling,2020.1.3,59.94392199733289,
0,5,o,#3ced1d,9,5,101,,,,,0,33,33,113,,,4.455647646523878,,,,,,,,,,,492.163460357604,496.6339276884901,496.60056416337466,497.1009890361529,497.1009890361529,None,4,0.6252374138912273,497.1009890361529,None,496.60056416337466,497.1009890361529,497.1009890361529,None,900,499.75324678355355,None,497.7682239501064,499.76992635830175,499.75324678355355,None,None,None,None,,,,AM04EN20b,1,0xC010,G:\Experimente\CoScience\Tasks\Logfiles\,2022_Feb_16_1043,Gambling,2020.1.3,59.94392199733289,
0,4,x,#ed1c24,9,4,100,,,,,0,34,34,26,,,3.7441302932828022,,,,,,,,,,,500.7540982793598,504.50729051350754,504.4906097719286,504.9910346447068,504.9743629460754,None,4,0.8046935825677792,504.9743629460754,None,504.4906097719286,504.9910346447068,504.9743629460754,None,900,507.8100977659542,None,505.8250874759524,507.8267831748635,507.8100977659542,None,None,None,None,,,,AM04EN20b,1,0xC010,G:\Experimente\CoScience\Tasks\Logfiles\,2022_Feb_16_1043,Gambling,2020.1.3,59.94392199733289,
0,7,o,#3ced1d,9,7,201,,,,,0,35,35,226,,,4.155274756845843,,,,,,,,,,,508.8109527622564,512.9811629524938,512.9478017610418,513.4482447197188,513.4482447197188,None,2,0.9196230548532185,513.4482447197188,None,512.9478017610418,513.4482447197188,513.4482447197188,None,900,516.3840587383329,None,514.3990388219663,516.400740938454,516.3840587383329,None,None,None,None,,,,AM04EN20b,1,0xC010,G:\Experimente\CoScience\Tasks\Logfiles\,2022_Feb_16_1043,Gambling,2020.1.3,59.94392199733289,
10,4,o,#3ced1d,19,14,111,,,,,0,36,36,34,,,3.5041294848569837,,,,,,,,,,,517.3849192770886,520.9045764617858,520.8712088527554,521.3716357674912,521.3716357674912,None,4,1.9290414327533654,521.3716357674912,None,520.8712088527554,521.3716357674912,521.3716357674912,None,910,525.3083155756049,None,523.3232950758229,525.3250111942962,525.3083155756049,None,None,None,None,,,,AM04EN20b,1,0xC010,G:\Experimente\CoScience\Tasks\Logfiles\,2022_Feb_16_1043,Gambling,2020.1.3,59.94392199733289,
0,3,o,#3ced1d,9,3,201,,,,,0,37,37,211,,,4.097750139615056,,,,,,,,,,,526.3425355555646,530.4460192789847,530.4293394125289,530.9297639935994,530.9297639935994,None,4,0.7647383305829862,530.9297639935994,None,530.4293394125289,530.9297639935994,530.9297639935994,None,910,533.6987857652312,None,531.7137646820302,533.7154670902273,533.6987857652312,None,None,None,None,,,,AM04EN20b,1,0xC010,G:\Experimente\CoScience\Tasks\Logfiles\,2022_Feb_16_1043,Gambling,2020.1.3,59.94392199733289,
0,4,x,#ed1c24,9,4,100,,,,,0,38,38,18,,,3.2206559851757586,,,,,,,,,,,534.6996430951967,537.9357221305763,537.9023618142492,538.4027960216863,538.4027960216863,None,4,1.0875366275922715,538.4027960216863,None,537.9023618142492,538.4027960216863,538.4027960216863,None,910,541.5221069489235,None,539.5370849905994,541.5387900241676,541.5221069489235,None,None,None,None,,,,AM04EN20b,1,0xC010,G:\Experimente\CoScience\Tasks\Logfiles\,2022_Feb_16_1043,Gambling,2020.1.3,59.94392199733289,
10,2,o,#3ced1d,19,12,211,,,,,0,39,39,205,,,3.899169753380229,,,,,,,,,,,542.5229721550077,546.4262928136268,546.4096088632577,546.9100232345463,546.9100232345463,None,4,0.6841449380644917,546.9100232345463,None,546.4096088632577,546.9100232345463,546.9100232345463,None,920,549.6123205813165,None,547.6273003732404,549.629002489728,549.6123205813165,None,None,None,None,,,,AM04EN20b,1,0xC010,G:\Experimente\CoScience\Tasks\Logfiles\,2022_Feb_16_1043,Gambling,2020.1.3,59.94392199733289,
50,5,o,#3ced1d,59,55,151,,,,,0,40,40,177,,,4.271700319550909,,,,,,,,,,,550.6465391027359,554.9335133172026,554.9001544594139,555.4005793321921,555.4005793321921,None,2,1.130389707373979,555.4005793321921,None,554.9001544594139,555.4005793321921,555.4005793321921,None,970,558.5365794605441,None,556.5515601275929,558.5532596187077,558.5365794605441,None,None,None,None,,,,AM04EN20b,1,0xC010,G:\Experimente\CoScience\Tasks\Logfiles\,2022_Feb_16_1043,Gambling,2020.1.3,59.94392199733289,
10,4,o,#3ced1d,19,14,111,,,,,0,41,41,46,,,3.4569762216414146,,,,,,,,,,,559.570791564387,563.04042344341,563.0070476665551,563.5074751647062,563.5074751647062,None,4,0.5633375485140277,563.5074751647062,None,563.0070476665551,563.5074751647062,563.5074751647062,None,980,566.0763251202934,None,564.0913049122173,566.0930055701647,566.0763251202934,None,None,None,None,,,,AM04EN20b,1,0xC010,G:\Experimente\CoScience\Tasks\Logfiles\,2022_Feb_16_1043,Gambling,2020.1.3,59.94392199733289,
10,5,x,#ed1c24,19,15,110,,,,,0,42,42,160,,,3.6664578261635503,,,,,,,,,,,567.0938588162189,570.7636453005107,570.7302616475372,571.2307282345682,571.2307282345682,None,4,0.7759124992535362,571.2307282345682,None,570.7302616475372,571.2307282345682,571.2307282345682,None,970,574.033094278584,None,572.0480842802899,574.0497726864996,574.033094278584,None,None,None,None,,,,AM04EN20b,1,0xC010,G:\Experimente\CoScience\Tasks\Logfiles\,2022_Feb_16_1043,Gambling,2020.1.3,59.94392199733289,
50,5,o,#3ced1d,59,55,151,,,,,0,43,43,173,,,4.409189374520405,,,,,,,,,,,575.0673098829229,579.487732947111,579.4710711665557,579.9714791202659,579.9714791202659,None,2,0.7929736281330406,579.9714791202659,None,579.4710711665557,579.9714791202659,579.9714791202659,None,1020,582.7905442834708,None,580.8055313680961,582.8072270670073,582.7905442834708,None,None,None,None,,,,AM04EN20b,1,0xC010,G:\Experimente\CoScience\Tasks\Logfiles\,2022_Feb_16_1043,Gambling,2020.1.3,59.94392199733289,
10,3,o,#3ced1d,19,13,211,,,,,0,44,44,213,,,4.085475037470237,,,,,,,,,,,583.8247636800133,587.9115634530644,587.8948838783163,588.3953122515923,588.3953122515923,None,4,0.6879625213477993,588.3953122515923,None,587.8948838783163,588.3953122515923,588.3953122515923,None,1030,591.0976090149452,None,589.1125882234537,591.1142900482337,591.0976090149452,None,None,None,None,,,,AM04EN20b,1,0xC010,G:\Experimente\CoScience\Tasks\Logfiles\,2022_Feb_16_1043,Gambling,2020.1.3,59.94392199733289,
10,4,o,#3ced1d,19,14,111,,,,,0,45,45,50,,,2.71029323734831,,,,,,,,,,,592.1151424191648,594.8341225494696,594.8174385991006,595.3178643470037,595.3178643470037,None,4,0.5632672468746023,595.3178643470037,None,594.8174385991006,595.3178643470037,595.3178643470037,None,1040,597.8867157611312,None,595.9016984701375,597.903396502712,597.8867157611312,None,None,None,None,,,,AM04EN20b,1,0xC010,G:\Experimente\CoScience\Tasks\Logfiles\,2022_Feb_16_1043,Gambling,2020.1.3,59.94392199733289,
50,6,x,#ed1c24,59,56,250,,,,,0,46,46,225,,,2.6876626006647664,,,,,,,,,,,598.9042523741391,601.6065488457843,601.573186195792,602.0736119436951,602.0736119436951,None,2,0.6713690004762611,602.0736119436951,None,601.573186195792,602.0736119436951,602.0736119436951,None,990,604.775910457296,None,602.7908954999657,604.7925920739999,604.775910457296,None,None,None,None,,,,AM04EN20b,1,0xC010,G:\Experimente\CoScience\Tasks\Logfiles\,2022_Feb_16_1043,Gambling,2020.1.3,59.94392199733289,
0,5,o,#3ced1d,9,5,101,,,,,0,47,47,106,,,4.180300829716528,,,,,,,,,,,605.81012518651,609.9970158266206,609.9803388772452,610.4807622914832,610.4807622914832,None,4,1.3500234095718042,610.4807622914832,None,609.9803388772452,610.4807622914832,610.4807622914832,None,990,613.8502992195354,None,611.8652734690058,613.8669767523261,613.8502992195354,None,None,None,None,,,,AM04EN20b,1,0xC010,G:\Experimente\CoScience\Tasks\Logfiles\,2022_Feb_16_1043,Gambling,2020.1.3,59.94392199733289,
0,5,o,#3ced1d,9,5,101,,,,,0,48,48,105,,,2.7089222674315416,,,,,,,,,,,614.8511501319244,617.5701267617351,617.5367652785735,618.0371919016015,618.0371919016015,None,4,0.6594477674861992,618.0371919016015,None,617.5367652785735,618.0371919016015,618.0371919016015,None,990,620.7061254315449,None,618.7211052234707,620.7228277595223,620.7061254315449,None,None,None,None,,,,AM04EN20b,1,0xC010,G:\Experimente\CoScience\Tasks\Logfiles\,2022_Feb_16_1043,Gambling,2020.1.3,59.94392199733289,
10,4,x,#ed1c24,19,14,110,,,,,0,49,49,57,,,2.777089267771612,,,,,,,,,,,621.70698305322,624.4926791488542,624.4760162014645,624.9764250303015,624.9764250303015,None,4,0.5550731676721625,624.9764250303015,None,624.4760162014645,624.9764250303015,624.9764250303015,None,980,627.5619583528405,None,625.5769372696413,627.5786484290784,627.5619583528405,None,None,None,None,,,,AM04EN20b,1,0xC010,G:\Experimente\CoScience\Tasks\Logfiles\,2022_Feb_16_1043,Gambling,2020.1.3,59.94392199733289,
10,5,x,#ed1c24,19,15,110,,,,,0,50,50,162,,,3.27503706781149,,,,,,,,,,,628.5962285065852,631.8823098027024,631.8656179762165,632.3660440158274,632.3660440158274,None,4,0.525295026232925,632.3660440158274,None,631.8656179762165,632.3660440158274,632.3660440158274,None,970,634.9015327799625,None,632.9165131553036,634.9182143966682,634.9015327799625,None,None,None,None,,,,AM04EN20b,1,0xC010,G:\Experimente\CoScience\Tasks\Logfiles\,2022_Feb_16_1043,Gambling,2020.1.3,59.94392199733289,
50,4,o,#3ced1d,59,54,151,,,,,0,51,51,77,,,2.511055322287244,,,,,,,,,,,635.9190708515107,638.4378756652768,638.4211943402806,638.9216200881838,638.9216200881838,None,4,0.6815732398699765,638.9216200881838,None,638.4211943402806,638.9216200881838,638.9216200881838,None,1020,641.6239186017847,None,639.6389065615349,641.6406016770288,641.6239186017847,None,None,None,None,,,,AM04EN20b,1,0xC010,G:\Experimente\CoScience\Tasks\Logfiles\,2022_Feb_16_1043,Gambling,2020.1.3,59.94392199733289,
50,5,x,#ed1c24,59,55,150,,,,,0,52,52,200,,,4.23629230061377,,,,,,,,,,,642.6581327475833,646.8950679460977,646.8783898298898,647.3788135358373,647.3788135358373,None,2,0.9711970385797031,647.3788135358373,None,646.8783898298898,647.3788135358373,647.3788135358373,None,970,650.3813677315466,None,648.3963574415448,650.3980528487482,650.3813677315466,None,None,None,None,,,,AM04EN20b,1,0xC010,G:\Experimente\CoScience\Tasks\Logfiles\,2022_Feb_16_1043,Gambling,2020.1.3,59.94392199733289,
10,4,o,#3ced1d,19,14,111,,,,,0,53,53,35,,,2.8454941934697366,,,,,,,,,,,651.415576918309,654.2680056066292,654.2513263235887,654.7517526549072,654.7517526549072,None,4,1.189094202740307,654.7517526549072,None,654.2513263235887,654.7517526549072,654.7517526549072,None,980,657.9711570745767,None,655.9861435757866,657.987837524448,657.9711570745767,None,None,None,None,,,,AM04EN20b,1,0xC010,G:\Experimente\CoScience\Tasks\Logfiles\,2022_Feb_16_1043,Gambling,2020.1.3,59.94392199733289,
0,4,x,#ed1c24,9,4,100,,,,,0,54,54,30,,,2.700416236149745,,,,,,,,,,,659.0053726789156,661.7076691505608,661.6909866587321,662.1914138651755,662.1914138651755,None,4,2.8022356505152857,662.1914138651755,None,661.6909866587321,662.1914138651755,662.1914138651755,None,980,667.0121788112028,None,665.027168521201,667.0288610113221,667.0121788112028,None,None,None,None,,,,AM04EN20b,1,0xC010,G:\Experimente\CoScience\Tasks\Logfiles\,2022_Feb_16_1043,Gambling,2020.1.3,59.94392199733289,
50,5,x,#ed1c24,59,55,150,,,,,0,55,55,190,,,3.869194885037115,,,,,,,,,,,668.0130346826281,671.8829897741743,671.8663093243013,672.3667341970813,672.3667341970813,None,4,2.6697190997310827,672.3667341970813,None,671.8663093243013,672.3667341970813,672.3667341970813,None,930,677.0373745108427,None,675.0523516773937,677.0540558358389,677.0373745108427,None,None,None,None,,,,AM04EN20b,1,0xC010,G:\Experimente\CoScience\Tasks\Logfiles\,2022_Feb_16_1043,Gambling,2020.1.3,59.94392199733289,
0,4,x,#ed1c24,9,4,100,,,,,0,56,56,32,,,2.716290069243632,,,,,,,,,,,678.0715828224802,680.7905673284058,680.7738860034096,681.27431233473,681.27431233473,None,4,0.487979732124586,681.27431233473,None,680.7738860034096,681.27431233473,681.27431233473,None,930,683.7764393239959,None,681.7914176573795,683.7931209406997,683.7764393239959,None,None,None,None,,,,AM04EN20b,1,0xC010,G:\Experimente\CoScience\Tasks\Logfiles\,2022_Feb_16_1043,Gambling,2020.1.3,59.94392199733289,
0,8,o,#3ced1d,9,8,201,,,,,0,57,57,233,,,3.650891945757762,,,,,,,,,,,684.777295195423,688.4303986044688,688.4137426580728,688.9141421522509,688.9141421522509,None,2,1.1729747074532497,688.9141421522509,None,688.4137426580728,688.9141421522509,688.9141421522509,None,930,692.1168669971721,None,690.1318502895938,692.1335489055837,692.1168669971721,None,None,None,None,,,,AM04EN20b,1,0xC010,G:\Experimente\CoScience\Tasks\Logfiles\,2022_Feb_16_1043,Gambling,2020.1.3,59.94392199733289,
50,4,o,#3ced1d,59,54,151,,,,,0,58,58,74,,,3.5805503218121784,,,,,,,,,,,693.1177219934743,696.7041143962306,696.6874205277873,697.187847442523,697.187847442523,None,4,1.359085028521804,697.187847442523,None,696.6874205277873,697.187847442523,697.187847442523,None,980,700.5573808700774,None,698.5723571615054,700.574059277993,700.5573808700774,None,None,None,None,,,,AM04EN20b,1,0xC010,G:\Experimente\CoScience\Tasks\Logfiles\,2022_Feb_16_1043,Gambling,2020.1.3,59.94392199733289,
0,8,o,#3ced1d,9,8,201,,,,,0,59,59,235,,,3.7775632842312232,,,,,,,,,,,701.5915964744163,705.3781466912278,705.361465074524,705.8618919892597,705.8618919892597,None,2,0.9478679787698638,705.8618919892597,None,705.361465074524,705.8618919892597,705.8618919892597,None,980,708.8144033768131,None,706.8293817101967,708.8310861603495,708.8144033768131,None,709.815255164327,None,space,22.081525108040296,,,AM04EN20b,1,0xC010,G:\Experimente\CoScience\Tasks\Logfiles\,2022_Feb_16_1043,Gambling,2020.1.3,59.94392199733289,
0,4,x,#ed1c24,9,4,100,,,,,0,60,60,31,,,2.5983416358049536,,,,,,,,,,,732.9182383167281,735.5204529642651,735.487090314271,735.9875160621741,735.9875160621741,None,4,0.5766058892950241,735.9875160621741,None,735.487090314271,735.9875160621741,735.9875160621741,None,980,738.589728376046,None,736.6047192528767,738.606410576167,738.589728376046,None,None,None,None,,,,AM04EN20b,1,0xC010,G:\Experimente\CoScience\Tasks\Logfiles\,2022_Feb_16_1043,Gambling,2020.1.3,59.94392199733289,
50,3,x,#ed1c24,59,53,250,,,,,0,61,61,217,,,2.5187976712368716,,,,,,,,,,,739.5905871645537,742.1093884778238,742.092707736243,742.5931337758539,742.5931337758539,None,4,0.5438485335107544,742.5931337758539,None,742.092707736243,742.5931337758539,742.5931337758539,None,930,745.1453035732775,None,743.1602865739915,745.1619857733986,745.1453035732775,None,None,None,None,,,,AM04EN20b,1,0xC010,G:\Experimente\CoScience\Tasks\Logfiles\,2022_Feb_16_1043,Gambling,2020.1.3,59.94392199733289,
10,5,x,#ed1c24,19,15,110,,,,,0,62,62,156,,,3.6257061015496372,,,,,,,,,,,746.1795127600399,749.8159447621638,749.7825829872945,750.283009318613,750.283009318613,None,4,1.9277757115123677,750.283009318613,None,749.7825829872945,750.283009318613,750.283009318613,None,920,754.2196908769765,None,752.2346689186525,754.2363707434324,754.2196908769765,None,None,None,None,,,,AM04EN20b,1,0xC010,G:\Experimente\CoScience\Tasks\Logfiles\,2022_Feb_16_1043,Gambling,2020.1.3,59.94392199733289,
0,4,o,#3ced1d,9,4,101,,,,,0,63,63,2,,,2.5326409434048562,,,,,,,,,,,755.2372277816921,757.7727296726898,757.7560323037505,758.2564563014039,758.2564563014039,None,4,0.8841939450157952,758.2564563014039,None,757.7560323037505,758.2564563014039,758.2564563014039,None,920,761.1589245890918,None,759.173912548842,761.1756056223803,761.1589245890918,None,None,None,None,,,,AM04EN20b,1,0xC010,G:\Experimente\CoScience\Tasks\Logfiles\,2022_Feb_16_1043,Gambling,2020.1.3,59.94392199733289,
10,4,x,#ed1c24,19,14,110,,,,,0,64,64,52,,,3.1419240986952923,,,,,,,,,,,762.1597766683153,765.3124619138671,765.2790966385019,765.7795232615299,765.7795232615299,None,4,0.7179784048530564,765.7795232615299,None,765.2790966385019,765.7795232615299,765.7795232615299,None,910,768.5151829665829,None,766.5301648004643,768.531864291579,768.5151829665829,None,None,None,None,,,,AM04EN20b,1,0xC010,G:\Experimente\CoScience\Tasks\Logfiles\,2022_Feb_16_1043,Gambling,2020.1.3,59.94392199733289,
10,4,o,#3ced1d,19,14,111,,,,,0,65,65,42,,,3.1367739566924993,,,,,,,,,,,769.5493979875064,772.6853957821932,772.6687176659852,773.1691434138884,773.1691434138884,None,4,0.42818804084527073,773.1691434138884,None,772.6687176659852,773.1691434138884,773.1691434138884,None,920,775.6212235110852,None,773.6362152630409,775.6379071697465,775.6212235110852,None,None,None,None,,,,AM04EN20b,1,0xC010,G:\Experimente\CoScience\Tasks\Logfiles\,2022_Feb_16_1043,Gambling,2020.1.3,59.94392199733289,
50,4,o,#3ced1d,59,54,151,,,,,0,66,66,68,,,2.9045545289014716,,,,,,,,,,,776.6554341563879,779.574602438388,779.5412281200734,780.0416751626635,780.0416751626635,None,4,0.43950106254669663,780.0416751626635,None,779.5412281200734,780.0416751626635,780.0416751626635,None,970,782.4937389242095,None,780.5087178410104,782.510419957498,782.4937389242095,None,None,None,None,,,,AM04EN20b,1,0xC010,G:\Experimente\CoScience\Tasks\Logfiles\,2022_Feb_16_1043,Gambling,2020.1.3,59.94392199733289,
0,4,o,#3ced1d,9,4,101,,,,,0,67,67,6,,,3.970211312028927,,,,,,,,,,,783.5112749538002,787.4813171202004,787.464692094858,787.9650592094422,787.9650592094422,None,4,0.3899524078315153,787.9650592094422,None,787.464692094858,787.9650592094422,787.9650592094422,None,970,790.367103499475,None,788.3820815411527,790.3837842410558,790.367103499475,None,None,None,None,,,,AM04EN20b,1,0xC010,G:\Experimente\CoScience\Tasks\Logfiles\,2022_Feb_16_1043,Gambling,2020.1.3,59.94392199733289,
0,4,x,#ed1c24,9,4,100,,,,,0,68,68,33,,,4.078614090231797,,,,,,,,,,,791.367955286989,795.4547638112817,795.4214011612894,795.9218277843174,795.9218277843174,None,4,0.39701670174326864,795.9218277843174,None,795.4214011612894,795.9218277843174,795.9218277843174,None,970,798.3405513573907,None,796.3555460264251,798.3572370580077,798.3405513573907,None,None,None,None,,,,AM04EN20b,1,0xC010,G:\Experimente\CoScience\Tasks\Logfiles\,2022_Feb_16_1043,Gambling,2020.1.3,59.94392199733289,
10,4,x,#ed1c24,19,14,110,,,,,0,69,69,66,,,4.37210614503341,,,,,,,,,,,799.3414057702776,803.7284667678887,803.695104409604,804.1955304492167,804.1955304492167,None,4,1.6121117183502065,804.1955304492167,None,803.695104409604,804.1955304492167,804.1955304492167,None,960,807.8152764590141,None,805.8302568343552,807.8319580757179,807.8152764590141,None,None,None,None,,,,AM04EN20b,1,0xC010,G:\Experimente\CoScience\Tasks\Logfiles\,2022_Feb_16_1043,Gambling,2020.1.3,59.94392199733289,
50,5,o,#3ced1d,59,55,151,,,,,0,70,70,185,,,3.1403387766429898,,,,,,,,,,,808.8494926467683,812.0021705996205,811.9688102832915,812.4692345726544,812.4692345726544,None,4,3.160198186451453,812.4692345726544,None,811.9688102832915,812.4692345726544,812.4692345726544,None,1010,817.65698283444,None,815.6719710858979,817.6736632843113,817.65698283444,None,None,None,None,,,,AM04EN20b,1,0xC010,G:\Experimente\CoScience\Tasks\Logfiles\,2022_Feb_16_1043,Gambling,2020.1.3,59.94392199733289,
0,4,o,#3ced1d,9,4,101,,,,,0,71,71,0,,,3.4064826064860316,,,,,,,,,,,818.6912970361009,822.1107688403299,822.0940883904568,822.5945237647265,822.5945237647265,None,4,0.8517589266302821,822.5945237647265,None,822.0940883904568,822.5945237647265,822.5945237647265,None,1010,825.4636229848438,None,823.4786007348121,825.4803022678843,825.4636229848438,None,None,None,None,,,,AM04EN20b,1,0xC010,G:\Experimente\CoScience\Tasks\Logfiles\,2022_Feb_16_1043,Gambling,2020.1.3,59.94392199733289,
10,5,x,#ed1c24,19,15,110,,,,,0,72,72,168,,,3.783587365358888,,,,,,,,,,,826.4645322388442,830.2510270311268,830.2343474563786,830.7347714540338,830.7347714540338,None,2,1.0793177532068512,830.7347714540338,None,830.2343474563786,830.7347714540338,830.7347714540338,None,1000,833.8374118494721,None,831.852397475559,833.8540911325126,833.8374118494721,None,None,None,None,,,,AM04EN20b,1,0xC010,G:\Experimente\CoScience\Tasks\Logfiles\,2022_Feb_16_1043,Gambling,2020.1.3,59.94392199733289,
10,2,x,#ed1c24,19,12,210,,,,,0,73,73,206,,,4.397919007799162,,,,,,,,,,,834.8716216196499,839.275368901297,839.2586896182565,839.7591153661597,839.7591153661597,None,4,0.738788565628056,839.7591153661597,None,839.2586896182565,839.7591153661597,839.7591153661597,None,990,842.511456979626,None,840.5264344378866,842.5281371377896,842.511456979626,None,None,None,None,,,,AM04EN20b,1,0xC010,G:\Experimente\CoScience\Tasks\Logfiles\,2022_Feb_16_1043,Gambling,2020.1.3,59.94392199733289,
50,4,x,#ed1c24,59,54,150,,,,,0,74,74,100,,,2.9024133241033843,,,,,,,,,,,843.5289935926321,846.431459254949,846.431459254949,846.9318841277272,846.9318841277272,None,4,0.5628693570906762,846.9318841277272,None,846.431459254949,846.9318841277272,846.9318841277272,None,940,849.5007349584394,None,847.5157127084076,849.5174159917278,849.5007349584394,None,None,None,None,,,,AM04EN20b,1,0xC010,G:\Experimente\CoScience\Tasks\Logfiles\,2022_Feb_16_1043,Gambling,2020.1.3,59.94392199733289,
0,5,x,#ed1c24,9,5,100,,,,,0,75,75,129,,,3.53955284851546,,,,,,,,,,,850.51827098803,854.0712896558871,854.0379264224775,854.5383574211264,854.5383574211264,None,4,0.7792181349050225,854.5383574211264,None,854.0379264224775,854.5383574211264,854.5383574211264,None,940,857.3240637265408,None,855.3390341838076,857.3407377588355,857.3240637265408,None,None,None,None,,,,AM04EN20b,1,0xC010,G:\Experimente\CoScience\Tasks\Logfiles\,2022_Feb_16_1043,Gambling,2020.1.3,59.94392199733289,
10,5,o,#3ced1d,19,15,111,,,,,0,76,76,148,,,3.078254447066027,,,,,,,,,,,858.324915222347,861.4108652498398,861.3775020164321,861.8779286394583,861.8779286394583,None,4,0.5865038352312695,861.8779286394583,None,861.3775020164321,861.8779286394583,861.8779286394583,None,950,864.4968246119915,None,862.5118090712458,864.5135044784474,864.4968246119915,None,None,None,None,,,,AM04EN20b,1,0xC010,G:\Experimente\CoScience\Tasks\Logfiles\,2022_Feb_16_1043,Gambling,2020.1.3,59.94392199733289,
50,4,o,#3ced1d,59,54,151,,,,,0,77,77,82,,,4.293768694300461,,,,,,,,,,,865.5310314650887,869.8346989645815,869.8180176395854,870.3184428040731,870.3184428040731,None,4,1.4707998780668277,870.3184428040731,None,869.8180176395854,870.3184428040731,870.3184428040731,None,1000,873.8047463817256,None,871.8197174224097,873.8214285818467,873.8047463817256,None,None,None,None,,,,AM04EN20b,1,0xC010,G:\Experimente\CoScience\Tasks\Logfiles\,2022_Feb_16_1043,Gambling,2020.1.3,59.94392199733289,
10,5,x,#ed1c24,19,15,110,,,,,0,78,78,157,,,3.004546577104236,,,,,,,,,,,874.822278327405,877.8415077222417,877.8248301894491,878.3252334758326,878.3252334758326,None,4,1.2568320213758852,878.3252334758326,None,877.8248301894491,878.3252334758326,878.3252334758326,None,990,881.6113818648028,None,879.6263683660127,881.6280602727184,881.6113818648028,None,None,None,None,,,,AM04EN20b,1,0xC010,G:\Experimente\CoScience\Tasks\Logfiles\,2022_Feb_16_1043,Gambling,2020.1.3,59.94392199733289,
0,5,x,#ed1c24,9,5,100,,,,,0,79,79,130,,,4.384294409947793,,,,,,,,,,,882.6455960106014,887.032659925293,887.0159771417566,887.5164043482,887.5164043482,None,2,2.2484465816924057,887.5164043482,None,887.0159771417566,887.5164043482,887.5164043482,None,990,891.7700217468355,None,889.7850006636363,891.7867004464588,891.7700217468355,None,None,None,None,,,,AM04EN20b,1,0xC010,G:\Experimente\CoScience\Tasks\Logfiles\,2022_Feb_16_1043,Gambling,2020.1.3,59.94392199733289,
0,5,o,#3ced1d,9,5,101,,,,,0,80,80,112,,,2.694907942675865,,,,,,,,,,,892.7708744094743,895.4731717562427,895.4398091062503,895.9402366044014,895.9402366044014,None,4,0.5574663405368483,895.9402366044014,None,895.4398091062503,895.9402366044014,895.9402366044014,None,990,898.5257766362265,None,896.5407538027794,898.5424486265656,898.5257766362265,None,None,None,None,,,,AM04EN20b,1,0xC010,G:\Experimente\CoScience\Tasks\Logfiles\,2022_Feb_16_1043,Gambling,2020.1.3,59.94392199733289,
0,2,x,#ed1c24,9,2,200,,,,,0,81,81,204,,,3.393368966757839,,,,,,,,,,,899.526622881287,902.9295128329668,902.8961525166378,903.3965779728333,903.3965779728333,None,4,0.5939870219081058,903.3965779728333,None,902.8961525166378,903.3965779728333,903.3965779728333,None,990,906.0154739453665,None,904.030451403627,906.032154978655,906.0154739453665,None,None,None,None,,,,AM04EN20b,1,0xC010,G:\Experimente\CoScience\Tasks\Logfiles\,2022_Feb_16_1043,Gambling,2020.1.3,59.94392199733289,
0,4,x,#ed1c24,9,4,100,,,,,0,82,82,28,,,4.180763816386051,,,,,,,,,,,907.0163292333764,911.203217248114,911.1865362148255,911.686964296392,911.686964296392,None,4,0.6084011919192562,911.686964296392,None,911.1865362148255,911.686964296392,911.686964296392,None,990,914.3058573518447,None,912.320841811099,914.3225378017178,914.3058573518447,None,None,None,None,,,,AM04EN20b,1,0xC010,G:\Experimente\CoScience\Tasks\Logfiles\,2022_Feb_16_1043,Gambling,2020.1.3,59.94392199733289,
10,5,o,#3ced1d,19,15,111,,,,,0,83,83,142,,,3.3669145754989813,,,,,,,,,,,915.3067120564392,918.6762405249574,918.6595609502092,919.1599855312797,919.1599855312797,None,4,3.6601580765927793,919.1599855312797,None,918.6595609502092,919.1599855312797,919.1599855312797,None,1000,924.8314770491397,None,922.8464550908157,924.8481589575513,924.8314770491397,None,None,None,None,,,,AM04EN20b,1,0xC010,G:\Experimente\CoScience\Tasks\Logfiles\,2022_Feb_16_1043,Gambling,2020.1.3,59.94392199733289,
0,5,o,#3ced1d,9,5,101,,,,,0,84,84,104,,,3.4887441583325045,,,,,,,,,,,925.8656938203112,929.3686685131779,929.3352842767908,929.8357339447539,929.8357339447539,None,4,0.46224874820836703,929.8357339447539,None,929.3352842767908,929.8357339447539,929.8357339447539,None,1000,932.3044982840274,None,930.3194961618519,932.3211790256082,932.3044982840274,None,None,None,None,,,,AM04EN20b,1,0xC010,G:\Experimente\CoScience\Tasks\Logfiles\,2022_Feb_16_1043,Gambling,2020.1.3,59.94392199733289,
0,6,o,#3ced1d,9,6,201,,,,,0,85,85,218,,,3.359663354613115,,,,,,,,,,,933.3053538637469,936.6748837908053,936.6582033409322,937.1586273385874,937.1419489306718,None,2,0.8098714005045622,937.1419489306718,None,936.6582033409322,937.1586273385874,937.1419489306718,None,1000,939.9610190529111,None,937.9759906770105,939.9776951271633,939.9610190529111,None,None,None,None,,,,AM04EN20b,1,0xC010,G:\Experimente\CoScience\Tasks\Logfiles\,2022_Feb_16_1043,Gambling,2020.1.3,59.94392199733289,
0,4,o,#3ced1d,9,4,101,,,,,0,86,86,15,,,3.9999646326768756,,,,,,,,,,,940.9618682150522,944.9652712811967,944.9485884976602,945.4490151206865,945.4490151206865,None,4,0.570643668404955,945.4490151206865,None,944.9485884976602,945.4490151206865,945.4490151206865,None,1000,948.0345484432273,None,946.0495247346553,948.0512280179755,948.0345484432273,None,None,None,None,,,,AM04EN20b,1,0xC010,G:\Experimente\CoScience\Tasks\Logfiles\,2022_Feb_16_1043,Gambling,2020.1.3,59.94392199733289,
10,4,o,#3ced1d,19,14,111,,,,,0,87,87,44,,,3.6018699805101364,,,,,,,,,,,949.0353990639087,952.6384421623152,952.6217827154233,953.1222084633264,953.1222084633264,None,4,0.4502820087600412,953.1222084633264,None,952.6217827154233,953.1222084633264,953.1222084633264,None,1010,955.5742923527268,None,953.5892724363603,955.590971927475,955.5742923527268,None,None,None,None,,,,AM04EN20b,1,0xC010,G:\Experimente\CoScience\Tasks\Logfiles\,2022_Feb_16_1043,Gambling,2020.1.3,59.94392199733289,
50,8,o,#3ced1d,59,58,251,,,,,0,88,88,239,,,4.247002272779493,,,,,,,,,,,956.5918283823175,960.8454449058299,960.8287627057089,961.3291893287351,961.3291893287351,None,2,0.6061168261585408,961.3291893287351,None,960.8287627057089,961.3291893287351,961.3291893287351,None,1060,963.9480850095606,None,961.9630604258637,963.9647616672282,963.9480850095606,None,None,None,None,,,,AM04EN20b,1,0xC010,G:\Experimente\CoScience\Tasks\Logfiles\,2022_Feb_16_1043,Gambling,2020.1.3,59.94392199733289,
50,4,x,#ed1c24,59,54,150,,,,,0,89,89,95,,,2.7859181280100778,,,,,,,,,,,964.9656172469477,967.7513162596606,967.7346366849124,968.2350606825676,968.2350606825676,None,4,0.7290968572833663,968.2350606825676,None,967.7346366849124,968.2350606825676,968.2350606825676,None,1010,970.9874037545742,None,969.0023893806592,971.0040847878627,970.9874037545742,None,None,None,None,,,,AM04EN20b,1,0xC010,G:\Experimente\CoScience\Tasks\Logfiles\,2022_Feb_16_1043,Gambling,2020.1.3,59.94392199733289,
10,5,x,#ed1c24,19,15,110,,,,,0,90,90,167,,,3.277307555808932,,,,,,,,,,,972.0216181920805,975.3077464531943,975.2910718374842,975.7914888341456,975.7914888341456,None,4,0.6585093426783715,975.7914888341456,None,975.2910718374842,975.7914888341456,975.7914888341456,None,1000,978.4604267397099,None,976.475405364803,978.4771051476255,978.4604267397099,None,None,None,None,,,,AM04EN20b,1,0xC010,G:\Experimente\CoScience\Tasks\Logfiles\,2022_Feb_16_1043,Gambling,2020.1.3,59.94392199733289,
0,5,o,#3ced1d,9,5,101,,,,,0,91,91,114,,,4.220482216845254,,,,,,,,,,,979.4779610190526,983.6982146008631,983.6815326924516,984.1819584403529,984.1819584403529,None,4,1.1838463748699724,984.1819584403529,None,983.6815326924516,984.1819584403529,984.1819584403529,None,1000,987.384684160399,None,985.3996727035646,987.4013637351472,987.384684160399,None,None,None,None,,,,AM04EN20b,1,0xC010,G:\Experimente\CoScience\Tasks\Logfiles\,2022_Feb_16_1043,Gambling,2020.1.3,59.94392199733289,
0,4,o,#3ced1d,9,4,101,,,,,0,92,92,5,,,2.943029389011464,,,,,,,,,,,988.385535947913,991.3380467520492,991.3046852688894,991.8051078080043,991.8051078080043,None,4,0.557552977828891,991.8051078080043,None,991.3046852688894,991.8051078080043,991.8051078080043,None,1000,994.3739618475029,None,992.3889401808883,994.3906437559162,994.3739618475029,None,None,None,None,,,,AM04EN20b,1,0xC010,G:\Experimente\CoScience\Tasks\Logfiles\,2022_Feb_16_1043,Gambling,2020.1.3,59.94392199733289,
10,5,o,#3ced1d,19,15,111,,,,,0,93,93,151,,,3.5369057881138355,,,,,,,,,,,995.3748156769743,998.9111553534985,998.8944731533793,999.3949012349458,999.3949012349458,None,4,0.6356093854155915,999.3949012349458,None,998.8944731533793,999.3949012349458,999.3949012349458,None,1010,1002.0471566486831,None,1000.0621393576876,1002.0638356400141,1002.0471566486831,None,None,None,None,,,,AM04EN20b,1,0xC010,G:\Experimente\CoScience\Tasks\Logfiles\,2022_Feb_16_1043,Gambling,2020.1.3,59.94392199733289,
50,4,o,#3ced1d,59,54,151,,,,,0,94,94,75,,,3.0105653845772604,,,,,,,,,,,1003.0813742949776,1006.1006031063989,1006.0839238233584,1006.5843469458887,1006.5843469458887,None,4,0.49599353574922134,1006.5843469458887,None,1006.0839238233584,1006.5843469458887,1006.5843469458887,None,1060,1009.0864920210552,None,1007.1014534353726,1009.1031561352775,1009.0864920210552,None,None,None,None,,,,AM04EN20b,1,0xC010,G:\Experimente\CoScience\Tasks\Logfiles\,2022_Feb_16_1043,Gambling,2020.1.3,59.94392199733289,
10,5,o,#3ced1d,19,15,111,,,,,0,95,95,138,,,2.717852589615177,,,,,,,,,,,1010.1207502147699,1012.8396784210418,1012.8229886365134,1013.3234210937007,1013.3234210937007,None,4,0.5927752666575543,1013.3234210937007,None,1012.8229886365134,1013.3234210937007,1013.3234210937007,None,1070,1015.9256272817038,None,1013.940605031672,1015.942306856452,1015.9256272817038,None,None,None,None,,,,AM04EN20b,1,0xC010,G:\Experimente\CoScience\Tasks\Logfiles\,2022_Feb_16_1043,Gambling,2020.1.3,59.94392199733289,
50,4,o,#3ced1d,59,54,151,,,,,0,96,96,72,,,2.899218616967522,,,,,,,,,,,1016.9431612693388,1019.8456257648213,1019.8122663236172,1020.3126917798127,1020.3126917798127,None,4,0.4223591305362788,1020.3126917798127,None,1019.8122663236172,1020.3126917798127,1020.3126917798127,None,1120,1022.748095802759,None,1020.7630732610196,1022.7647771277552,1022.748095802759,None,None,None,None,,,,AM04EN20b,1,0xC010,G:\Experimente\CoScience\Tasks\Logfiles\,2022_Feb_16_1043,Gambling,2020.1.3,59.94392199733289,
0,4,o,#3ced1d,9,4,101,,,,,0,97,97,11,,,3.129824012160401,,,,,,,,,,,1023.7656347494303,1026.901628460204,1026.868274853161,1027.3686944751953,1027.3686944751953,None,4,0.6162043823296699,1027.3686944751953,None,1026.868274853161,1027.3686944751953,1027.3686944751953,None,1120,1029.9875878223556,None,1028.0025641137836,1030.0042673971038,1029.9875878223556,None,None,None,None,,,,AM04EN20b,1,0xC010,G:\Experimente\CoScience\Tasks\Logfiles\,2022_Feb_16_1043,Gambling,2020.1.3,59.94392199733289,
50,5,o,#3ced1d,59,55,151,,,,,0,98,98,171,,,3.487465804776205,,,,,,,,,,,1030.9884474859864,1034.491418678359,1034.4580586537377,1034.9584811928526,1034.9584811928526,None,2,0.9662490865885047,1034.9584811928526,None,1034.4580586537377,1034.9584811928526,1034.9584811928526,None,1170,1037.927676530775,None,1035.9426542807432,1037.9443552303983,1037.927676530775,None,None,None,None,,,,AM04EN20b,1,0xC010,G:\Experimente\CoScience\Tasks\Logfiles\,2022_Feb_16_1043,Gambling,2020.1.3,59.94392199733289,
0,5,o,#3ced1d,9,5,101,,,,,0,99,99,109,,,3.761332232021393,,,,,,,,,,,1038.9452076013276,1042.7150808687657,1042.6817196773118,1043.182145425215,1043.182145425215,None,2,1.2394004232683073,1043.182145425215,None,1042.6817196773118,1043.182145425215,1043.182145425215,None,1170,1046.4349116197518,None,1044.449890244845,1046.4515906110846,1046.4349116197518,None,None,None,None,,,,AM04EN20b,1,0xC010,G:\Experimente\CoScience\Tasks\Logfiles\,2022_Feb_16_1043,Gambling,2020.1.3,59.94392199733289,
0,5,x,#ed1c24,9,5,100,,,,,0,100,100,133,,,3.487910500280858,,,,,,,,,,,1047.4357625321427,1050.9387413089225,1050.905391494085,1051.4058061570813,1051.4058061570813,None,2,0.5325699333589,1051.4058061570813,None,1050.905391494085,1051.4058061570813,1051.4058061570813,None,1170,1053.9579765379221,None,1051.9729604137592,1053.9746572795011,1053.9579765379221,None,None,None,None,,,,AM04EN20b,1,0xC010,G:\Experimente\CoScience\Tasks\Logfiles\,2022_Feb_16_1043,Gambling,2020.1.3,59.94392199733289,
0,5,o,#3ced1d,9,5,101,,,,,0,101,101,111,,,3.6049192336130886,,,,,,,,,,,1054.9588303673918,1058.5785752103584,1058.5452102267009,1059.0456397668077,1059.0456397668077,None,2,0.768618631100253,1059.0456397668077,None,1058.5452102267009,1059.0456397668077,1059.0456397668077,None,1170,1061.8480192293955,None,1059.862999313027,1061.864702012932,1061.8480192293955,None,None,None,None,,,,AM04EN20b,1,0xC010,G:\Experimente\CoScience\Tasks\Logfiles\,2022_Feb_16_1043,Gambling,2020.1.3,59.94392199733289,
10,4,o,#3ced1d,19,14,111,,,,,0,102,102,43,,,3.3674248440165737,,,,,,,,,,,1062.8488736422805,1066.2184050278793,1066.2017242863003,1066.702149742494,1066.702149742494,None,4,0.5389099161784543,1066.702149742494,None,1066.2017242863003,1066.702149742494,1066.702149742494,None,1180,1069.2543207067501,None,1067.2692990401338,1069.271001448331,1069.2543207067501,None,None,None,None,,,,AM04EN20b,1,0xC010,G:\Experimente\CoScience\Tasks\Logfiles\,2022_Feb_16_1043,Gambling,2020.1.3,59.94392199733289,
50,5,o,#3ced1d,59,55,151,,,,,0,103,103,172,,,2.6039087422577913,,,,,,,,,,,1070.2885368945044,1072.9074284914168,1072.8740675916724,1073.3744924644525,1073.3744924644525,None,2,0.6454236111421778,1073.3744924644525,None,1072.8740675916724,1073.3744924644525,1073.3744924644525,None,1230,1076.0267490450206,None,1074.0417267949888,1076.043431828557,1076.0267490450206,None,None,None,None,,,,AM04EN20b,1,0xC010,G:\Experimente\CoScience\Tasks\Logfiles\,2022_Feb_16_1043,Gambling,2020.1.3,59.94392199733289,
10,4,o,#3ced1d,19,14,111,,,,,0,104,104,39,,,3.1320964931392696,,,,,,,,,,,1077.0609596903232,1080.1969606937982,1080.1802805356347,1080.680705408413,1080.680705408413,None,4,0.40107494417497946,1080.680705408413,None,1080.1802805356347,1080.680705408413,1080.680705408413,None,1240,1083.0827488233226,None,1081.097728906956,1083.0994313151514,1083.0827488233226,None,None,None,None,,,,AM04EN20b,1,0xC010,G:\Experimente\CoScience\Tasks\Logfiles\,2022_Feb_16_1043,Gambling,2020.1.3,59.94392199733289,
0,5,x,#ed1c24,9,5,100,,,,,0,105,105,134,,,3.2257584316967503,,,,,,,,,,,1084.100285144621,1087.3363598043798,1087.3030073641694,1087.8034322369494,1087.8034322369494,None,2,0.8251662371258135,1087.8034322369494,None,1087.3030073641694,1087.8034322369494,1087.8034322369494,None,1240,1090.6558600501448,None,1088.6708471347702,1090.6725410834333,1090.6558600501448,None,None,None,None,,,,AM04EN20b,1,0xC010,G:\Experimente\CoScience\Tasks\Logfiles\,2022_Feb_16_1043,Gambling,2020.1.3,59.94392199733289,
50,5,x,#ed1c24,59,55,150,,,,,0,106,106,197,,,3.3915495712435013,,,,,,,,,,,1091.656710962534,1095.059604123002,1095.0262429315499,1095.5266680960358,1095.5266680960358,None,2,0.5807638958776806,1095.5266680960358,None,1095.0262429315499,1095.5266680960358,1095.5266680960358,None,1190,1098.1121990849115,None,1096.1271887949097,1098.1288809933249,1098.1121990849115,None,None,None,None,,,,AM04EN20b,1,0xC010,G:\Experimente\CoScience\Tasks\Logfiles\,2022_Feb_16_1043,Gambling,2020.1.3,59.94392199733289,
0,8,x,#ed1c24,9,8,200,,,,,0,107,107,234,,,3.8607737782069416,,,,,,,,,,,1099.1464155643753,1103.0163732812925,1102.9996925397118,1103.5001177041995,1103.5001177041995,None,2,0.5801533509238652,1103.5001177041995,None,1102.9996925397118,1103.5001177041995,1103.5001177041995,None,1190,1106.085665903851,None,1104.1006290684163,1106.1023308931963,1106.085665903851,None,None,None,None,,,,AM04EN20b,1,0xC010,G:\Experimente\CoScience\Tasks\Logfiles\,2022_Feb_16_1043,Gambling,2020.1.3,59.94392199733289,
0,4,o,#3ced1d,9,4,101,,,,,0,108,108,13,,,3.491538749029154,,,,,,,,,,,1107.0865054396254,1110.589479257369,1110.5561189410419,1111.0565443972355,1111.0565443972355,None,4,0.49956404231488705,1111.0565443972355,None,1110.5561189410419,1111.0565443972355,1111.0565443972355,None,1190,1113.5753541700396,None,1111.5903403795419,1113.5920322862476,1113.5753541700396,None,None,None,None,,,,AM04EN20b,1,0xC010,G:\Experimente\CoScience\Tasks\Logfiles\,2022_Feb_16_1043,Gambling,2020.1.3,59.94392199733289,
0,5,x,#ed1c24,9,5,100,,,,,0,109,109,121,,,2.899022909417255,,,,,,,,,,,1114.576215000503,1117.4786739535339,1117.4619920451205,1117.9624198349811,1117.9624198349811,None,4,0.5805413226335077,1117.9624198349811,None,1117.4619920451205,1117.9624198349811,1117.9624198349811,None,1190,1120.5646333156856,None,1118.5796110656538,1120.5813140572645,1120.5646333156856,None,None,None,None,,,,AM04EN20b,1,0xC010,G:\Experimente\CoScience\Tasks\Logfiles\,2022_Feb_16_1043,Gambling,2020.1.3,59.94392199733289,
10,8,x,#ed1c24,19,18,210,,,,,0,110,110,237,,,3.905791565611616,,,,,,,,,,,1121.5654877285706,1125.485500505385,1125.4521229782804,1125.9525481427681,1125.9525481427681,None,2,0.48526305502855394,1125.9525481427681,None,1125.4521229782804,1125.9525481427681,1125.9525481427681,None,1180,1128.4546762988666,None,1126.4696546322502,1128.4713564570302,1128.4546762988666,None,None,None,None,,,,AM04EN20b,1,0xC010,G:\Experimente\CoScience\Tasks\Logfiles\,2022_Feb_16_1043,Gambling,2020.1.3,59.94392199733289,
50,5,o,#3ced1d,59,55,151,,,,,0,111,111,170,,,4.297884490703511,,,,,,,,,,,1129.4888945285784,1133.7925489012086,1133.7758766191619,1134.2762950743636,1134.2762950743636,None,4,1.1883060075815592,1134.2762950743636,None,1133.7758766191619,1134.2762950743636,1134.2762950743636,None,1230,1137.495699494033,None,1135.5106889123235,1137.5123828609849,1137.495699494033,None,None,None,None,,,,AM04EN20b,1,0xC010,G:\Experimente\CoScience\Tasks\Logfiles\,2022_Feb_16_1043,Gambling,2020.1.3,59.94392199733289,
10,4,x,#ed1c24,19,14,110,,,,,0,112,112,67,,,4.104442605575732,,,,,,,,,,,1138.5299080973782,1142.6334014471631,1142.6167239143724,1143.117147620318,1143.117147620318,None,4,0.44527950736301136,1143.117147620318,None,1142.6167239143724,1143.117147620318,1143.117147620318,None,1220,1145.585915751797,None,1143.600903128132,1145.6025950348376,1145.585915751797,None,None,None,None,,,,AM04EN20b,1,0xC010,G:\Experimente\CoScience\Tasks\Logfiles\,2022_Feb_16_1043,Gambling,2020.1.3,59.94392199733289,
50,5,o,#3ced1d,59,55,151,,,,,0,113,113,179,,,3.928366527495833,,,,,,,,,,,1146.6201243551423,1150.5568105808343,1150.540130130963,1151.0405774652609,1151.0405774652609,None,2,0.7846794930701435,1151.0405774652609,None,1150.540130130963,1151.0405774652609,1151.0405774652609,None,1270,1153.8596210420692,None,1151.8746162945208,1153.8763020753577,1153.8596210420692,None,None,None,None,,,,AM04EN20b,1,0xC010,G:\Experimente\CoScience\Tasks\Logfiles\,2022_Feb_16_1043,Gambling,2020.1.3,59.94392199733289,
50,4,x,#ed1c24,59,54,150,,,,,0,114,114,101,,,3.5725155658399603,,,,,,,,,,,1154.8938363546986,1158.4802170891326,1158.446856481096,1158.9472798953357,1158.9472798953357,None,4,0.5828020600420132,1158.9472798953357,None,1158.446856481096,1158.9472798953357,1158.9472798953357,None,1220,1161.5494936677478,None,1159.5644801689577,1161.5661747010363,1161.5494936677478,None,None,None,None,,,,AM04EN20b,1,0xC010,G:\Experimente\CoScience\Tasks\Logfiles\,2022_Feb_16_1043,Gambling,2020.1.3,59.94392199733289,
10,4,o,#3ced1d,19,14,111,,,,,0,115,115,40,,,3.4629180590854745,,,,,,,,,,,1162.5837048964659,1166.0533233569186,1166.0366446572934,1166.5370701134889,1166.5370701134889,None,4,0.9328534735868743,1166.5370701134889,None,1166.0366446572934,1166.5370701134889,1166.5370701134889,None,1230,1169.4895812093346,None,1167.504567418835,1169.5062613674982,1169.4895812093346,None,None,None,None,,,,AM04EN20b,1,0xC010,G:\Experimente\CoScience\Tasks\Logfiles\,2022_Feb_16_1043,Gambling,2020.1.3,59.94392199733289,
10,5,o,#3ced1d,19,15,111,,,,,0,116,116,140,,,3.983255151992231,,,,,,,,,,,1170.5237903960951,1174.51051855482,1174.4938357712836,1174.994262977727,1174.994262977727,None,2,0.834491560157403,1174.994262977727,None,1174.4938357712836,1174.994262977727,1174.994262977727,None,1240,1177.830010341051,None,1175.8449854656465,1177.8466735801467,1177.830010341051,None,None,None,None,,,,AM04EN20b,1,0xC010,G:\Experimente\CoScience\Tasks\Logfiles\,2022_Feb_16_1043,Gambling,2020.1.3,59.94392199733289,
0,5,x,#ed1c24,9,5,100,,,,,0,117,117,127,,,2.838038403103031,,,,,,,,,,,1178.8643003309426,1181.71664996638,1181.6832873163876,1182.1837121891676,1182.1837121891676,None,4,0.46788921511688386,1182.1837121891676,None,1181.6832873163876,1182.1837121891676,1182.1837121891676,None,1240,1184.6858403452661,None,1182.7008262630588,1184.7025196283048,1184.6858403452661,None,None,None,None,,,,AM04EN20b,1,0xC010,G:\Experimente\CoScience\Tasks\Logfiles\,2022_Feb_16_1043,Gambling,2020.1.3,59.94392199733289,
50,5,o,#3ced1d,59,55,151,,,,,0,118,118,186,,,2.7131131053445765,,,,,,,,,,,1185.686694758153,1188.4056743050423,1188.3889912297982,1188.8894175611167,1188.8894175611167,None,2,0.5230261209981109,1188.8894175611167,None,1188.3889912297982,1188.8894175611167,1188.8894175611167,None,1290,1191.4415885253711,None,1189.4565654002163,1191.458269850369,1191.4415885253711,None,None,None,None,,,,AM04EN20b,1,0xC010,G:\Experimente\CoScience\Tasks\Logfiles\,2022_Feb_16_1043,Gambling,2020.1.3,59.94392199733289,
50,7,o,#3ced1d,59,57,251,,,,,0,119,119,230,,,3.811937799874861,,,,,,,,,,,1192.4758020877543,1196.2957169965157,1196.2790359632272,1196.7794599608824,1196.7794599608824,None,2,0.6428180748134764,1196.7794599608824,None,1196.2790359632272,1196.7794599608824,1196.7794599608824,None,1340,1199.4317191668233,None,1197.4466951665436,1199.4483987415715,1199.4317191668233,None,1200.465929812126,None,space,41.74794528140228,,,AM04EN20b,1,0xC010,G:\Experimente\CoScience\Tasks\Logfiles\,2022_Feb_16_1043,Gambling,2020.1.3,59.94392199733289,
0,6,x,#ed1c24,9,6,200,,,,,0,120,120,221,,,4.397598937453995,,,,,,,,,,,1243.235642640133,1247.63938671299,1247.606029022034,1248.1064536031045,1248.1064536031045,None,2,0.8067194949962868,1248.1064536031045,None,1247.606029022034,1248.1064536031045,1248.1064536031045,None,1340,1250.9421995078883,None,1248.9571830920177,1250.958880249469,1250.9421995078883,None,None,None,None,,,,AM04EN20b,1,0xC010,G:\Experimente\CoScience\Tasks\Logfiles\,2022_Feb_16_1043,Gambling,2020.1.3,59.94392199733289,
50,4,x,#ed1c24,59,54,150,,,,,0,121,121,99,,,2.592732244765687,,,,,,,,,,,1251.9430553793154,1254.5452633175664,1254.5285828676951,1255.029010657554,1255.012326707185,None,4,0.5227294539072318,1255.012326707185,None,1254.5285828676951,1255.029010657554,1255.012326707185,None,1290,1257.5478183884006,None,1255.5627964300766,1257.5644991299814,1257.5478183884006,None,None,None,None,,,,AM04EN20b,1,0xC010,G:\Experimente\CoScience\Tasks\Logfiles\,2022_Feb_16_1043,Gambling,2020.1.3,59.94392199733289,
50,5,x,#ed1c24,59,55,150,,,,,0,122,122,203,,,4.498271534441308,,,,,,,,,,,1258.5820529537632,1263.0858721414425,1263.0525007402084,1263.5529244461559,1263.5529244461559,None,2,0.5749148577124288,1263.5529244461559,None,1263.0525007402084,1263.5529244461559,1263.5529244461559,None,1240,1266.138461852608,None,1264.1534457284451,1266.155140843941,1266.138461852608,None,None,None,None,,,,AM04EN20b,1,0xC010,G:\Experimente\CoScience\Tasks\Logfiles\,2022_Feb_16_1043,Gambling,2020.1.3,59.94392199733289,
0,5,x,#ed1c24,9,5,100,,,,,0,123,123,126,,,3.9042879763838867,,,,,,,,,,,1267.1559926314549,1271.0593094978685,1271.042630214828,1271.5430547958986,1271.5430547958986,None,4,0.7266237564126641,1271.5430547958986,None,1271.042630214828,1271.5430547958986,1271.5430547958986,None,1240,1274.2787153760764,None,1272.2936954597099,1274.2953967010744,1274.2787153760764,None,None,None,None,,,,AM04EN20b,1,0xC010,G:\Experimente\CoScience\Tasks\Logfiles\,2022_Feb_16_1043,Gambling,2020.1.3,59.94392199733289,
0,4,x,#ed1c24,9,4,100,,,,,0,124,124,22,,,2.6840168849899015,,,,,,,,,,,1275.279570080671,1277.9651863941526,1277.9485120701502,1278.4489299419347,1278.4489299419347,None,4,0.4886083629771747,1278.4489299419347,None,1277.9485120701502,1278.4489299419347,1278.4489299419347,None,1240,1280.9510575146178,None,1278.9660285553018,1280.9677391313217,1280.9510575146178,None,None,None,None,,,,AM04EN20b,1,0xC010,G:\Experimente\CoScience\Tasks\Logfiles\,2022_Feb_16_1043,Gambling,2020.1.3,59.94392199733289,
10,4,x,#ed1c24,19,14,110,,,,,0,125,125,59,,,4.3905534906372035,,,,,,,,,,,1281.9519136777526,1286.3556551252368,1286.3222965591576,1286.8227208485205,1286.8227208485205,None,4,0.48763610003879876,1286.8227208485205,None,1286.3222965591576,1286.8227208485205,1286.8227208485205,None,1230,1289.324828585055,None,1287.3398261711718,1289.3415335384034,1289.324828585055,None,None,None,None,,,,AM04EN20b,1,0xC010,G:\Experimente\CoScience\Tasks\Logfiles\,2022_Feb_16_1043,Gambling,2020.1.3,59.94392199733289,
0,4,x,#ed1c24,9,4,100,,,,,0,126,126,20,,,3.0236798513923007,,,,,,,,,,,1290.3423815337137,1293.378297796,1293.3449331040501,1293.8453608939108,1293.8453608939108,None,2,0.8758432185895799,1293.8453608939108,None,1293.3449331040501,1293.8453608939108,1293.8453608939108,None,1230,1296.731148440018,None,1294.7461261899862,1296.7478396830884,1296.731148440018,None,None,None,None,,,,AM04EN20b,1,0xC010,G:\Experimente\CoScience\Tasks\Logfiles\,2022_Feb_16_1043,Gambling,2020.1.3,59.94392199733289,
50,2,x,#ed1c24,59,52,250,,,,,0,127,127,210,,,3.276708593642767,,,,,,,,,,,1297.7320040197374,1301.0181273218132,1301.0014462885247,1301.5018732032604,1301.4851918782642,None,4,0.5428462246418349,1301.4851918782642,None,1301.0014462885247,1301.5018732032604,1301.4851918782642,None,1180,1304.0373619673956,None,1302.0523405924887,1304.0540435840994,1304.0373619673956,None,None,None,None,,,,AM04EN20b,1,0xC010,G:\Experimente\CoScience\Tasks\Logfiles\,2022_Feb_16_1043,Gambling,2020.1.3,59.94392199733289,
50,4,x,#ed1c24,59,54,150,,,,,0,128,128,90,,,2.613280608727081,,,,,,,,,,,1305.0548997472342,1307.673789302191,1307.640427235614,1308.140852983517,1308.140852983517,None,4,2.7680005017391522,1308.140852983517,None,1307.640427235614,1308.140852983517,1308.140852983517,None,1130,1312.9115800804248,None,1310.9265557884355,1312.9282590717557,1312.9115800804248,None,None,None,None,,,,AM04EN20b,1,0xC010,G:\Experimente\CoScience\Tasks\Logfiles\,2022_Feb_16_1043,Gambling,2020.1.3,59.94392199733289,
10,5,x,#ed1c24,19,15,110,,,,,0,129,129,163,,,4.080119136247339,,,,,,,,,,,1313.929111442685,1318.0159202586874,1317.9825581921104,1318.4829824814733,1318.4829824814733,None,4,1.0476837651331152,1318.4829824814733,None,1317.9825581921104,1318.4829824814733,1318.4829824814733,None,1120,1321.5355809438788,None,1319.5505586938489,1321.552261393752,1321.5355809438788,None,None,None,None,,,,AM04EN20b,1,0xC010,G:\Experimente\CoScience\Tasks\Logfiles\,2022_Feb_16_1043,Gambling,2020.1.3,59.94392199733289,
50,5,x,#ed1c24,59,55,150,,,,,0,130,130,201,,,2.7625204137926245,,,,,,,,,,,1322.5531128895582,1325.3221332026478,1325.2887728863207,1325.7891989259315,1325.7891989259315,None,2,0.6773189696286863,1325.7891989259315,None,1325.2887728863207,1325.7891989259315,1325.7891989259315,None,1070,1328.4748149477036,None,1326.4897941562122,1328.491495980992,1328.4748149477036,None,None,None,None,,,,AM04EN20b,1,0xC010,G:\Experimente\CoScience\Tasks\Logfiles\,2022_Feb_16_1043,Gambling,2020.1.3,59.94392199733289,
0,5,x,#ed1c24,9,5,100,,,,,0,131,131,119,,,3.291406088211049,,,,,,,,,,,1329.492349518754,1332.795156479493,1332.7617947046238,1333.2622233696075,1333.2622233696075,None,4,0.5861447426195809,1333.2622233696075,None,1332.7617947046238,1333.2622233696075,1333.2622233696075,None,1070,1335.864435100064,None,1333.8794315193463,1335.8811146748103,1335.864435100064,None,None,None,None,,,,AM04EN20b,1,0xC010,G:\Experimente\CoScience\Tasks\Logfiles\,2022_Feb_16_1043,Gambling,2020.1.3,59.94392199733289,
10,4,x,#ed1c24,19,14,110,,,,,0,132,132,54,,,3.3338723874412297,,,,,,,,,,,1336.8652854290376,1340.2014562065997,1340.184775465019,1340.6852061719583,1340.6852061719583,None,4,0.6499940929115837,1340.6852061719583,None,1340.184775465019,1340.6852061719583,1340.6852061719583,None,1060,1343.3374580851996,None,1341.3524361268755,1343.354139118488,1343.3374580851996,None,None,None,None,,,,AM04EN20b,1,0xC010,G:\Experimente\CoScience\Tasks\Logfiles\,2022_Feb_16_1043,Gambling,2020.1.3,59.94392199733289,
0,4,x,#ed1c24,9,4,100,,,,,0,133,133,23,,,3.339495654590424,,,,,,,,,,,1344.3549920728328,1347.7078444671006,1347.674479483443,1348.174906106471,1348.174906106471,None,4,0.6191316726381046,1348.174906106471,None,1347.674479483443,1348.174906106471,1348.174906106471,None,1060,1350.8104801952104,None,1348.8254611539687,1350.8271629787469,1350.8104801952104,None,None,None,None,,,,AM04EN20b,1,0xC010,G:\Experimente\CoScience\Tasks\Logfiles\,2022_Feb_16_1043,Gambling,2020.1.3,59.94392199733289,
10,5,x,#ed1c24,19,15,110,,,,,0,134,134,161,,,2.9410743733032705,,,,,,,,,,,1351.8113340246819,1354.763843953695,1354.7304821788257,1355.2309085101442,1355.2309085101442,None,4,1.1479659926753811,1355.2309085101442,None,1354.7304821788257,1355.2309085101442,1355.2309085101442,None,1050,1358.3835905469095,None,1356.3985671300452,1358.4002747889863,1358.3835905469095,None,None,None,None,,,,AM04EN20b,1,0xC010,G:\Experimente\CoScience\Tasks\Logfiles\,2022_Feb_16_1043,Gambling,2020.1.3,59.94392199733289,
0,5,x,#ed1c24,9,5,100,,,,,0,135,135,124,,,4.267505374641914,,,,,,,,,,,1359.4011233677102,1363.6714206328015,1363.6380600247667,1364.1384854809603,1364.1384854809603,None,4,0.38921876207859896,1364.1384854809603,None,1363.6380600247667,1364.1384854809603,1364.1384854809603,None,1050,1366.5405283124546,None,1364.5555083960862,1366.5572084706182,1366.5405283124546,None,None,None,None,,,,AM04EN20b,1,0xC010,G:\Experimente\CoScience\Tasks\Logfiles\,2022_Feb_16_1043,Gambling,2020.1.3,59.94392199733289,
10,4,o,#3ced1d,19,14,111,,,,,0,136,136,45,,,2.668101302603679,,,,,,,,,,,1367.5413862258374,1370.2103153801618,1370.1936340551656,1370.6940615533167,1370.6940615533167,None,4,0.4305030359500961,1370.6940615533167,None,1370.1936340551656,1370.6940615533167,1370.6940615533167,None,1060,1373.146148943215,None,1371.1611255263506,1373.1628276428382,1373.146148943215,None,None,None,None,,,,AM04EN20b,1,0xC010,G:\Experimente\CoScience\Tasks\Logfiles\,2022_Feb_16_1043,Gambling,2020.1.3,59.94392199733289,
50,5,x,#ed1c24,59,55,150,,,,,0,137,137,191,,,2.549631032830378,,,,,,,,,,,1374.1803633807212,1376.7325308444797,1376.7158506863161,1377.21629276987,1377.21629276987,None,2,0.6801252010955068,1377.21629276987,None,1376.7158506863161,1377.21629276987,1377.21629276987,None,1010,1379.918575822945,None,1377.9335594070744,1379.9352559811086,1379.918575822945,None,None,None,None,,,,AM04EN20b,1,0xC010,G:\Experimente\CoScience\Tasks\Logfiles\,2022_Feb_16_1043,Gambling,2020.1.3,59.94392199733289,
0,5,o,#3ced1d,9,5,101,,,,,0,138,138,118,,,3.8494167131590746,,,,,,,,,,,1380.9527815092097,1384.8060669440802,1384.789384743961,1385.2898096167391,1385.2898096167391,None,2,0.7334517668023182,1385.2898096167391,None,1384.789384743961,1385.2898096167391,1385.2898096167391,None,1010,1388.042152397038,None,1386.0571453158245,1388.0588328469094,1388.042152397038,None,None,None,None,,,,AM04EN20b,1,0xC010,G:\Experimente\CoScience\Tasks\Logfiles\,2022_Feb_16_1043,Gambling,2020.1.3,59.94392199733289,
10,3,x,#ed1c24,19,13,210,,,,,0,139,139,215,,,3.5301340007458673,,,,,,,,,,,1389.043005059677,1392.5793467781568,1392.562663411205,1393.0630879922755,1393.0630879922755,None,4,1.6269800777990895,1393.0630879922755,None,1392.562663411205,1393.0630879922755,1393.0630879922755,None,1000,1396.7162004442707,None,1394.7311776108236,1396.7328771019384,1396.7162004442707,None,None,None,None,,,,AM04EN20b,1,0xC010,G:\Experimente\CoScience\Tasks\Logfiles\,2022_Feb_16_1043,Gambling,2020.1.3,59.94392199733289,
50,7,x,#ed1c24,59,57,250,,,,,0,140,140,232,,,3.1733575127448628,,,,,,,,,,,1397.750402921747,1400.9364537343736,1400.9030907926735,1401.4035177074074,1401.4035177074074,None,2,0.6424012240076991,1401.4035177074074,None,1400.9030907926735,1401.4035177074074,1401.4035177074074,None,950,1404.0557719543121,None,1402.0707511628207,1404.0724608637174,1404.0557719543121,None,None,None,None,,,,AM04EN20b,1,0xC010,G:\Experimente\CoScience\Tasks\Logfiles\,2022_Feb_16_1043,Gambling,2020.1.3,59.94392199733289,
0,4,o,#3ced1d,9,4,101,,,,,0,141,141,9,,,4.091398713017988,,,,,,,,,,,1405.0900304397346,1409.19347740794,1409.1601141745323,1409.660540214143,1409.660540214143,None,4,0.5061928161048854,1409.660540214143,None,1409.1601141745323,1409.660540214143,1409.660540214143,None,950,1412.1960298534013,None,1410.2110146043633,1412.2127111783975,1412.1960298534013,None,None,None,None,,,,AM04EN20b,1,0xC010,G:\Experimente\CoScience\Tasks\Logfiles\,2022_Feb_16_1043,Gambling,2020.1.3,59.94392199733289,
50,4,x,#ed1c24,59,54,150,,,,,0,142,142,93,,,2.627336633367257,,,,,,,,,,,1413.1968836828728,1415.8324560213641,1415.799094829912,1416.299520869523,1416.299520869523,None,4,0.4960807564584684,1416.299520869523,None,1415.799094829912,1416.299520869523,1416.299520869523,None,900,1418.8183309340347,None,1416.833307808878,1418.835020718565,1418.8183309340347,None,None,None,None,,,,AM04EN20b,1,0xC010,G:\Experimente\CoScience\Tasks\Logfiles\,2022_Feb_16_1043,Gambling,2020.1.3,59.94392199733289,
0,4,x,#ed1c24,9,4,100,,,,,0,143,143,17,,,2.724964077983396,,,,,,,,,,,1419.8525421627528,1422.5882036180556,1422.5715231681825,1423.0719474575453,1423.0719474575453,None,4,0.54449466684855,1423.0719474575453,None,1422.5715231681825,1423.0719474575453,1423.0719474575453,None,900,1425.624119005217,None,1423.6390973386024,1425.64079945509,1425.624119005217,None,None,None,None,,,,AM04EN20b,1,0xC010,G:\Experimente\CoScience\Tasks\Logfiles\,2022_Feb_16_1043,Gambling,2020.1.3,59.94392199733289,
0,5,o,#3ced1d,9,5,101,,,,,0,144,144,117,,,2.653434214215962,,,,,,,,,,,1426.6249760434766,1429.2939054895087,1429.2605460483046,1429.7609712127905,1429.7609712127905,None,4,0.44433087277684535,1429.7609712127905,None,1429.2605460483046,1429.7609712127905,1429.7609712127905,None,900,1432.229738177437,None,1430.2447243869392,1432.2464022916593,1432.229738177437,None,None,None,None,,,,AM04EN20b,1,0xC010,G:\Experimente\CoScience\Tasks\Logfiles\,2022_Feb_16_1043,Gambling,2020.1.3,59.94392199733289,
10,5,x,#ed1c24,19,15,110,,,,,0,145,145,158,,,3.2494780076719616,,,,,,,,,,,1433.2305931737392,1436.4833555760724,1436.4666742510763,1436.9670999989794,1436.9670999989794,None,4,0.629043620563607,1436.9670999989794,None,1436.4666742510763,1436.9670999989794,1436.9670999989794,None,890,1439.6193557044244,None,1437.6343352046406,1439.636041696749,1439.6193557044244,None,None,None,None,,,,AM04EN20b,1,0xC010,G:\Experimente\CoScience\Tasks\Logfiles\,2022_Feb_16_1043,Gambling,2020.1.3,59.94392199733289,
0,5,x,#ed1c24,9,5,100,,,,,0,146,146,122,,,2.558360813527921,,,,,,,,,,,1440.6535713087633,1443.2224227228908,1443.1890694075555,1443.6894858208016,1443.6894858208016,None,4,0.3775215608711733,1443.6894858208016,None,1443.1890694075555,1443.6894858208016,1443.6894858208016,None,890,1446.0748476190056,None,1444.089825952391,1446.0915274854615,1446.0748476190056,None,None,None,None,,,,AM04EN20b,1,0xC010,G:\Experimente\CoScience\Tasks\Logfiles\,2022_Feb_16_1043,Gambling,2020.1.3,59.94392199733289,
50,5,o,#3ced1d,59,55,151,,,,,0,147,147,183,,,3.8500496265929485,,,,,,,,,,,1447.0757011567675,1450.9289760901502,1450.9122979739423,1451.4127205130553,1451.4127205130553,None,2,0.6181314057248528,1451.4127205130553,None,1450.9122979739423,1451.4127205130553,1451.4127205130553,None,940,1454.064977385333,None,1452.0799650533754,1454.0816572517888,1454.064977385333,None,None,None,None,,,,AM04EN20b,1,0xC010,G:\Experimente\CoScience\Tasks\Logfiles\,2022_Feb_16_1043,Gambling,2020.1.3,59.94392199733289,
10,5,o,#3ced1d,19,15,111,,,,,0,148,148,144,,,3.53068524771225,,,,,,,,,,,1455.0991836550147,1458.6355314993652,1458.6188516329094,1459.1192849652216,1459.1192849652216,None,2,0.5693820310752926,1459.1192849652216,None,1458.6188516329094,1459.1192849652216,1459.1192849652216,None,950,1461.7048121618918,None,1459.7197782435378,1461.7214902780997,1461.7048121618918,None,None,None,None,,,,AM04EN20b,1,0xC010,G:\Experimente\CoScience\Tasks\Logfiles\,2022_Feb_16_1043,Gambling,2020.1.3,59.94392199733289,
10,5,o,#3ced1d,19,15,111,,,,,0,149,149,152,,,3.0511865154302367,,,,,,,,,,,1462.7223441075694,1465.7749376109405,1465.7582571610674,1466.2586843675108,1466.2586843675108,None,2,0.4728354168582882,1466.2586843675108,None,1465.7582571610674,1466.2586843675108,1466.2586843675108,None,960,1468.7441297400728,None,1466.759126159357,1468.7608122319016,1468.7441297400728,None,None,None,None,,,,AM04EN20b,1,0xC010,G:\Experimente\CoScience\Tasks\Logfiles\,2022_Feb_16_1043,Gambling,2020.1.3,59.94392199733289,
10,6,x,#ed1c24,19,16,210,,,,,0,150,150,223,,,2.532950286533443,,,,,,,,,,,1469.7616654779558,1472.297153366968,1472.2804714585545,1472.7808980815826,1472.7808980815826,None,2,0.6204854897114274,1472.7808980815826,None,1472.2804714585545,1472.7808980815826,1472.7808980815826,None,950,1475.4331777070875,None,1473.4481394131126,1475.4498339451911,1475.4331777070875,None,None,None,None,,,,AM04EN20b,1,0xC010,G:\Experimente\CoScience\Tasks\Logfiles\,2022_Feb_16_1043,Gambling,2020.1.3,59.94392199733289,
10,5,o,#3ced1d,19,15,111,,,,,0,151,151,141,,,4.459522828302818,,,,,,,,,,,1476.4673603484152,1480.9378370139602,1480.9211588977523,1481.4215805617423,1481.4215805617423,None,2,0.44461878862421145,1481.4215805617423,None,1480.9211588977523,1481.4215805617423,1481.4215805617423,None,960,1483.890347234681,None,1481.905334611014,1483.9070256425966,1483.890347234681,None,None,None,None,,,,AM04EN20b,1,0xC010,G:\Experimente\CoScience\Tasks\Logfiles\,2022_Feb_16_1043,Gambling,2020.1.3,59.94392199733289,
10,4,o,#3ced1d,19,14,111,,,,,0,152,152,36,,,4.15016898372213,,,,,,,,,,,1484.9245564214416,1489.0780957881725,1489.061413879761,1489.5618399193718,1489.5618399193718,None,4,0.7321784611540352,1489.5618399193718,None,1489.061413879761,1489.5618399193718,1489.5618399193718,None,970,1492.297498457594,None,1490.3124584133711,1492.3141768655096,1492.297498457594,None,None,None,None,,,,AM04EN20b,1,0xC010,G:\Experimente\CoScience\Tasks\Logfiles\,2022_Feb_16_1043,Gambling,2020.1.3,59.94392199733289,
50,4,o,#3ced1d,59,54,151,,,,,0,153,153,81,,,2.824697975965672,,,,,,,,,,,1493.3150336120598,1496.1507777665956,1496.1340990669723,1496.6345256899986,1496.6345256899986,None,4,0.6923512690027565,1496.6345256899986,None,1496.1340990669723,1496.6345256899986,1496.6345256899986,None,1020,1499.3368230367687,None,1497.3518022452772,1499.3535134047142,1499.3368230367687,None,None,None,None,,,,AM04EN20b,1,0xC010,G:\Experimente\CoScience\Tasks\Logfiles\,2022_Feb_16_1043,Gambling,2020.1.3,59.94392199733289,
0,5,x,#ed1c24,9,5,100,,,,,0,154,154,132,,,3.000844835933333,,,,,,,,,,,1500.3543584829422,1503.3569085947402,1503.340229019992,1503.8406641025522,1503.8406641025522,None,4,0.8310523222153279,1503.8406641025522,None,1503.340229019992,1503.8406641025522,1503.8406641025522,None,1020,1506.693081997675,None,1504.7080714159656,1506.7097606972984,1506.693081997675,None,None,None,None,,,,AM04EN20b,1,0xC010,G:\Experimente\CoScience\Tasks\Logfiles\,2022_Feb_16_1043,Gambling,2020.1.3,59.94392199733289,
0,5,x,#ed1c24,9,5,100,,,,,0,155,155,123,,,3.1209905700073586,,,,,,,,,,,1507.693940494475,1510.8299342052487,1510.796569513299,1511.2970218066348,1511.2970218066348,None,2,0.39553890874958597,1511.2970218066348,None,1510.796569513299,1511.2970218066348,1511.2970218066348,None,1020,1513.6990389678194,None,1511.7140237187814,1513.7157202928156,1513.6990389678194,None,None,None,None,,,,AM04EN20b,1,0xC010,G:\Experimente\CoScience\Tasks\Logfiles\,2022_Feb_16_1043,Gambling,2020.1.3,59.94392199733289,
50,4,o,#3ced1d,59,54,151,,,,,0,156,156,83,,,2.5041808007449466,,,,,,,,,,,1514.699891922166,1517.2186981944724,1517.1853273766556,1517.6857636260484,1517.6857636260484,None,4,0.5636578439571167,1517.6857636260484,None,1517.1853273766556,1517.6857636260484,1517.6857636260484,None,1070,1520.2712975320046,None,1518.286283741505,1520.2879773984605,1520.2712975320046,None,None,None,None,,,,AM04EN20b,1,0xC010,G:\Experimente\CoScience\Tasks\Logfiles\,2022_Feb_16_1043,Gambling,2020.1.3,59.94392199733289,
10,4,o,#3ced1d,19,14,111,,,,,0,157,157,47,,,3.792533617789801,,,,,,,,,,,1521.3055020514366,1525.1087435113186,1525.0753823198665,1525.575808651185,1525.575808651185,None,4,0.4264485857274849,1525.575808651185,None,1525.0753823198665,1525.575808651185,1525.575808651185,None,1080,1528.0112141326717,None,1526.0261912992246,1528.0278939991276,1528.0112141326717,None,None,None,None,,,,AM04EN20b,1,0xC010,G:\Experimente\CoScience\Tasks\Logfiles\,2022_Feb_16_1043,Gambling,2020.1.3,59.94392199733289,
0,4,o,#3ced1d,9,4,101,,,,,0,158,158,1,,,4.039446513536924,,,,,,,,,,,1529.0287664979132,1533.0821913692344,1533.065511211069,1533.5659460019215,1533.5659460019215,None,4,0.44414184595734696,1533.5659460019215,None,1533.065511211069,1533.5659460019215,1533.5659460019215,None,1080,1536.0180231820395,None,1534.0329977232177,1536.034705090451,1536.0180231820395,None,None,None,None,,,,AM04EN20b,1,0xC010,G:\Experimente\CoScience\Tasks\Logfiles\,2022_Feb_16_1043,Gambling,2020.1.3,59.94392199733289,
0,4,x,#ed1c24,9,4,100,,,,,0,159,159,21,,,3.4947106764663767,,,,,,,,,,,1537.0188743861363,1540.5218537463334,1540.4884916797564,1540.9889177193672,1540.9889177193672,None,4,0.4960422509939235,1540.9889177193672,None,1540.4884916797564,1540.9889177193672,1540.9889177193672,None,1080,1543.5077260336311,None,1541.5227128265487,1543.5244344874754,1543.5077260336311,None,None,None,None,,,,AM04EN20b,1,0xC010,G:\Experimente\CoScience\Tasks\Logfiles\,2022_Feb_16_1043,Gambling,2020.1.3,59.94392199733289,
0,5,o,#3ced1d,9,5,101,,,,,0,160,160,108,,,3.6005894108088685,,,,,,,,,,,1544.5085830718908,1548.1116422142386,1548.0949614726596,1548.5953872205628,1548.5953872205628,None,2,0.8803705275695393,1548.5953872205628,None,1548.0949614726596,1548.5953872205628,1548.5953872205628,None,1080,1551.497856091666,None,1549.5128335499267,1551.5145365415392,1551.497856091666,None,None,None,None,,,,AM04EN20b,1,0xC010,G:\Experimente\CoScience\Tasks\Logfiles\,2022_Feb_16_1043,Gambling,2020.1.3,59.94392199733289,
50,5,o,#3ced1d,59,55,151,,,,,0,161,161,184,,,3.3033334012880724,,,,,,,,,,,1552.4987113796778,1555.8015162984575,1555.7848338066287,1556.2852604296568,1556.2852604296568,None,2,0.5603848796035891,1556.2852604296568,None,1555.7848338066287,1556.2852604296568,1556.2852604296568,None,1130,1558.8541313882233,None,1556.8690901771697,1558.8707931687804,1558.8541313882233,None,None,None,None,,,,AM04EN20b,1,0xC010,G:\Experimente\CoScience\Tasks\Logfiles\,2022_Feb_16_1043,Gambling,2020.1.3,59.94392199733289,
50,4,o,#3ced1d,59,54,151,,,,,0,162,162,69,,,3.188666638495847,,,,,,,,,,,1559.8883274481232,1563.0910487925466,1563.0576852674312,1563.5581121821651,1563.5581121821651,None,4,0.656328824985394,1563.5581121821651,None,1563.0576852674312,1563.5581121821651,1563.5581121821651,None,1180,1566.2270500877312,None,1564.2420269625745,1566.2437284956468,1566.2270500877312,None,None,None,None,,,,AM04EN20b,1,0xC010,G:\Experimente\CoScience\Tasks\Logfiles\,2022_Feb_16_1043,Gambling,2020.1.3,59.94392199733289,
50,4,o,#3ced1d,59,54,151,,,,,0,163,163,78,,,4.3502511195104345,,,,,,,,,,,1567.2613222834316,1571.6149652065214,1571.5982847566502,1572.0987096294284,1572.0987096294284,None,4,0.3955896659499558,1572.0987096294284,None,1571.5982847566502,1572.0987096294284,1572.0987096294284,None,1230,1574.5007722970695,None,1572.5157313777217,1574.5174334942094,1574.5007722970695,None,None,None,None,,,,AM04EN20b,1,0xC010,G:\Experimente\CoScience\Tasks\Logfiles\,2022_Feb_16_1043,Gambling,2020.1.3,59.94392199733289,
50,4,x,#ed1c24,59,54,150,,,,,0,164,164,92,,,2.970839299558768,,,,,,,,,,,1575.5182861568483,1578.504158444146,1578.470797252694,1578.971223000597,1578.971223000597,None,4,0.4148896541355498,1578.971223000597,None,1578.470797252694,1578.971223000597,1578.971223000597,None,1180,1581.4066276069589,None,1579.4216103159633,1581.4233077651224,1581.4066276069589,None,None,None,None,,,,AM04EN20b,1,0xC010,G:\Experimente\CoScience\Tasks\Logfiles\,2022_Feb_16_1043,Gambling,2020.1.3,59.94392199733289,
0,5,x,#ed1c24,9,5,100,,,,,0,165,165,131,,,3.500113864602646,,,,,,,,,,,1582.4408467117937,1585.9438187792894,1585.9104575878373,1586.410881293783,1586.410881293783,None,4,0.9030633721158665,1586.410881293783,None,1585.9104575878373,1586.410881293783,1586.410881293783,None,1180,1589.330030906469,None,1587.3450109901005,1589.3467133982958,1589.330030906469,None,None,None,None,,,,AM04EN20b,1,0xC010,G:\Experimente\CoScience\Tasks\Logfiles\,2022_Feb_16_1043,Gambling,2020.1.3,59.94392199733289,
0,5,o,#3ced1d,9,5,101,,,,,0,166,166,115,,,2.9142538116045125,,,,,,,,,,,1590.330887653019,1593.2500320149593,1593.2333515650862,1593.7337752710337,1593.7337752710337,None,4,0.5860254340259416,1593.7337752710337,None,1593.2333515650862,1593.7337752710337,1593.7337752710337,None,1180,1596.3526683264863,None,1594.3676562862347,1596.3693887403606,1596.3526683264863,None,None,None,None,,,,AM04EN20b,1,0xC010,G:\Experimente\CoScience\Tasks\Logfiles\,2022_Feb_16_1043,Gambling,2020.1.3,59.94392199733289,
10,4,x,#ed1c24,19,14,110,,,,,0,167,167,51,,,3.1235837559356954,,,,,,,,,,,1597.3535271149922,1600.4895243262636,1600.4561622596866,1600.9565880075897,1600.9565880075897,None,4,0.4150570945585059,1600.9565880075897,None,1600.4561622596866,1600.9565880075897,1600.9565880075897,None,1170,1603.3920174091363,None,1601.406968321964,1603.4086724804074,1603.3920174091363,None,None,None,None,,,,AM04EN20b,1,0xC010,G:\Experimente\CoScience\Tasks\Logfiles\,2022_Feb_16_1043,Gambling,2020.1.3,59.94392199733289,
0,6,o,#3ced1d,9,6,201,,,,,0,168,168,219,,,4.3571703268302,,,,,,,,,,,1604.4261994670487,1608.7965878909072,1608.7799080244513,1609.2803323138141,1609.2803323138141,None,2,0.7701381383485568,1609.2803323138141,None,1608.7799080244513,1609.2803323138141,1609.2803323138141,None,1170,1612.082717902269,None,1610.0977049868943,1612.099394268229,1612.082717902269,None,None,None,None,,,,AM04EN20b,1,0xC010,G:\Experimente\CoScience\Tasks\Logfiles\,2022_Feb_16_1043,Gambling,2020.1.3,59.94392199733289,
0,5,o,#3ced1d,9,5,101,,,,,0,169,169,110,,,4.489856538093263,,,,,,,,,,,1613.0835702731983,1617.5873970452885,1617.554037020669,1618.054462185155,1618.054462185155,None,4,0.6607992508943425,1618.054462185155,None,1617.554037020669,1618.054462185155,1618.054462185155,None,1170,1620.723398340473,None,1618.7383760904413,1620.740078206929,1620.723398340473,None,None,None,None,,,,AM04EN20b,1,0xC010,G:\Experimente\CoScience\Tasks\Logfiles\,2022_Feb_16_1043,Gambling,2020.1.3,59.94392199733289,
0,4,o,#3ced1d,9,4,101,,,,,0,170,170,10,,,3.6026461742279876,,,,,,,,,,,1621.7242542119002,1625.3273142293729,1625.3106352380419,1625.8110589439875,1625.8110589439875,None,4,0.5520717835188407,1625.8110589439875,None,1625.3106352380419,1625.8110589439875,1625.8110589439875,None,1170,1628.3799100664073,None,1626.3948901500407,1628.396594308484,1628.3799100664073,None,None,None,None,,,,AM04EN20b,1,0xC010,G:\Experimente\CoScience\Tasks\Logfiles\,2022_Feb_16_1043,Gambling,2020.1.3,59.94392199733289,
10,4,o,#3ced1d,19,14,111,,,,,0,171,171,41,,,3.50560348864352,,,,,,,,,,,1629.38076797979,1632.9004219556991,1632.8670607642453,1633.3674856370253,1633.3674856370253,None,4,0.4014818769082922,1633.3674856370253,None,1632.8670607642453,1633.3674856370253,1633.3674856370253,None,1180,1635.7862100852217,None,1633.8011916273954,1635.802894619008,1635.7862100852217,None,None,None,None,,,,AM04EN20b,1,0xC010,G:\Experimente\CoScience\Tasks\Logfiles\,2022_Feb_16_1043,Gambling,2020.1.3,59.94392199733289,
50,4,x,#ed1c24,59,54,150,,,,,0,172,172,97,,,3.92023542037672,,,,,,,,,,,1636.8204434837517,1640.740419797059,1640.7237413891435,1641.2241674287543,1641.2241674287543,None,4,0.856616449125795,1641.2241674287543,None,1640.7237413891435,1641.2241674287543,1641.2241674287543,None,1130,1644.1099552665692,None,1642.1249388506985,1644.1266374666902,1644.1099552665692,None,None,None,None,,,,AM04EN20b,1,0xC010,G:\Experimente\CoScience\Tasks\Logfiles\,2022_Feb_16_1043,Gambling,2020.1.3,59.94392199733289,
10,5,o,#3ced1d,19,15,111,,,,,0,173,173,137,,,2.6251258058417006,,,,,,,,,,,1645.144170870908,1647.7797420425686,1647.763061884405,1648.2634882157236,1648.2634882157236,None,4,0.5521584208090644,1648.2634882157236,None,1647.763061884405,1648.2634882157236,1648.2634882157236,None,1140,1650.8490641276403,None,1648.864004247269,1650.8657014047203,1650.8490641276403,None,None,None,None,,,,AM04EN20b,1,0xC010,G:\Experimente\CoScience\Tasks\Logfiles\,2022_Feb_16_1043,Gambling,2020.1.3,59.94392199733289,
0,5,o,#3ced1d,9,5,101,,,,,0,174,174,116,,,4.107376462217505,,,,,,,,,,,1651.8832351006458,1656.0034039412676,1655.970043333231,1656.4704679143015,1656.4704679143015,None,4,0.8809804891061503,1656.4704679143015,None,1655.970043333231,1656.4704679143015,1656.4704679143015,None,1140,1659.3562551687028,None,1657.371244003576,1659.3729362019894,1659.3562551687028,None,None,None,None,,,,AM04EN20b,1,0xC010,G:\Experimente\CoScience\Tasks\Logfiles\,2022_Feb_16_1043,Gambling,2020.1.3,59.94392199733289,
50,4,o,#3ced1d,59,54,151,,,,,0,175,175,71,,,3.415525276129622,,,,,,,,,,,1660.3571095815878,1663.7766811499714,1663.7600012835155,1664.260426739711,1664.260426739711,None,4,0.5668879272234335,1664.260426739711,None,1663.7600012835155,1664.260426739711,1664.260426739711,None,1190,1666.8292772787136,None,1664.8442553203895,1666.8459574368771,1666.8292772787136,None,None,None,None,,,,AM04EN20b,1,0xC010,G:\Experimente\CoScience\Tasks\Logfiles\,2022_Feb_16_1043,Gambling,2020.1.3,59.94392199733289,
10,4,x,#ed1c24,19,14,110,,,,,0,176,176,64,,,3.9244166582795827,,,,,,,,,,,1667.8634890908488,1671.800171816043,1671.7668112080064,1672.2672352056616,1672.2672352056616,None,4,0.4828865095241781,1672.2672352056616,None,1671.7668112080064,1672.2672352056616,1672.2672352056616,None,1180,1674.7693636534677,None,1672.7843504463854,1674.7860732741465,1674.7693636534677,None,None,None,None,,,,AM04EN20b,1,0xC010,G:\Experimente\CoScience\Tasks\Logfiles\,2022_Feb_16_1043,Gambling,2020.1.3,59.94392199733289,
0,4,o,#3ced1d,9,4,101,,,,,0,177,177,3,,,3.537101113257176,,,,,,,,,,,1675.8035786743912,1679.339916017252,1679.3232632796444,1679.8236624821147,1679.806981740534,None,4,0.49297873302384687,1679.806981740534,None,1679.3232632796444,1679.8236624821147,1679.806981740534,None,1180,1682.3257883045499,None,1680.3407765560078,1682.3424716715017,1682.3257883045499,None,None,None,None,,,,AM04EN20b,1,0xC010,G:\Experimente\CoScience\Tasks\Logfiles\,2022_Feb_16_1043,Gambling,2020.1.3,59.94392199733289,
10,4,x,#ed1c24,19,14,110,,,,,0,178,178,60,,,3.078612335283707,,,,,,,,,,,1683.326646801348,1686.4125985790906,1686.395920171175,1686.896344460536,1686.896344460536,None,4,0.4954801295771176,1686.896344460536,None,1686.395920171175,1686.896344460536,1686.896344460536,None,1170,1689.4151521913845,None,1687.4301305247682,1689.4318329329635,1689.4151521913845,None,None,None,None,,,,AM04EN20b,1,0xC010,G:\Experimente\CoScience\Tasks\Logfiles\,2022_Feb_16_1043,Gambling,2020.1.3,59.94392199733289,
50,5,x,#ed1c24,59,55,150,,,,,0,179,179,189,,,3.4959476825506615,,,,,,,,,,,1690.4493666288909,1693.952345113963,1693.9356640806745,1694.4360909954103,1694.4360909954103,None,2,0.85157660909681,1694.4360909954103,None,1693.9356640806745,1694.4360909954103,1694.4360909954103,None,1120,1697.3051951745656,None,1695.3201749664895,1697.321876207854,1697.3051951745656,None,1698.3394072784067,None,space,28.640109857251446,,,AM04EN20b,1,0xC010,G:\Experimente\CoScience\Tasks\Logfiles\,2022_Feb_16_1043,Gambling,2020.1.3,59.94392199733289,
10,4,o,#3ced1d,19,14,111,,,,,0,180,180,48,,,3.924830563984334,,,,,,,,,,,1727.997965044624,1731.9346471864028,1731.9012848281182,1732.401710867729,1732.401710867729,None,4,0.44512723576008284,1732.401710867729,None,1731.9012848281182,1732.401710867729,1732.401710867729,None,1130,1734.8704775406677,None,1732.885461999922,1734.8871591573716,1734.8704775406677,None,None,None,None,,,,AM04EN20b,1,0xC010,G:\Experimente\CoScience\Tasks\Logfiles\,2022_Feb_16_1043,Gambling,2020.1.3,59.94392199733289,
50,5,o,#3ced1d,59,55,151,,,,,0,181,181,182,,,3.207337238707825,,,,,,,,,,,1735.9046963537949,1739.124094355886,1739.0907325810185,1739.5911603708773,1739.5911603708773,None,2,0.6865168162403279,1739.5911603708773,None,1739.0907325810185,1739.5911603708773,1739.5911603708773,None,1180,1742.2934618015588,None,1740.3084375095714,1742.3101431265568,1742.2934618015588,None,None,None,None,,,,AM04EN20b,1,0xC010,G:\Experimente\CoScience\Tasks\Logfiles\,2022_Feb_16_1043,Gambling,2020.1.3,59.94392199733289,
10,5,x,#ed1c24,19,15,110,,,,,0,182,182,165,,,3.7621420676250814,,,,,,,,,,,1743.327676239067,1747.0975430889248,1747.0641804389325,1747.5646064785433,1747.5646064785433,None,4,0.9418943812652287,1747.5646064785433,None,1747.0641804389325,1747.5646064785433,1747.5646064785433,None,1170,1750.5338105677074,None,1748.5487786913109,1750.5504784741333,1750.5338105677074,None,None,None,None,,,,AM04EN20b,1,0xC010,G:\Experimente\CoScience\Tasks\Logfiles\,2022_Feb_16_1043,Gambling,2020.1.3,59.94392199733289,
10,6,o,#3ced1d,19,16,211,,,,,0,183,183,222,,,2.6640078521391466,,,,,,,,,,,1751.568013628601,1754.2369477419616,1754.2035862588,1754.704012881828,1754.704012881828,None,2,0.886342666532073,1754.704012881828,None,1754.2035862588,1754.704012881828,1754.704012881828,None,1180,1757.623158410599,None,1755.6381463703492,1757.6398411941354,1757.623158410599,None,None,None,None,,,,AM04EN20b,1,0xC010,G:\Experimente\CoScience\Tasks\Logfiles\,2022_Feb_16_1043,Gambling,2020.1.3,59.94392199733289,
50,5,o,#3ced1d,59,55,151,,,,,0,184,184,174,,,4.378150901126423,,,,,,,,,,,1758.6741533538407,1763.0611183795027,1763.027756896343,1763.5281829359537,1763.5281829359537,None,2,1.0069776566215296,1763.5281829359537,None,1763.027756896343,1763.5281829359537,1763.5281829359537,None,1230,1766.5474181649515,None,1764.5624110837398,1766.5640971562843,1766.5474181649515,None,None,None,None,,,,AM04EN20b,1,0xC010,G:\Experimente\CoScience\Tasks\Logfiles\,2022_Feb_16_1043,Gambling,2020.1.3,59.94392199733289,
0,7,x,#ed1c24,9,7,200,,,,,0,185,185,228,,,4.231944715865822,,,,,,,,,,,1767.5816302687945,1771.818567800974,1771.7852515325612,1772.2856311905925,1772.2856311905925,None,2,0.654347835597946,1772.2856311905925,None,1771.7852515325612,1772.2856311905925,1772.2856311905925,None,1230,1774.971248670905,None,1772.9862337135746,1774.987929120778,1774.971248670905,None,None,None,None,,,,AM04EN20b,1,0xC010,G:\Experimente\CoScience\Tasks\Logfiles\,2022_Feb_16_1043,Gambling,2020.1.3,59.94392199733289,
50,7,x,#ed1c24,59,57,250,,,,,0,186,186,231,,,3.4169306239794732,,,,,,,,,,,1775.9721007501266,1779.391672610218,1779.374992743762,1779.8754190750806,1779.8754190750806,None,2,0.6023987153184862,1779.8754190750806,None,1779.374992743762,1779.8754190750806,1779.8754190750806,None,1180,1782.4943118388255,None,1780.509291922459,1782.5109940389466,1782.4943118388255,None,None,None,None,,,,AM04EN20b,1,0xC010,G:\Experimente\CoScience\Tasks\Logfiles\,2022_Feb_16_1043,Gambling,2020.1.3,59.94392199733289,
50,4,x,#ed1c24,59,54,150,,,,,0,187,187,91,,,3.20460353253873,,,,,,,,,,,1783.5285289017047,1786.747929237461,1786.7145686294243,1787.2149937939103,1787.2149937939103,None,4,0.5146806453158206,1787.2149937939103,None,1786.7145686294243,1787.2149937939103,1787.2149937939103,None,1130,1789.733803858422,None,1787.748781024975,1789.7504924761197,1789.733803858422,None,None,None,None,,,,AM04EN20b,1,0xC010,G:\Experimente\CoScience\Tasks\Logfiles\,2022_Feb_16_1043,Gambling,2020.1.3,59.94392199733289,
0,5,x,#ed1c24,9,5,100,,,,,0,188,188,135,,,3.591315154956285,,,,,,,,,,,1790.7513358040997,1794.35439932207,1794.3377188721988,1794.8381562884242,1794.8381562884242,None,4,0.37035079351880995,1794.8381562884242,None,1794.3377188721988,1794.8381562884242,1794.8381562884242,None,1130,1797.2235052514734,None,1795.2384856268145,1797.2401857013465,1797.2235052514734,None,None,None,None,,,,AM04EN20b,1,0xC010,G:\Experimente\CoScience\Tasks\Logfiles\,2022_Feb_16_1043,Gambling,2020.1.3,59.94392199733289,
10,4,x,#ed1c24,19,14,110,,,,,0,189,189,63,,,3.13255438066803,,,,,,,,,,,1798.224376000011,1801.3603568756316,1801.3436764257603,1801.8441021736617,1801.8441021736617,None,4,1.5652324840248184,1801.8441021736617,None,1801.3436764257603,1801.8441021736617,1801.8441021736617,None,1120,1805.413805375305,None,1803.428782541856,1805.4304858251762,1805.413805375305,None,None,None,None,,,,AM04EN20b,1,0xC010,G:\Experimente\CoScience\Tasks\Logfiles\,2022_Feb_16_1043,Gambling,2020.1.3,59.94392199733289,
10,5,x,#ed1c24,19,15,110,,,,,0,190,190,164,,,3.6150920718777506,,,,,,,,,,,1806.4313379043979,1810.0510812888242,1810.0177195139568,1810.5181455535676,1810.5181455535676,None,4,0.5720179050404113,1810.5181455535676,None,1810.0177195139568,1810.5181455535676,1810.5181455535676,None,1110,1813.103677709274,None,1811.1186563343672,1813.1203593259797,1813.103677709274,None,None,None,None,,,,AM04EN20b,1,0xC010,G:\Experimente\CoScience\Tasks\Logfiles\,2022_Feb_16_1043,Gambling,2020.1.3,59.94392199733289,
50,5,x,#ed1c24,59,55,150,,,,,0,191,191,198,,,3.994841933820378,,,,,,,,,,,1814.1212102383688,1818.1246141796364,1818.0912529881844,1818.5916772775472,1818.5916772775472,None,4,2.9512768790737027,1818.5916772775472,None,1818.0912529881844,1818.5916772775472,1818.5916772775472,None,1060,1823.5458916567113,None,1821.5608705735121,1823.5625721065844,1823.5458916567113,None,None,None,None,,,,AM04EN20b,1,0xC010,G:\Experimente\CoScience\Tasks\Logfiles\,2022_Feb_16_1043,Gambling,2020.1.3,59.94392199733289,
50,2,o,#3ced1d,59,52,251,,,,,0,192,192,207,,,2.985756671364184,,,,,,,,,,,1824.563435270713,1827.5492973482287,1827.5326440272038,1828.033040020886,1828.033040020886,None,4,1.8467240456411673,1828.033040020886,None,1827.5326440272038,1828.033040020886,1828.033040020886,None,1110,1831.9029980295127,None,1829.9179865726783,1831.919680229632,1831.9029980295127,None,None,None,None,,,,AM04EN20b,1,0xC010,G:\Experimente\CoScience\Tasks\Logfiles\,2022_Feb_16_1043,Gambling,2020.1.3,59.94392199733289,
