"Onset","Duration","Participant","date_time","Running","Trial","Event","MoneyMagnitude","CardNumber","Feedback","Response","RT","Post_Trial"
99.8960755057124,4.02084799513535,"AM04EN20b","2022_Feb_16_1043","Practice",0,"Fixation",0,7,"loss",2,3.81797154971355,NA
103.916134518251,0.5,"AM04EN20b","2022_Feb_16_1043","Practice",0,"Money",0,7,"loss",2,3.81797154971355,NA
104.41657601839,3.81797154971355,"AM04EN20b","2022_Feb_16_1043","Practice",0,"Choice",0,7,"loss",2,3.81797154971355,NA
108.234547568103,0,"AM04EN20b","2022_Feb_16_1043","Practice",0,"Response",0,7,"loss",2,3.81797154971355,NA
110.255257089599,1,"AM04EN20b","2022_Feb_16_1043","Practice",0,"Feedback",0,7,"loss",2,3.81797154971355,NA
111.256114127858,2.61981478966609,"AM04EN20b","2022_Feb_16_1043","Practice",1,"Fixation",50,4,"loss",4,4.11358148937325,"post_loss"
113.858326150023,0.5,"AM04EN20b","2022_Feb_16_1043","Practice",1,"Money",50,4,"loss",4,4.11358148937325,"post_loss"
114.358747522305,4.11358148937325,"AM04EN20b","2022_Feb_16_1043","Practice",1,"Choice",50,4,"loss",4,4.11358148937325,"post_loss"
118.472329011678,0,"AM04EN20b","2022_Feb_16_1043","Practice",1,"Response",50,4,"loss",4,4.11358148937325,"post_loss"
120.480621104785,1,"AM04EN20b","2022_Feb_16_1043","Practice",1,"Feedback",50,4,"loss",4,4.11358148937325,"post_loss"
121.481478143045,2.69250757095047,"AM04EN20b","2022_Feb_16_1043","Practice",2,"Fixation",50,3,"reward",4,2.76329787621944,"post_break"
124.150409339325,0.5,"AM04EN20b","2022_Feb_16_1043","Practice",2,"Money",50,3,"reward",4,2.76329787621944,"post_break"
124.650838296016,2.76329787621944,"AM04EN20b","2022_Feb_16_1043","Practice",2,"Choice",50,3,"reward",4,2.76329787621944,"post_break"
127.414136172236,0,"AM04EN20b","2022_Feb_16_1043","Practice",2,"Response",50,3,"reward",4,2.76329787621944,"post_break"
129.421563642674,1,"AM04EN20b","2022_Feb_16_1043","Practice",2,"Feedback",50,3,"reward",4,2.76329787621944,"post_break"
130.422415721898,4.37217793786889,"AM04EN20b","2022_Feb_16_1043","Practice",3,"Fixation",10,4,"reward",4,1.48139529795844,"post_break"
134.776118445137,0.5,"AM04EN20b","2022_Feb_16_1043","Practice",3,"Money",10,4,"reward",4,1.48139529795844,"post_break"
135.276543317916,1.48139529795844,"AM04EN20b","2022_Feb_16_1043","Practice",3,"Choice",10,4,"reward",4,1.48139529795844,"post_break"
136.757938615874,0,"AM04EN20b","2022_Feb_16_1043","Practice",3,"Response",10,4,"reward",4,1.48139529795844,"post_break"
138.762842228241,1,"AM04EN20b","2022_Feb_16_1043","Practice",3,"Feedback",10,4,"reward",4,1.48139529795844,"post_break"
139.763699849917,3.6908483609629,"AM04EN20b","2022_Feb_16_1043","Practice",4,"Fixation",0,5,"loss",2,2.25582971250697,"post_break"
143.433483125418,0.5,"AM04EN20b","2022_Feb_16_1043","Practice",4,"Money",0,5,"loss",2,2.25582971250697,"post_break"
143.933907414781,2.25582971250697,"AM04EN20b","2022_Feb_16_1043","Practice",4,"Choice",0,5,"loss",2,2.25582971250697,"post_break"
146.189737127288,0,"AM04EN20b","2022_Feb_16_1043","Practice",4,"Response",0,5,"loss",2,2.25582971250697,"post_break"
148.204207596953,1,"AM04EN20b","2022_Feb_16_1043","Practice",4,"Feedback",0,5,"loss",2,2.25582971250697,"post_break"
149.205062301548,3.2570165671783,"AM04EN20b","2022_Feb_16_1043","Practice",5,"Fixation",0,5,"reward",2,2.9469674760112,"post_loss"
152.441146587673,0.5,"AM04EN20b","2022_Feb_16_1043","Practice",5,"Money",0,5,"reward",2,2.9469674760112,"post_loss"
152.941570877036,2.9469674760112,"AM04EN20b","2022_Feb_16_1043","Practice",5,"Choice",0,5,"reward",2,2.9469674760112,"post_loss"
155.888538353047,0,"AM04EN20b","2022_Feb_16_1043","Practice",5,"Response",0,5,"reward",2,2.9469674760112,"post_loss"
157.895788756696,1,"AM04EN20b","2022_Feb_16_1043","Practice",5,"Feedback",0,5,"reward",2,2.9469674760112,"post_loss"
158.896639960794,3.029514784274,"AM04EN20b","2022_Feb_16_1043","Practice",6,"Fixation",10,5,"loss",2,2.82771255671832,"post_reward"
161.899192406256,0.5,"AM04EN20b","2022_Feb_16_1043","Practice",6,"Money",10,5,"loss",2,2.82771255671832,"post_reward"
162.399617570743,2.82771255671832,"AM04EN20b","2022_Feb_16_1043","Practice",6,"Choice",10,5,"loss",2,2.82771255671832,"post_reward"
165.227330127462,0,"AM04EN20b","2022_Feb_16_1043","Practice",6,"Response",10,5,"loss",2,2.82771255671832,"post_reward"
167.237067633971,1,"AM04EN20b","2022_Feb_16_1043","Practice",6,"Feedback",10,5,"loss",2,2.82771255671832,"post_reward"
168.237919421485,2.85508622869351,"AM04EN20b","2022_Feb_16_1043","Practice",7,"Fixation",10,4,"reward",4,2.17009584068001,"post_loss"
171.073664742851,0.5,"AM04EN20b","2022_Feb_16_1043","Practice",7,"Money",10,4,"reward",4,2.17009584068001,"post_loss"
171.574091949295,2.17009584068001,"AM04EN20b","2022_Feb_16_1043","Practice",7,"Choice",10,4,"reward",4,2.17009584068001,"post_loss"
173.744187789975,0,"AM04EN20b","2022_Feb_16_1043","Practice",7,"Response",10,4,"reward",4,2.17009584068001,"post_loss"
175.760985506486,1,"AM04EN20b","2022_Feb_16_1043","Practice",7,"Feedback",10,4,"reward",4,2.17009584068001,"post_loss"
176.761849837445,3.02284464399843,"AM04EN20b","2022_Feb_16_1043","Practice",8,"Fixation",50,8,"reward",2,2.20914708941018,"post_reward"
179.764391198001,0.5,"AM04EN20b","2022_Feb_16_1043","Practice",8,"Money",50,8,"reward",2,2.20914708941018,"post_reward"
180.264815779072,2.20914708941018,"AM04EN20b","2022_Feb_16_1043","Practice",8,"Choice",50,8,"reward",2,2.20914708941018,"post_reward"
182.473962868482,0,"AM04EN20b","2022_Feb_16_1043","Practice",8,"Response",50,8,"reward",2,2.20914708941018,"post_reward"
184.485072861378,1,"AM04EN20b","2022_Feb_16_1043","Practice",8,"Feedback",50,8,"reward",2,2.20914708941018,"post_reward"
185.485926982557,3.49267088467997,"AM04EN20b","2022_Feb_16_1043","Practice",9,"Fixation",10,4,"loss",4,1.39481255569808,"post_reward"
188.955542817637,0.5,"AM04EN20b","2022_Feb_16_1043","Practice",9,"Money",10,4,"loss",4,1.39481255569808,"post_reward"
189.455968857248,1.39481255569808,"AM04EN20b","2022_Feb_16_1043","Practice",9,"Choice",10,4,"loss",4,1.39481255569808,"post_reward"
190.850781412946,0,"AM04EN20b","2022_Feb_16_1043","Practice",9,"Response",10,4,"loss",4,1.39481255569808,"post_reward"
192.858863184547,1,"AM04EN20b","2022_Feb_16_1043","Practice",9,"Feedback",10,4,"loss",4,1.39481255569808,"post_reward"
202.617173144774,2.84230330261743,"AM04EN20b","2022_Feb_16_1043","MainTask",0,"Fixation",50,4,"loss",4,0.938784481715629,NA
205.436229265028,0.5,"AM04EN20b","2022_Feb_16_1043","MainTask",0,"Money",50,4,"loss",4,0.938784481715629,NA
205.936655596346,0.938784481715629,"AM04EN20b","2022_Feb_16_1043","MainTask",0,"Choice",50,4,"loss",4,0.938784481715629,NA
206.875440078062,0,"AM04EN20b","2022_Feb_16_1043","MainTask",0,"Response",50,4,"loss",4,0.938784481715629,NA
208.889185944923,1,"AM04EN20b","2022_Feb_16_1043","MainTask",0,"Feedback",50,4,"loss",4,0.938784481715629,NA
209.923384046779,3.72393013337197,"AM04EN20b","2022_Feb_16_1043","MainTask",1,"Fixation",0,5,"reward",4,1.59429419048865,"post_loss"
213.626532889353,0.5,"AM04EN20b","2022_Feb_16_1043","MainTask",1,"Money",0,5,"reward",4,1.59429419048865,"post_loss"
214.126956887008,1.59429419048865,"AM04EN20b","2022_Feb_16_1043","MainTask",1,"Choice",0,5,"reward",4,1.59429419048865,"post_loss"
215.721251077497,0,"AM04EN20b","2022_Feb_16_1043","MainTask",1,"Response",0,5,"reward",4,1.59429419048865,"post_loss"
217.746702605098,1,"AM04EN20b","2022_Feb_16_1043","MainTask",1,"Feedback",0,5,"reward",4,1.59429419048865,"post_loss"
218.747564894102,3.48446391089048,"AM04EN20b","2022_Feb_16_1043","MainTask",2,"Fixation",10,5,"loss",2,2.24745389918826,"post_break"
222.217172561357,0.5,"AM04EN20b","2022_Feb_16_1043","MainTask",2,"Money",10,5,"loss",2,2.24745389918826,"post_break"
222.717598600968,2.24745389918826,"AM04EN20b","2022_Feb_16_1043","MainTask",2,"Choice",10,5,"loss",2,2.24745389918826,"post_break"
224.965052500156,0,"AM04EN20b","2022_Feb_16_1043","MainTask",2,"Response",10,5,"loss",2,2.24745389918826,"post_break"
226.987906950966,1,"AM04EN20b","2022_Feb_16_1043","MainTask",2,"Feedback",10,5,"loss",2,2.24745389918826,"post_break"
228.022119638224,3.61322972416218,"AM04EN20b","2022_Feb_16_1043","MainTask",3,"Fixation",50,6,"reward",2,2.02324913180382,"post_break"
231.625186656691,0.5,"AM04EN20b","2022_Feb_16_1043","MainTask",3,"Money",50,6,"reward",2,2.02324913180382,"post_break"
232.125601319687,2.02324913180382,"AM04EN20b","2022_Feb_16_1043","MainTask",3,"Choice",50,6,"reward",2,2.02324913180382,"post_break"
234.148850451491,0,"AM04EN20b","2022_Feb_16_1043","MainTask",3,"Response",50,6,"reward",2,2.02324913180382,"post_break"
236.17904981936,1,"AM04EN20b","2022_Feb_16_1043","MainTask",3,"Feedback",50,6,"reward",2,2.02324913180382,"post_break"
237.213264548574,2.85319156643865,"AM04EN20b","2022_Feb_16_1043","MainTask",4,"Fixation",50,3,"reward",4,2.88322634940414,"post_break"
240.049006952861,0.5,"AM04EN20b","2022_Feb_16_1043","MainTask",4,"Money",50,3,"reward",4,2.88322634940414,"post_break"
240.549434742721,2.88322634940414,"AM04EN20b","2022_Feb_16_1043","MainTask",4,"Choice",50,3,"reward",4,2.88322634940414,"post_break"
243.432661092125,0,"AM04EN20b","2022_Feb_16_1043","MainTask",4,"Response",50,3,"reward",4,2.88322634940414,"post_break"
245.436923530193,1,"AM04EN20b","2022_Feb_16_1043","MainTask",4,"Feedback",50,3,"reward",4,2.88322634940414,"post_break"
246.454459851491,3.75233673664853,"AM04EN20b","2022_Feb_16_1043","MainTask",5,"Fixation",0,4,"reward",2,2.13106851201155,"post_reward"
250.190969010395,0.5,"AM04EN20b","2022_Feb_16_1043","MainTask",5,"Money",0,4,"reward",2,2.13106851201155,"post_reward"
250.691393299758,2.13106851201155,"AM04EN20b","2022_Feb_16_1043","MainTask",5,"Choice",0,4,"reward",2,2.13106851201155,"post_reward"
252.822461811769,0,"AM04EN20b","2022_Feb_16_1043","MainTask",5,"Response",0,4,"reward",2,2.13106851201155,"post_reward"
254.828245215624,1,"AM04EN20b","2022_Feb_16_1043","MainTask",5,"Feedback",0,4,"reward",2,2.13106851201155,"post_reward"
255.829100211926,3.17582256482196,"AM04EN20b","2022_Feb_16_1043","MainTask",6,"Fixation",10,4,"loss",4,2.4300628484998,"post_reward"
258.981779039901,0.5,"AM04EN20b","2022_Feb_16_1043","MainTask",6,"Money",10,4,"loss",4,2.4300628484998,"post_reward"
259.482203912679,2.4300628484998,"AM04EN20b","2022_Feb_16_1043","MainTask",6,"Choice",10,4,"loss",4,2.4300628484998,"post_reward"
261.912266761179,0,"AM04EN20b","2022_Feb_16_1043","MainTask",6,"Response",10,4,"loss",4,2.4300628484998,"post_reward"
263.935995169315,1,"AM04EN20b","2022_Feb_16_1043","MainTask",6,"Feedback",10,4,"loss",4,2.4300628484998,"post_reward"
264.970207856573,3.98495630433317,"AM04EN20b","2022_Feb_16_1043","MainTask",7,"Fixation",10,4,"reward",4,2.04238634689682,"post_loss"
268.940259649338,0.5,"AM04EN20b","2022_Feb_16_1043","MainTask",7,"Money",10,4,"reward",4,2.04238634689682,"post_loss"
269.440677229415,2.04238634689682,"AM04EN20b","2022_Feb_16_1043","MainTask",7,"Choice",10,4,"reward",4,2.04238634689682,"post_loss"
271.483063576312,0,"AM04EN20b","2022_Feb_16_1043","MainTask",7,"Response",10,4,"reward",4,2.04238634689682,"post_loss"
273.510805012127,1,"AM04EN20b","2022_Feb_16_1043","MainTask",7,"Feedback",10,4,"reward",4,2.04238634689682,"post_loss"
274.54502761746,3.59214226809583,"AM04EN20b","2022_Feb_16_1043","MainTask",8,"Fixation",10,4,"loss",4,1.3987296114301,"post_reward"
278.131404267981,0.5,"AM04EN20b","2022_Feb_16_1043","MainTask",8,"Money",10,4,"loss",4,1.3987296114301,"post_reward"
278.615147232347,1.3987296114301,"AM04EN20b","2022_Feb_16_1043","MainTask",8,"Choice",10,4,"loss",4,1.3987296114301,"post_reward"
280.013876843777,0,"AM04EN20b","2022_Feb_16_1043","MainTask",8,"Response",10,4,"loss",4,1.3987296114301,"post_reward"
282.034722884642,1,"AM04EN20b","2022_Feb_16_1043","MainTask",8,"Feedback",10,4,"loss",4,1.3987296114301,"post_reward"
283.068941989479,4.44632297525806,"AM04EN20b","2022_Feb_16_1043","MainTask",9,"Fixation",10,3,"loss",4,1.77020814828029,"post_loss"
287.506042003042,0.5,"AM04EN20b","2022_Feb_16_1043","MainTask",9,"Money",10,3,"loss",4,1.77020814828029,"post_loss"
288.006468917778,1.77020814828029,"AM04EN20b","2022_Feb_16_1043","MainTask",9,"Choice",10,3,"loss",4,1.77020814828029,"post_loss"
289.776677066058,0,"AM04EN20b","2022_Feb_16_1043","MainTask",9,"Response",10,3,"loss",4,1.77020814828029,"post_loss"
291.793022926795,1,"AM04EN20b","2022_Feb_16_1043","MainTask",9,"Feedback",10,3,"loss",4,1.77020814828029,"post_loss"
292.82730795765,2.76897612416914,"AM04EN20b","2022_Feb_16_1043","MainTask",10,"Fixation",0,5,"loss",4,3.09746491116857,"post_loss"
295.579576644102,0.5,"AM04EN20b","2022_Feb_16_1043","MainTask",10,"Money",0,5,"loss",4,3.09746491116857,"post_loss"
296.080002392006,3.09746491116857,"AM04EN20b","2022_Feb_16_1043","MainTask",10,"Choice",0,5,"loss",4,3.09746491116857,"post_loss"
299.177467303174,0,"AM04EN20b","2022_Feb_16_1043","MainTask",10,"Response",0,5,"loss",4,3.09746491116857,"post_loss"
301.184345487349,1,"AM04EN20b","2022_Feb_16_1043","MainTask",10,"Feedback",0,5,"loss",4,3.09746491116857,"post_loss"
302.185207776352,2.78446949105505,"AM04EN20b","2022_Feb_16_1043","MainTask",11,"Fixation",50,5,"loss",4,1.52465268509877,"post_loss"
304.954216421122,0.5,"AM04EN20b","2022_Feb_16_1043","MainTask",11,"Money",50,5,"loss",4,1.52465268509877,"post_loss"
305.454645961228,1.52465268509877,"AM04EN20b","2022_Feb_16_1043","MainTask",11,"Choice",50,5,"loss",4,1.52465268509877,"post_loss"
306.979298646327,0,"AM04EN20b","2022_Feb_16_1043","MainTask",11,"Response",50,5,"loss",4,1.52465268509877,"post_loss"
308.990985054337,1,"AM04EN20b","2022_Feb_16_1043","MainTask",11,"Feedback",50,5,"loss",4,1.52465268509877,"post_loss"
310.008529543462,2.52737680981757,"AM04EN20b","2022_Feb_16_1043","MainTask",12,"Fixation",0,5,"loss",4,2.10207243986042,"post_loss"
312.510646031238,0.5,"AM04EN20b","2022_Feb_16_1043","MainTask",12,"Money",0,5,"loss",4,2.10207243986042,"post_loss"
313.011072362558,2.10207243986042,"AM04EN20b","2022_Feb_16_1043","MainTask",12,"Choice",0,5,"loss",4,2.10207243986042,"post_loss"
315.113144802419,0,"AM04EN20b","2022_Feb_16_1043","MainTask",12,"Response",0,5,"loss",4,2.10207243986042,"post_loss"
317.114559878182,1,"AM04EN20b","2022_Feb_16_1043","MainTask",12,"Feedback",0,5,"loss",4,2.10207243986042,"post_loss"
318.115413124237,4.34287093674144,"AM04EN20b","2022_Feb_16_1043","MainTask",13,"Fixation",10,5,"reward",4,2.12973190571392,"post_loss"
322.435755239441,0.5,"AM04EN20b","2022_Feb_16_1043","MainTask",13,"Money",10,5,"reward",4,2.12973190571392,"post_loss"
322.936180695637,2.12973190571392,"AM04EN20b","2022_Feb_16_1043","MainTask",13,"Choice",10,5,"reward",4,2.12973190571392,"post_loss"
325.065912601351,0,"AM04EN20b","2022_Feb_16_1043","MainTask",13,"Response",10,5,"reward",4,2.12973190571392,"post_loss"
327.089714811622,1,"AM04EN20b","2022_Feb_16_1043","MainTask",13,"Feedback",10,5,"reward",4,2.12973190571392,"post_loss"
328.123928957421,3.6471661301689,"AM04EN20b","2022_Feb_16_1043","MainTask",14,"Fixation",10,5,"loss",4,1.71262818745709,"post_reward"
331.743672341847,0.5,"AM04EN20b","2022_Feb_16_1043","MainTask",14,"Money",10,5,"loss",4,1.71262818745709,"post_reward"
332.24409808975,1.71262818745709,"AM04EN20b","2022_Feb_16_1043","MainTask",14,"Choice",10,5,"loss",4,1.71262818745709,"post_reward"
333.956726277207,0,"AM04EN20b","2022_Feb_16_1043","MainTask",14,"Response",10,5,"loss",4,1.71262818745709,"post_reward"
335.980632627254,1,"AM04EN20b","2022_Feb_16_1043","MainTask",14,"Feedback",10,5,"loss",4,1.71262818745709,"post_reward"
337.014817893956,3.13006786348469,"AM04EN20b","2022_Feb_16_1043","MainTask",15,"Fixation",10,7,"reward",2,1.4309855210704,"post_loss"
340.134143698304,0.5,"AM04EN20b","2022_Feb_16_1043","MainTask",15,"Money",10,7,"reward",2,1.4309855210704,"post_loss"
340.634569737915,1.4309855210704,"AM04EN20b","2022_Feb_16_1043","MainTask",15,"Choice",10,7,"reward",2,1.4309855210704,"post_loss"
342.065555258985,0,"AM04EN20b","2022_Feb_16_1043","MainTask",15,"Response",10,7,"reward",2,1.4309855210704,"post_loss"
344.087505414831,1,"AM04EN20b","2022_Feb_16_1043","MainTask",15,"Feedback",10,7,"reward",2,1.4309855210704,"post_loss"
345.12172247771,3.73399366842772,"AM04EN20b","2022_Feb_16_1043","MainTask",16,"Fixation",10,5,"reward",4,1.57838472500043,"post_reward"
348.841550895033,0.5,"AM04EN20b","2022_Feb_16_1043","MainTask",16,"Money",10,5,"reward",4,1.57838472500043,"post_reward"
349.341976642936,1.57838472500043,"AM04EN20b","2022_Feb_16_1043","MainTask",16,"Choice",10,5,"reward",4,1.57838472500043,"post_reward"
350.920361367936,0,"AM04EN20b","2022_Feb_16_1043","MainTask",16,"Response",10,5,"reward",4,1.57838472500043,"post_reward"
352.928361752991,1,"AM04EN20b","2022_Feb_16_1043","MainTask",16,"Feedback",10,5,"reward",4,1.57838472500043,"post_reward"
353.94590390845,4.40840863935458,"AM04EN20b","2022_Feb_16_1043","MainTask",17,"Fixation",50,4,"reward",4,1.26010236035654,"post_reward"
358.349644480812,0.5,"AM04EN20b","2022_Feb_16_1043","MainTask",17,"Money",50,4,"reward",4,1.26010236035654,"post_reward"
358.850063519429,1.26010236035654,"AM04EN20b","2022_Feb_16_1043","MainTask",17,"Choice",50,4,"reward",4,1.26010236035654,"post_reward"
360.110165879785,0,"AM04EN20b","2022_Feb_16_1043","MainTask",17,"Response",50,4,"reward",4,1.26010236035654,"post_reward"
362.119510747254,1,"AM04EN20b","2022_Feb_16_1043","MainTask",17,"Feedback",50,4,"reward",4,1.26010236035654,"post_reward"
363.137042984639,2.81366103309022,"AM04EN20b","2022_Feb_16_1043","MainTask",18,"Fixation",10,5,"reward",2,2.18081844528206,"post_reward"
365.922744914435,0.5,"AM04EN20b","2022_Feb_16_1043","MainTask",18,"Money",10,5,"reward",2,2.18081844528206,"post_reward"
366.423171245753,2.18081844528206,"AM04EN20b","2022_Feb_16_1043","MainTask",18,"Choice",10,5,"reward",2,2.18081844528206,"post_reward"
368.603989691035,0,"AM04EN20b","2022_Feb_16_1043","MainTask",18,"Response",10,5,"reward",2,2.18081844528206,"post_reward"
370.610065969777,1,"AM04EN20b","2022_Feb_16_1043","MainTask",18,"Feedback",10,5,"reward",2,2.18081844528206,"post_reward"
371.627599665702,4.45150861939706,"AM04EN20b","2022_Feb_16_1043","MainTask",19,"Fixation",10,5,"loss",2,1.25433762581633,"post_reward"
376.048024188432,0.5,"AM04EN20b","2022_Feb_16_1043","MainTask",19,"Money",10,5,"loss",2,1.25433762581633,"post_reward"
376.548451394874,1.25433762581633,"AM04EN20b","2022_Feb_16_1043","MainTask",19,"Choice",10,5,"loss",2,1.25433762581633,"post_reward"
377.80278902069,0,"AM04EN20b","2022_Feb_16_1043","MainTask",19,"Response",10,5,"loss",2,1.25433762581633,"post_reward"
379.834578197448,1,"AM04EN20b","2022_Feb_16_1043","MainTask",19,"Feedback",10,5,"loss",2,1.25433762581633,"post_reward"
380.868793801787,4.28029531834393,"AM04EN20b","2022_Feb_16_1043","MainTask",20,"Fixation",50,5,"loss",2,2.92504124022526,"post_loss"
385.139091066878,0.5,"AM04EN20b","2022_Feb_16_1043","MainTask",20,"Money",50,5,"loss",2,2.92504124022526,"post_loss"
385.639517398198,2.92504124022526,"AM04EN20b","2022_Feb_16_1043","MainTask",20,"Choice",50,5,"loss",2,2.92504124022526,"post_loss"
388.564558638423,0,"AM04EN20b","2022_Feb_16_1043","MainTask",20,"Response",50,5,"loss",2,2.92504124022526,"post_loss"
390.577050744074,1,"AM04EN20b","2022_Feb_16_1043","MainTask",20,"Feedback",50,5,"loss",2,2.92504124022526,"post_loss"
391.594586190249,2.51134984779823,"AM04EN20b","2022_Feb_16_1043","MainTask",21,"Fixation",0,4,"loss",4,1.77823887097475,"post_loss"
394.096709970727,0.5,"AM04EN20b","2022_Feb_16_1043","MainTask",21,"Money",0,4,"loss",4,1.77823887097475,"post_loss"
394.597150887448,1.77823887097475,"AM04EN20b","2022_Feb_16_1043","MainTask",21,"Choice",0,4,"loss",4,1.77823887097475,"post_loss"
396.375389758423,0,"AM04EN20b","2022_Feb_16_1043","MainTask",21,"Response",0,4,"loss",4,1.77823887097475,"post_loss"
398.383689727647,1,"AM04EN20b","2022_Feb_16_1043","MainTask",21,"Feedback",0,4,"loss",4,1.77823887097475,"post_loss"
399.384545599074,3.42929864083091,"AM04EN20b","2022_Feb_16_1043","MainTask",22,"Fixation",50,2,"reward",4,0.899679266996827,"post_loss"
402.804117167456,0.5,"AM04EN20b","2022_Feb_16_1043","MainTask",22,"Money",50,2,"reward",4,0.899679266996827,"post_loss"
403.304546415857,0.899679266996827,"AM04EN20b","2022_Feb_16_1043","MainTask",22,"Choice",50,2,"reward",4,0.899679266996827,"post_loss"
404.204225682854,0,"AM04EN20b","2022_Feb_16_1043","MainTask",22,"Response",50,2,"reward",4,0.899679266996827,"post_loss"
406.223692528045,1,"AM04EN20b","2022_Feb_16_1043","MainTask",22,"Feedback",50,2,"reward",4,0.899679266996827,"post_loss"
407.257907840674,4.2924490329152,"AM04EN20b","2022_Feb_16_1043","MainTask",23,"Fixation",50,2,"loss",4,0.699734108111443,"post_reward"
411.544894598588,0.5,"AM04EN20b","2022_Feb_16_1043","MainTask",23,"Money",50,2,"loss",4,0.699734108111443,"post_reward"
412.045309261584,0.699734108111443,"AM04EN20b","2022_Feb_16_1043","MainTask",23,"Choice",50,2,"loss",4,0.699734108111443,"post_reward"
412.745043369696,0,"AM04EN20b","2022_Feb_16_1043","MainTask",23,"Response",50,2,"loss",4,0.699734108111443,"post_reward"
414.764289683599,1,"AM04EN20b","2022_Feb_16_1043","MainTask",23,"Feedback",50,2,"loss",4,0.699734108111443,"post_reward"
415.798497120113,4.05027826556092,"AM04EN20b","2022_Feb_16_1043","MainTask",24,"Fixation",50,5,"reward",4,1.31919686938818,"post_loss"
419.83527012895,0.5,"AM04EN20b","2022_Feb_16_1043","MainTask",24,"Money",50,5,"reward",4,1.31919686938818,"post_loss"
420.335697918808,1.31919686938818,"AM04EN20b","2022_Feb_16_1043","MainTask",24,"Choice",50,5,"reward",4,1.31919686938818,"post_loss"
421.654894788197,0,"AM04EN20b","2022_Feb_16_1043","MainTask",24,"Response",50,5,"reward",4,1.31919686938818,"post_loss"
423.688547395996,1,"AM04EN20b","2022_Feb_16_1043","MainTask",24,"Feedback",50,5,"reward",4,1.31919686938818,"post_loss"
424.722766209123,4.12887386226432,"AM04EN20b","2022_Feb_16_1043","MainTask",25,"Fixation",0,4,"loss",2,1.6259246780628,"post_reward"
428.826257516952,0.5,"AM04EN20b","2022_Feb_16_1043","MainTask",25,"Money",0,4,"loss",2,1.6259246780628,"post_reward"
429.326726729354,1.6259246780628,"AM04EN20b","2022_Feb_16_1043","MainTask",25,"Choice",0,4,"loss",2,1.6259246780628,"post_reward"
430.952651407417,0,"AM04EN20b","2022_Feb_16_1043","MainTask",25,"Response",0,4,"loss",2,1.6259246780628,"post_reward"
432.979800967596,1,"AM04EN20b","2022_Feb_16_1043","MainTask",25,"Feedback",0,4,"loss",2,1.6259246780628,"post_reward"
433.980639628247,3.82398380121904,"AM04EN20b","2022_Feb_16_1043","MainTask",26,"Fixation",50,4,"reward",4,1.46617076297662,"post_loss"
437.783869419807,0.5,"AM04EN20b","2022_Feb_16_1043","MainTask",26,"Money",50,4,"reward",4,1.46617076297662,"post_loss"
438.28429516771,1.46617076297662,"AM04EN20b","2022_Feb_16_1043","MainTask",26,"Choice",50,4,"reward",4,1.46617076297662,"post_loss"
439.750465930687,0,"AM04EN20b","2022_Feb_16_1043","MainTask",26,"Response",50,4,"reward",4,1.46617076297662,"post_loss"
441.770595536575,1,"AM04EN20b","2022_Feb_16_1043","MainTask",26,"Feedback",50,4,"reward",4,1.46617076297662,"post_loss"
442.804810557498,3.97424871470915,"AM04EN20b","2022_Feb_16_1043","MainTask",27,"Fixation",50,5,"loss",2,2.09766414776823,"post_reward"
446.758169065237,0.5,"AM04EN20b","2022_Feb_16_1043","MainTask",27,"Money",50,5,"loss",2,2.09766414776823,"post_reward"
447.258594229723,2.09766414776823,"AM04EN20b","2022_Feb_16_1043","MainTask",27,"Choice",50,5,"loss",2,2.09766414776823,"post_reward"
449.356258377491,0,"AM04EN20b","2022_Feb_16_1043","MainTask",27,"Response",50,5,"loss",2,2.09766414776823,"post_reward"
451.378768612796,1,"AM04EN20b","2022_Feb_16_1043","MainTask",27,"Feedback",50,5,"loss",2,2.09766414776823,"post_reward"
452.412984800552,2.66494124455092,"AM04EN20b","2022_Feb_16_1043","MainTask",28,"Fixation",0,4,"reward",4,1.23444401174311,"post_loss"
455.065236422084,0.5,"AM04EN20b","2022_Feb_16_1043","MainTask",28,"Money",0,4,"reward",4,1.23444401174311,"post_loss"
455.56566012803,1.23444401174311,"AM04EN20b","2022_Feb_16_1043","MainTask",28,"Choice",0,4,"reward",4,1.23444401174311,"post_loss"
456.800104139773,0,"AM04EN20b","2022_Feb_16_1043","MainTask",28,"Response",0,4,"reward",4,1.23444401174311,"post_loss"
458.81841844645,1,"AM04EN20b","2022_Feb_16_1043","MainTask",28,"Feedback",0,4,"reward",4,1.23444401174311,"post_loss"
459.819281902286,3.84281322486461,"AM04EN20b","2022_Feb_16_1043","MainTask",29,"Fixation",50,4,"loss",4,1.14829591448324,"post_reward"
463.639194477382,0.5,"AM04EN20b","2022_Feb_16_1043","MainTask",29,"Money",50,4,"loss",4,1.14829591448324,"post_reward"
464.139620516995,1.14829591448324,"AM04EN20b","2022_Feb_16_1043","MainTask",29,"Choice",50,4,"loss",4,1.14829591448324,"post_reward"
465.287916431478,0,"AM04EN20b","2022_Feb_16_1043","MainTask",29,"Response",50,4,"loss",4,1.14829591448324,"post_reward"
467.308983878755,1,"AM04EN20b","2022_Feb_16_1043","MainTask",29,"Feedback",50,4,"loss",4,1.14829591448324,"post_reward"
468.343274160356,4.12415465327778,"AM04EN20b","2022_Feb_16_1043","MainTask",30,"Fixation",50,5,"loss",4,1.05493912782185,"post_loss"
472.463369490546,0.5,"AM04EN20b","2022_Feb_16_1043","MainTask",30,"Money",50,5,"loss",4,1.05493912782185,"post_loss"
472.963792321369,1.05493912782185,"AM04EN20b","2022_Feb_16_1043","MainTask",30,"Choice",50,5,"loss",4,1.05493912782185,"post_loss"
474.01873144919,0,"AM04EN20b","2022_Feb_16_1043","MainTask",30,"Response",50,5,"loss",4,1.05493912782185,"post_loss"
476.03307094194,1,"AM04EN20b","2022_Feb_16_1043","MainTask",30,"Feedback",50,5,"loss",4,1.05493912782185,"post_loss"
477.050606388115,3.53709915643464,"AM04EN20b","2022_Feb_16_1043","MainTask",31,"Fixation",10,5,"reward",4,0.965191353188857,"post_loss"
480.586942564143,0.5,"AM04EN20b","2022_Feb_16_1043","MainTask",31,"Money",10,5,"reward",4,0.965191353188857,"post_loss"
481.087368312046,0.965191353188857,"AM04EN20b","2022_Feb_16_1043","MainTask",31,"Choice",10,5,"reward",4,0.965191353188857,"post_loss"
482.052559665235,0,"AM04EN20b","2022_Feb_16_1043","MainTask",31,"Response",10,5,"reward",4,0.965191353188857,"post_loss"
484.073244391548,1,"AM04EN20b","2022_Feb_16_1043","MainTask",31,"Feedback",10,5,"reward",4,0.965191353188857,"post_loss"
485.107458829054,2.82655831808373,"AM04EN20b","2022_Feb_16_1043","MainTask",32,"Fixation",50,4,"loss",4,0.668481965878527,"post_reward"
487.926520200053,0.5,"AM04EN20b","2022_Feb_16_1043","MainTask",32,"Money",50,4,"loss",4,0.668481965878527,"post_reward"
488.426946823081,0.668481965878527,"AM04EN20b","2022_Feb_16_1043","MainTask",32,"Choice",50,4,"loss",4,0.668481965878527,"post_reward"
489.09542878896,0,"AM04EN20b","2022_Feb_16_1043","MainTask",32,"Response",50,4,"loss",4,0.668481965878527,"post_reward"
491.129241836186,1,"AM04EN20b","2022_Feb_16_1043","MainTask",32,"Feedback",50,4,"loss",4,0.668481965878527,"post_reward"
492.163460357604,4.45564764652388,"AM04EN20b","2022_Feb_16_1043","MainTask",33,"Fixation",0,5,"reward",4,0.625237413891227,"post_loss"
496.600564163375,0.5,"AM04EN20b","2022_Feb_16_1043","MainTask",33,"Money",0,5,"reward",4,0.625237413891227,"post_loss"
497.100989036153,0.625237413891227,"AM04EN20b","2022_Feb_16_1043","MainTask",33,"Choice",0,5,"reward",4,0.625237413891227,"post_loss"
497.726226450044,0,"AM04EN20b","2022_Feb_16_1043","MainTask",33,"Response",0,5,"reward",4,0.625237413891227,"post_loss"
499.753246783554,1,"AM04EN20b","2022_Feb_16_1043","MainTask",33,"Feedback",0,5,"reward",4,0.625237413891227,"post_loss"
500.75409827936,3.7441302932828,"AM04EN20b","2022_Feb_16_1043","MainTask",34,"Fixation",0,4,"loss",4,0.804693582567779,"post_reward"
504.490609771929,0.5,"AM04EN20b","2022_Feb_16_1043","MainTask",34,"Money",0,4,"loss",4,0.804693582567779,"post_reward"
504.974362946075,0.804693582567779,"AM04EN20b","2022_Feb_16_1043","MainTask",34,"Choice",0,4,"loss",4,0.804693582567779,"post_reward"
505.779056528643,0,"AM04EN20b","2022_Feb_16_1043","MainTask",34,"Response",0,4,"loss",4,0.804693582567779,"post_reward"
507.810097765954,1,"AM04EN20b","2022_Feb_16_1043","MainTask",34,"Feedback",0,4,"loss",4,0.804693582567779,"post_reward"
508.810952762256,4.15527475684584,"AM04EN20b","2022_Feb_16_1043","MainTask",35,"Fixation",0,7,"reward",2,0.919623054853218,"post_loss"
512.947801761042,0.5,"AM04EN20b","2022_Feb_16_1043","MainTask",35,"Money",0,7,"reward",2,0.919623054853218,"post_loss"
513.448244719719,0.919623054853218,"AM04EN20b","2022_Feb_16_1043","MainTask",35,"Choice",0,7,"reward",2,0.919623054853218,"post_loss"
514.367867774572,0,"AM04EN20b","2022_Feb_16_1043","MainTask",35,"Response",0,7,"reward",2,0.919623054853218,"post_loss"
516.384058738333,1,"AM04EN20b","2022_Feb_16_1043","MainTask",35,"Feedback",0,7,"reward",2,0.919623054853218,"post_loss"
517.384919277089,3.50412948485698,"AM04EN20b","2022_Feb_16_1043","MainTask",36,"Fixation",10,4,"reward",4,1.92904143275337,"post_reward"
520.871208852755,0.5,"AM04EN20b","2022_Feb_16_1043","MainTask",36,"Money",10,4,"reward",4,1.92904143275337,"post_reward"
521.371635767491,1.92904143275337,"AM04EN20b","2022_Feb_16_1043","MainTask",36,"Choice",10,4,"reward",4,1.92904143275337,"post_reward"
523.300677200245,0,"AM04EN20b","2022_Feb_16_1043","MainTask",36,"Response",10,4,"reward",4,1.92904143275337,"post_reward"
525.308315575605,1,"AM04EN20b","2022_Feb_16_1043","MainTask",36,"Feedback",10,4,"reward",4,1.92904143275337,"post_reward"
526.342535555565,4.09775013961506,"AM04EN20b","2022_Feb_16_1043","MainTask",37,"Fixation",0,3,"reward",4,0.764738330582986,"post_reward"
530.429339412529,0.5,"AM04EN20b","2022_Feb_16_1043","MainTask",37,"Money",0,3,"reward",4,0.764738330582986,"post_reward"
530.929763993599,0.764738330582986,"AM04EN20b","2022_Feb_16_1043","MainTask",37,"Choice",0,3,"reward",4,0.764738330582986,"post_reward"
531.694502324182,0,"AM04EN20b","2022_Feb_16_1043","MainTask",37,"Response",0,3,"reward",4,0.764738330582986,"post_reward"
533.698785765231,1,"AM04EN20b","2022_Feb_16_1043","MainTask",37,"Feedback",0,3,"reward",4,0.764738330582986,"post_reward"
534.699643095197,3.22065598517576,"AM04EN20b","2022_Feb_16_1043","MainTask",38,"Fixation",0,4,"loss",4,1.08753662759227,"post_reward"
537.902361814249,0.5,"AM04EN20b","2022_Feb_16_1043","MainTask",38,"Money",0,4,"loss",4,1.08753662759227,"post_reward"
538.402796021686,1.08753662759227,"AM04EN20b","2022_Feb_16_1043","MainTask",38,"Choice",0,4,"loss",4,1.08753662759227,"post_reward"
539.490332649279,0,"AM04EN20b","2022_Feb_16_1043","MainTask",38,"Response",0,4,"loss",4,1.08753662759227,"post_reward"
541.522106948923,1,"AM04EN20b","2022_Feb_16_1043","MainTask",38,"Feedback",0,4,"loss",4,1.08753662759227,"post_reward"
542.522972155008,3.89916975338023,"AM04EN20b","2022_Feb_16_1043","MainTask",39,"Fixation",10,2,"reward",4,0.684144938064492,"post_loss"
546.409608863258,0.5,"AM04EN20b","2022_Feb_16_1043","MainTask",39,"Money",10,2,"reward",4,0.684144938064492,"post_loss"
546.910023234546,0.684144938064492,"AM04EN20b","2022_Feb_16_1043","MainTask",39,"Choice",10,2,"reward",4,0.684144938064492,"post_loss"
547.594168172611,0,"AM04EN20b","2022_Feb_16_1043","MainTask",39,"Response",10,2,"reward",4,0.684144938064492,"post_loss"
549.612320581316,1,"AM04EN20b","2022_Feb_16_1043","MainTask",39,"Feedback",10,2,"reward",4,0.684144938064492,"post_loss"
550.646539102736,4.27170031955091,"AM04EN20b","2022_Feb_16_1043","MainTask",40,"Fixation",50,5,"reward",2,1.13038970737398,"post_reward"
554.900154459414,0.5,"AM04EN20b","2022_Feb_16_1043","MainTask",40,"Money",50,5,"reward",2,1.13038970737398,"post_reward"
555.400579332192,1.13038970737398,"AM04EN20b","2022_Feb_16_1043","MainTask",40,"Choice",50,5,"reward",2,1.13038970737398,"post_reward"
556.530969039566,0,"AM04EN20b","2022_Feb_16_1043","MainTask",40,"Response",50,5,"reward",2,1.13038970737398,"post_reward"
558.536579460544,1,"AM04EN20b","2022_Feb_16_1043","MainTask",40,"Feedback",50,5,"reward",2,1.13038970737398,"post_reward"
559.570791564387,3.45697622164141,"AM04EN20b","2022_Feb_16_1043","MainTask",41,"Fixation",10,4,"reward",4,0.563337548514028,"post_reward"
563.007047666555,0.5,"AM04EN20b","2022_Feb_16_1043","MainTask",41,"Money",10,4,"reward",4,0.563337548514028,"post_reward"
563.507475164706,0.563337548514028,"AM04EN20b","2022_Feb_16_1043","MainTask",41,"Choice",10,4,"reward",4,0.563337548514028,"post_reward"
564.07081271322,0,"AM04EN20b","2022_Feb_16_1043","MainTask",41,"Response",10,4,"reward",4,0.563337548514028,"post_reward"
566.076325120293,1,"AM04EN20b","2022_Feb_16_1043","MainTask",41,"Feedback",10,4,"reward",4,0.563337548514028,"post_reward"
567.093858816219,3.66645782616355,"AM04EN20b","2022_Feb_16_1043","MainTask",42,"Fixation",10,5,"loss",4,0.775912499253536,"post_reward"
570.730261647537,0.5,"AM04EN20b","2022_Feb_16_1043","MainTask",42,"Money",10,5,"loss",4,0.775912499253536,"post_reward"
571.230728234568,0.775912499253536,"AM04EN20b","2022_Feb_16_1043","MainTask",42,"Choice",10,5,"loss",4,0.775912499253536,"post_reward"
572.006640733822,0,"AM04EN20b","2022_Feb_16_1043","MainTask",42,"Response",10,5,"loss",4,0.775912499253536,"post_reward"
574.033094278584,1,"AM04EN20b","2022_Feb_16_1043","MainTask",42,"Feedback",10,5,"loss",4,0.775912499253536,"post_reward"
575.067309882923,4.40918937452041,"AM04EN20b","2022_Feb_16_1043","MainTask",43,"Fixation",50,5,"reward",2,0.792973628133041,"post_loss"
579.471071166556,0.5,"AM04EN20b","2022_Feb_16_1043","MainTask",43,"Money",50,5,"reward",2,0.792973628133041,"post_loss"
579.971479120266,0.792973628133041,"AM04EN20b","2022_Feb_16_1043","MainTask",43,"Choice",50,5,"reward",2,0.792973628133041,"post_loss"
580.764452748399,0,"AM04EN20b","2022_Feb_16_1043","MainTask",43,"Response",50,5,"reward",2,0.792973628133041,"post_loss"
582.790544283471,1,"AM04EN20b","2022_Feb_16_1043","MainTask",43,"Feedback",50,5,"reward",2,0.792973628133041,"post_loss"
583.824763680013,4.08547503747024,"AM04EN20b","2022_Feb_16_1043","MainTask",44,"Fixation",10,3,"reward",4,0.687962521347799,"post_reward"
587.894883878316,0.5,"AM04EN20b","2022_Feb_16_1043","MainTask",44,"Money",10,3,"reward",4,0.687962521347799,"post_reward"
588.395312251592,0.687962521347799,"AM04EN20b","2022_Feb_16_1043","MainTask",44,"Choice",10,3,"reward",4,0.687962521347799,"post_reward"
589.08327477294,0,"AM04EN20b","2022_Feb_16_1043","MainTask",44,"Response",10,3,"reward",4,0.687962521347799,"post_reward"
591.097609014945,1,"AM04EN20b","2022_Feb_16_1043","MainTask",44,"Feedback",10,3,"reward",4,0.687962521347799,"post_reward"
592.115142419165,2.71029323734831,"AM04EN20b","2022_Feb_16_1043","MainTask",45,"Fixation",10,4,"reward",4,0.563267246874602,"post_reward"
594.817438599101,0.5,"AM04EN20b","2022_Feb_16_1043","MainTask",45,"Money",10,4,"reward",4,0.563267246874602,"post_reward"
595.317864347004,0.563267246874602,"AM04EN20b","2022_Feb_16_1043","MainTask",45,"Choice",10,4,"reward",4,0.563267246874602,"post_reward"
595.881131593878,0,"AM04EN20b","2022_Feb_16_1043","MainTask",45,"Response",10,4,"reward",4,0.563267246874602,"post_reward"
597.886715761131,1,"AM04EN20b","2022_Feb_16_1043","MainTask",45,"Feedback",10,4,"reward",4,0.563267246874602,"post_reward"
598.904252374139,2.68766260066477,"AM04EN20b","2022_Feb_16_1043","MainTask",46,"Fixation",50,6,"loss",2,0.671369000476261,"post_reward"
601.573186195792,0.5,"AM04EN20b","2022_Feb_16_1043","MainTask",46,"Money",50,6,"loss",2,0.671369000476261,"post_reward"
602.073611943695,0.671369000476261,"AM04EN20b","2022_Feb_16_1043","MainTask",46,"Choice",50,6,"loss",2,0.671369000476261,"post_reward"
602.744980944171,0,"AM04EN20b","2022_Feb_16_1043","MainTask",46,"Response",50,6,"loss",2,0.671369000476261,"post_reward"
604.775910457296,1,"AM04EN20b","2022_Feb_16_1043","MainTask",46,"Feedback",50,6,"loss",2,0.671369000476261,"post_reward"
605.81012518651,4.18030082971653,"AM04EN20b","2022_Feb_16_1043","MainTask",47,"Fixation",0,5,"reward",4,1.3500234095718,"post_loss"
609.980338877245,0.5,"AM04EN20b","2022_Feb_16_1043","MainTask",47,"Money",0,5,"reward",4,1.3500234095718,"post_loss"
610.480762291483,1.3500234095718,"AM04EN20b","2022_Feb_16_1043","MainTask",47,"Choice",0,5,"reward",4,1.3500234095718,"post_loss"
611.830785701055,0,"AM04EN20b","2022_Feb_16_1043","MainTask",47,"Response",0,5,"reward",4,1.3500234095718,"post_loss"
613.850299219535,1,"AM04EN20b","2022_Feb_16_1043","MainTask",47,"Feedback",0,5,"reward",4,1.3500234095718,"post_loss"
614.851150131924,2.70892226743154,"AM04EN20b","2022_Feb_16_1043","MainTask",48,"Fixation",0,5,"reward",4,0.659447767486199,"post_reward"
617.536765278574,0.5,"AM04EN20b","2022_Feb_16_1043","MainTask",48,"Money",0,5,"reward",4,0.659447767486199,"post_reward"
618.037191901602,0.659447767486199,"AM04EN20b","2022_Feb_16_1043","MainTask",48,"Choice",0,5,"reward",4,0.659447767486199,"post_reward"
618.696639669088,0,"AM04EN20b","2022_Feb_16_1043","MainTask",48,"Response",0,5,"reward",4,0.659447767486199,"post_reward"
620.706125431545,1,"AM04EN20b","2022_Feb_16_1043","MainTask",48,"Feedback",0,5,"reward",4,0.659447767486199,"post_reward"
621.70698305322,2.77708926777161,"AM04EN20b","2022_Feb_16_1043","MainTask",49,"Fixation",10,4,"loss",4,0.555073167672163,"post_reward"
624.476016201465,0.5,"AM04EN20b","2022_Feb_16_1043","MainTask",49,"Money",10,4,"loss",4,0.555073167672163,"post_reward"
624.976425030301,0.555073167672163,"AM04EN20b","2022_Feb_16_1043","MainTask",49,"Choice",10,4,"loss",4,0.555073167672163,"post_reward"
625.531498197974,0,"AM04EN20b","2022_Feb_16_1043","MainTask",49,"Response",10,4,"loss",4,0.555073167672163,"post_reward"
627.561958352841,1,"AM04EN20b","2022_Feb_16_1043","MainTask",49,"Feedback",10,4,"loss",4,0.555073167672163,"post_reward"
628.596228506585,3.27503706781149,"AM04EN20b","2022_Feb_16_1043","MainTask",50,"Fixation",10,5,"loss",4,0.525295026232925,"post_loss"
631.865617976217,0.5,"AM04EN20b","2022_Feb_16_1043","MainTask",50,"Money",10,5,"loss",4,0.525295026232925,"post_loss"
632.366044015827,0.525295026232925,"AM04EN20b","2022_Feb_16_1043","MainTask",50,"Choice",10,5,"loss",4,0.525295026232925,"post_loss"
632.89133904206,0,"AM04EN20b","2022_Feb_16_1043","MainTask",50,"Response",10,5,"loss",4,0.525295026232925,"post_loss"
634.901532779963,1,"AM04EN20b","2022_Feb_16_1043","MainTask",50,"Feedback",10,5,"loss",4,0.525295026232925,"post_loss"
635.919070851511,2.51105532228724,"AM04EN20b","2022_Feb_16_1043","MainTask",51,"Fixation",50,4,"reward",4,0.681573239869977,"post_loss"
638.421194340281,0.5,"AM04EN20b","2022_Feb_16_1043","MainTask",51,"Money",50,4,"reward",4,0.681573239869977,"post_loss"
638.921620088184,0.681573239869977,"AM04EN20b","2022_Feb_16_1043","MainTask",51,"Choice",50,4,"reward",4,0.681573239869977,"post_loss"
639.603193328054,0,"AM04EN20b","2022_Feb_16_1043","MainTask",51,"Response",50,4,"reward",4,0.681573239869977,"post_loss"
641.623918601785,1,"AM04EN20b","2022_Feb_16_1043","MainTask",51,"Feedback",50,4,"reward",4,0.681573239869977,"post_loss"
642.658132747583,4.23629230061377,"AM04EN20b","2022_Feb_16_1043","MainTask",52,"Fixation",50,5,"loss",2,0.971197038579703,"post_reward"
646.87838982989,0.5,"AM04EN20b","2022_Feb_16_1043","MainTask",52,"Money",50,5,"loss",2,0.971197038579703,"post_reward"
647.378813535837,0.971197038579703,"AM04EN20b","2022_Feb_16_1043","MainTask",52,"Choice",50,5,"loss",2,0.971197038579703,"post_reward"
648.350010574417,0,"AM04EN20b","2022_Feb_16_1043","MainTask",52,"Response",50,5,"loss",2,0.971197038579703,"post_reward"
650.381367731547,1,"AM04EN20b","2022_Feb_16_1043","MainTask",52,"Feedback",50,5,"loss",2,0.971197038579703,"post_reward"
651.415576918309,2.84549419346974,"AM04EN20b","2022_Feb_16_1043","MainTask",53,"Fixation",10,4,"reward",4,1.18909420274031,"post_loss"
654.251326323589,0.5,"AM04EN20b","2022_Feb_16_1043","MainTask",53,"Money",10,4,"reward",4,1.18909420274031,"post_loss"
654.751752654907,1.18909420274031,"AM04EN20b","2022_Feb_16_1043","MainTask",53,"Choice",10,4,"reward",4,1.18909420274031,"post_loss"
655.940846857648,0,"AM04EN20b","2022_Feb_16_1043","MainTask",53,"Response",10,4,"reward",4,1.18909420274031,"post_loss"
657.971157074577,1,"AM04EN20b","2022_Feb_16_1043","MainTask",53,"Feedback",10,4,"reward",4,1.18909420274031,"post_loss"
659.005372678916,2.70041623614974,"AM04EN20b","2022_Feb_16_1043","MainTask",54,"Fixation",0,4,"loss",4,2.80223565051529,"post_reward"
661.690986658732,0.5,"AM04EN20b","2022_Feb_16_1043","MainTask",54,"Money",0,4,"loss",4,2.80223565051529,"post_reward"
662.191413865175,2.80223565051529,"AM04EN20b","2022_Feb_16_1043","MainTask",54,"Choice",0,4,"loss",4,2.80223565051529,"post_reward"
664.993649515691,0,"AM04EN20b","2022_Feb_16_1043","MainTask",54,"Response",0,4,"loss",4,2.80223565051529,"post_reward"
667.012178811203,1,"AM04EN20b","2022_Feb_16_1043","MainTask",54,"Feedback",0,4,"loss",4,2.80223565051529,"post_reward"
668.013034682628,3.86919488503711,"AM04EN20b","2022_Feb_16_1043","MainTask",55,"Fixation",50,5,"loss",4,2.66971909973108,"post_loss"
671.866309324301,0.5,"AM04EN20b","2022_Feb_16_1043","MainTask",55,"Money",50,5,"loss",4,2.66971909973108,"post_loss"
672.366734197081,2.66971909973108,"AM04EN20b","2022_Feb_16_1043","MainTask",55,"Choice",50,5,"loss",4,2.66971909973108,"post_loss"
675.036453296812,0,"AM04EN20b","2022_Feb_16_1043","MainTask",55,"Response",50,5,"loss",4,2.66971909973108,"post_loss"
677.037374510843,1,"AM04EN20b","2022_Feb_16_1043","MainTask",55,"Feedback",50,5,"loss",4,2.66971909973108,"post_loss"
678.07158282248,2.71629006924363,"AM04EN20b","2022_Feb_16_1043","MainTask",56,"Fixation",0,4,"loss",4,0.487979732124586,"post_loss"
680.77388600341,0.5,"AM04EN20b","2022_Feb_16_1043","MainTask",56,"Money",0,4,"loss",4,0.487979732124586,"post_loss"
681.27431233473,0.487979732124586,"AM04EN20b","2022_Feb_16_1043","MainTask",56,"Choice",0,4,"loss",4,0.487979732124586,"post_loss"
681.762292066855,0,"AM04EN20b","2022_Feb_16_1043","MainTask",56,"Response",0,4,"loss",4,0.487979732124586,"post_loss"
683.776439323996,1,"AM04EN20b","2022_Feb_16_1043","MainTask",56,"Feedback",0,4,"loss",4,0.487979732124586,"post_loss"
684.777295195423,3.65089194575776,"AM04EN20b","2022_Feb_16_1043","MainTask",57,"Fixation",0,8,"reward",2,1.17297470745325,"post_loss"
688.413742658073,0.5,"AM04EN20b","2022_Feb_16_1043","MainTask",57,"Money",0,8,"reward",2,1.17297470745325,"post_loss"
688.914142152251,1.17297470745325,"AM04EN20b","2022_Feb_16_1043","MainTask",57,"Choice",0,8,"reward",2,1.17297470745325,"post_loss"
690.087116859704,0,"AM04EN20b","2022_Feb_16_1043","MainTask",57,"Response",0,8,"reward",2,1.17297470745325,"post_loss"
692.116866997172,1,"AM04EN20b","2022_Feb_16_1043","MainTask",57,"Feedback",0,8,"reward",2,1.17297470745325,"post_loss"
693.117721993474,3.58055032181218,"AM04EN20b","2022_Feb_16_1043","MainTask",58,"Fixation",50,4,"reward",4,1.3590850285218,"post_reward"
696.687420527787,0.5,"AM04EN20b","2022_Feb_16_1043","MainTask",58,"Money",50,4,"reward",4,1.3590850285218,"post_reward"
697.187847442523,1.3590850285218,"AM04EN20b","2022_Feb_16_1043","MainTask",58,"Choice",50,4,"reward",4,1.3590850285218,"post_reward"
698.546932471045,0,"AM04EN20b","2022_Feb_16_1043","MainTask",58,"Response",50,4,"reward",4,1.3590850285218,"post_reward"
700.557380870077,1,"AM04EN20b","2022_Feb_16_1043","MainTask",58,"Feedback",50,4,"reward",4,1.3590850285218,"post_reward"
701.591596474416,3.77756328423122,"AM04EN20b","2022_Feb_16_1043","MainTask",59,"Fixation",0,8,"reward",2,0.947867978769864,"post_reward"
705.361465074524,0.5,"AM04EN20b","2022_Feb_16_1043","MainTask",59,"Money",0,8,"reward",2,0.947867978769864,"post_reward"
705.86189198926,0.947867978769864,"AM04EN20b","2022_Feb_16_1043","MainTask",59,"Choice",0,8,"reward",2,0.947867978769864,"post_reward"
706.80975996803,0,"AM04EN20b","2022_Feb_16_1043","MainTask",59,"Response",0,8,"reward",2,0.947867978769864,"post_reward"
708.814403376813,1,"AM04EN20b","2022_Feb_16_1043","MainTask",59,"Feedback",0,8,"reward",2,0.947867978769864,"post_reward"
709.815255164327,22.0815251080403,"AM04EN20b","2022_Feb_16_1043","MainTask",1,"Break",NA,NA,NA,NA,22.0815251080403,NA
732.918238316728,2.59834163580495,"AM04EN20b","2022_Feb_16_1043","MainTask",60,"Fixation",0,4,"loss",4,0.576605889295024,NA
735.487090314271,0.5,"AM04EN20b","2022_Feb_16_1043","MainTask",60,"Money",0,4,"loss",4,0.576605889295024,NA
735.987516062174,0.576605889295024,"AM04EN20b","2022_Feb_16_1043","MainTask",60,"Choice",0,4,"loss",4,0.576605889295024,NA
736.564121951469,0,"AM04EN20b","2022_Feb_16_1043","MainTask",60,"Response",0,4,"loss",4,0.576605889295024,NA
738.589728376046,1,"AM04EN20b","2022_Feb_16_1043","MainTask",60,"Feedback",0,4,"loss",4,0.576605889295024,NA
739.590587164554,2.51879767123687,"AM04EN20b","2022_Feb_16_1043","MainTask",61,"Fixation",50,3,"loss",4,0.543848533510754,"post_loss"
742.092707736243,0.5,"AM04EN20b","2022_Feb_16_1043","MainTask",61,"Money",50,3,"loss",4,0.543848533510754,"post_loss"
742.593133775854,0.543848533510754,"AM04EN20b","2022_Feb_16_1043","MainTask",61,"Choice",50,3,"loss",4,0.543848533510754,"post_loss"
743.136982309365,0,"AM04EN20b","2022_Feb_16_1043","MainTask",61,"Response",50,3,"loss",4,0.543848533510754,"post_loss"
745.145303573277,1,"AM04EN20b","2022_Feb_16_1043","MainTask",61,"Feedback",50,3,"loss",4,0.543848533510754,"post_loss"
746.17951276004,3.62570610154964,"AM04EN20b","2022_Feb_16_1043","MainTask",62,"Fixation",10,5,"loss",4,1.92777571151237,"post_loss"
749.782582987295,0.5,"AM04EN20b","2022_Feb_16_1043","MainTask",62,"Money",10,5,"loss",4,1.92777571151237,"post_loss"
750.283009318613,1.92777571151237,"AM04EN20b","2022_Feb_16_1043","MainTask",62,"Choice",10,5,"loss",4,1.92777571151237,"post_loss"
752.210785030125,0,"AM04EN20b","2022_Feb_16_1043","MainTask",62,"Response",10,5,"loss",4,1.92777571151237,"post_loss"
754.219690876977,1,"AM04EN20b","2022_Feb_16_1043","MainTask",62,"Feedback",10,5,"loss",4,1.92777571151237,"post_loss"
755.237227781692,2.53264094340486,"AM04EN20b","2022_Feb_16_1043","MainTask",63,"Fixation",0,4,"reward",4,0.884193945015795,"post_loss"
757.756032303751,0.5,"AM04EN20b","2022_Feb_16_1043","MainTask",63,"Money",0,4,"reward",4,0.884193945015795,"post_loss"
758.256456301404,0.884193945015795,"AM04EN20b","2022_Feb_16_1043","MainTask",63,"Choice",0,4,"reward",4,0.884193945015795,"post_loss"
759.14065024642,0,"AM04EN20b","2022_Feb_16_1043","MainTask",63,"Response",0,4,"reward",4,0.884193945015795,"post_loss"
761.158924589092,1,"AM04EN20b","2022_Feb_16_1043","MainTask",63,"Feedback",0,4,"reward",4,0.884193945015795,"post_loss"
762.159776668315,3.14192409869529,"AM04EN20b","2022_Feb_16_1043","MainTask",64,"Fixation",10,4,"loss",4,0.717978404853056,"post_reward"
765.279096638502,0.5,"AM04EN20b","2022_Feb_16_1043","MainTask",64,"Money",10,4,"loss",4,0.717978404853056,"post_reward"
765.77952326153,0.717978404853056,"AM04EN20b","2022_Feb_16_1043","MainTask",64,"Choice",10,4,"loss",4,0.717978404853056,"post_reward"
766.497501666383,0,"AM04EN20b","2022_Feb_16_1043","MainTask",64,"Response",10,4,"loss",4,0.717978404853056,"post_reward"
768.515182966583,1,"AM04EN20b","2022_Feb_16_1043","MainTask",64,"Feedback",10,4,"loss",4,0.717978404853056,"post_reward"
769.549397987506,3.1367739566925,"AM04EN20b","2022_Feb_16_1043","MainTask",65,"Fixation",10,4,"reward",4,0.428188040845271,"post_loss"
772.668717665985,0.5,"AM04EN20b","2022_Feb_16_1043","MainTask",65,"Money",10,4,"reward",4,0.428188040845271,"post_loss"
773.169143413888,0.428188040845271,"AM04EN20b","2022_Feb_16_1043","MainTask",65,"Choice",10,4,"reward",4,0.428188040845271,"post_loss"
773.597331454734,0,"AM04EN20b","2022_Feb_16_1043","MainTask",65,"Response",10,4,"reward",4,0.428188040845271,"post_loss"
775.621223511085,1,"AM04EN20b","2022_Feb_16_1043","MainTask",65,"Feedback",10,4,"reward",4,0.428188040845271,"post_loss"
776.655434156388,2.90455452890147,"AM04EN20b","2022_Feb_16_1043","MainTask",66,"Fixation",50,4,"reward",4,0.439501062546697,"post_reward"
779.541228120073,0.5,"AM04EN20b","2022_Feb_16_1043","MainTask",66,"Money",50,4,"reward",4,0.439501062546697,"post_reward"
780.041675162664,0.439501062546697,"AM04EN20b","2022_Feb_16_1043","MainTask",66,"Choice",50,4,"reward",4,0.439501062546697,"post_reward"
780.48117622521,0,"AM04EN20b","2022_Feb_16_1043","MainTask",66,"Response",50,4,"reward",4,0.439501062546697,"post_reward"
782.49373892421,1,"AM04EN20b","2022_Feb_16_1043","MainTask",66,"Feedback",50,4,"reward",4,0.439501062546697,"post_reward"
783.5112749538,3.97021131202893,"AM04EN20b","2022_Feb_16_1043","MainTask",67,"Fixation",0,4,"reward",4,0.389952407831515,"post_reward"
787.464692094858,0.5,"AM04EN20b","2022_Feb_16_1043","MainTask",67,"Money",0,4,"reward",4,0.389952407831515,"post_reward"
787.965059209442,0.389952407831515,"AM04EN20b","2022_Feb_16_1043","MainTask",67,"Choice",0,4,"reward",4,0.389952407831515,"post_reward"
788.355011617274,0,"AM04EN20b","2022_Feb_16_1043","MainTask",67,"Response",0,4,"reward",4,0.389952407831515,"post_reward"
790.367103499475,1,"AM04EN20b","2022_Feb_16_1043","MainTask",67,"Feedback",0,4,"reward",4,0.389952407831515,"post_reward"
791.367955286989,4.0786140902318,"AM04EN20b","2022_Feb_16_1043","MainTask",68,"Fixation",0,4,"loss",4,0.397016701743269,"post_reward"
795.421401161289,0.5,"AM04EN20b","2022_Feb_16_1043","MainTask",68,"Money",0,4,"loss",4,0.397016701743269,"post_reward"
795.921827784317,0.397016701743269,"AM04EN20b","2022_Feb_16_1043","MainTask",68,"Choice",0,4,"loss",4,0.397016701743269,"post_reward"
796.318844486061,0,"AM04EN20b","2022_Feb_16_1043","MainTask",68,"Response",0,4,"loss",4,0.397016701743269,"post_reward"
798.340551357391,1,"AM04EN20b","2022_Feb_16_1043","MainTask",68,"Feedback",0,4,"loss",4,0.397016701743269,"post_reward"
799.341405770278,4.37210614503341,"AM04EN20b","2022_Feb_16_1043","MainTask",69,"Fixation",10,4,"loss",4,1.61211171835021,"post_loss"
803.695104409604,0.5,"AM04EN20b","2022_Feb_16_1043","MainTask",69,"Money",10,4,"loss",4,1.61211171835021,"post_loss"
804.195530449217,1.61211171835021,"AM04EN20b","2022_Feb_16_1043","MainTask",69,"Choice",10,4,"loss",4,1.61211171835021,"post_loss"
805.807642167567,0,"AM04EN20b","2022_Feb_16_1043","MainTask",69,"Response",10,4,"loss",4,1.61211171835021,"post_loss"
807.815276459014,1,"AM04EN20b","2022_Feb_16_1043","MainTask",69,"Feedback",10,4,"loss",4,1.61211171835021,"post_loss"
808.849492646768,3.14033877664299,"AM04EN20b","2022_Feb_16_1043","MainTask",70,"Fixation",50,5,"reward",4,3.16019818645145,"post_loss"
811.968810283292,0.5,"AM04EN20b","2022_Feb_16_1043","MainTask",70,"Money",50,5,"reward",4,3.16019818645145,"post_loss"
812.469234572654,3.16019818645145,"AM04EN20b","2022_Feb_16_1043","MainTask",70,"Choice",50,5,"reward",4,3.16019818645145,"post_loss"
815.629432759106,0,"AM04EN20b","2022_Feb_16_1043","MainTask",70,"Response",50,5,"reward",4,3.16019818645145,"post_loss"
817.65698283444,1,"AM04EN20b","2022_Feb_16_1043","MainTask",70,"Feedback",50,5,"reward",4,3.16019818645145,"post_loss"
818.691297036101,3.40648260648603,"AM04EN20b","2022_Feb_16_1043","MainTask",71,"Fixation",0,4,"reward",4,0.851758926630282,"post_reward"
822.094088390457,0.5,"AM04EN20b","2022_Feb_16_1043","MainTask",71,"Money",0,4,"reward",4,0.851758926630282,"post_reward"
822.594523764727,0.851758926630282,"AM04EN20b","2022_Feb_16_1043","MainTask",71,"Choice",0,4,"reward",4,0.851758926630282,"post_reward"
823.446282691357,0,"AM04EN20b","2022_Feb_16_1043","MainTask",71,"Response",0,4,"reward",4,0.851758926630282,"post_reward"
825.463622984844,1,"AM04EN20b","2022_Feb_16_1043","MainTask",71,"Feedback",0,4,"reward",4,0.851758926630282,"post_reward"
826.464532238844,3.78358736535889,"AM04EN20b","2022_Feb_16_1043","MainTask",72,"Fixation",10,5,"loss",2,1.07931775320685,"post_reward"
830.234347456379,0.5,"AM04EN20b","2022_Feb_16_1043","MainTask",72,"Money",10,5,"loss",2,1.07931775320685,"post_reward"
830.734771454034,1.07931775320685,"AM04EN20b","2022_Feb_16_1043","MainTask",72,"Choice",10,5,"loss",2,1.07931775320685,"post_reward"
831.814089207241,0,"AM04EN20b","2022_Feb_16_1043","MainTask",72,"Response",10,5,"loss",2,1.07931775320685,"post_reward"
833.837411849472,1,"AM04EN20b","2022_Feb_16_1043","MainTask",72,"Feedback",10,5,"loss",2,1.07931775320685,"post_reward"
834.87162161965,4.39791900779916,"AM04EN20b","2022_Feb_16_1043","MainTask",73,"Fixation",10,2,"loss",4,0.738788565628056,"post_loss"
839.258689618257,0.5,"AM04EN20b","2022_Feb_16_1043","MainTask",73,"Money",10,2,"loss",4,0.738788565628056,"post_loss"
839.75911536616,0.738788565628056,"AM04EN20b","2022_Feb_16_1043","MainTask",73,"Choice",10,2,"loss",4,0.738788565628056,"post_loss"
840.497903931788,0,"AM04EN20b","2022_Feb_16_1043","MainTask",73,"Response",10,2,"loss",4,0.738788565628056,"post_loss"
842.511456979626,1,"AM04EN20b","2022_Feb_16_1043","MainTask",73,"Feedback",10,2,"loss",4,0.738788565628056,"post_loss"
843.528993592632,2.90241332410338,"AM04EN20b","2022_Feb_16_1043","MainTask",74,"Fixation",50,4,"loss",4,0.562869357090676,"post_loss"
846.431459254949,0.5,"AM04EN20b","2022_Feb_16_1043","MainTask",74,"Money",50,4,"loss",4,0.562869357090676,"post_loss"
846.931884127727,0.562869357090676,"AM04EN20b","2022_Feb_16_1043","MainTask",74,"Choice",50,4,"loss",4,0.562869357090676,"post_loss"
847.494753484818,0,"AM04EN20b","2022_Feb_16_1043","MainTask",74,"Response",50,4,"loss",4,0.562869357090676,"post_loss"
849.500734958439,1,"AM04EN20b","2022_Feb_16_1043","MainTask",74,"Feedback",50,4,"loss",4,0.562869357090676,"post_loss"
850.51827098803,3.53955284851546,"AM04EN20b","2022_Feb_16_1043","MainTask",75,"Fixation",0,5,"loss",4,0.779218134905022,"post_loss"
854.037926422478,0.5,"AM04EN20b","2022_Feb_16_1043","MainTask",75,"Money",0,5,"loss",4,0.779218134905022,"post_loss"
854.538357421126,0.779218134905022,"AM04EN20b","2022_Feb_16_1043","MainTask",75,"Choice",0,5,"loss",4,0.779218134905022,"post_loss"
855.317575556031,0,"AM04EN20b","2022_Feb_16_1043","MainTask",75,"Response",0,5,"loss",4,0.779218134905022,"post_loss"
857.324063726541,1,"AM04EN20b","2022_Feb_16_1043","MainTask",75,"Feedback",0,5,"loss",4,0.779218134905022,"post_loss"
858.324915222347,3.07825444706603,"AM04EN20b","2022_Feb_16_1043","MainTask",76,"Fixation",10,5,"reward",4,0.586503835231269,"post_loss"
861.377502016432,0.5,"AM04EN20b","2022_Feb_16_1043","MainTask",76,"Money",10,5,"reward",4,0.586503835231269,"post_loss"
861.877928639458,0.586503835231269,"AM04EN20b","2022_Feb_16_1043","MainTask",76,"Choice",10,5,"reward",4,0.586503835231269,"post_loss"
862.46443247469,0,"AM04EN20b","2022_Feb_16_1043","MainTask",76,"Response",10,5,"reward",4,0.586503835231269,"post_loss"
864.496824611992,1,"AM04EN20b","2022_Feb_16_1043","MainTask",76,"Feedback",10,5,"reward",4,0.586503835231269,"post_loss"
865.531031465089,4.29376869430046,"AM04EN20b","2022_Feb_16_1043","MainTask",77,"Fixation",50,4,"reward",4,1.47079987806683,"post_reward"
869.818017639585,0.5,"AM04EN20b","2022_Feb_16_1043","MainTask",77,"Money",50,4,"reward",4,1.47079987806683,"post_reward"
870.318442804073,1.47079987806683,"AM04EN20b","2022_Feb_16_1043","MainTask",77,"Choice",50,4,"reward",4,1.47079987806683,"post_reward"
871.78924268214,0,"AM04EN20b","2022_Feb_16_1043","MainTask",77,"Response",50,4,"reward",4,1.47079987806683,"post_reward"
873.804746381726,1,"AM04EN20b","2022_Feb_16_1043","MainTask",77,"Feedback",50,4,"reward",4,1.47079987806683,"post_reward"
874.822278327405,3.00454657710424,"AM04EN20b","2022_Feb_16_1043","MainTask",78,"Fixation",10,5,"loss",4,1.25683202137589,"post_reward"
877.824830189449,0.5,"AM04EN20b","2022_Feb_16_1043","MainTask",78,"Money",10,5,"loss",4,1.25683202137589,"post_reward"
878.325233475833,1.25683202137589,"AM04EN20b","2022_Feb_16_1043","MainTask",78,"Choice",10,5,"loss",4,1.25683202137589,"post_reward"
879.582065497209,0,"AM04EN20b","2022_Feb_16_1043","MainTask",78,"Response",10,5,"loss",4,1.25683202137589,"post_reward"
881.611381864803,1,"AM04EN20b","2022_Feb_16_1043","MainTask",78,"Feedback",10,5,"loss",4,1.25683202137589,"post_reward"
882.645596010601,4.38429440994779,"AM04EN20b","2022_Feb_16_1043","MainTask",79,"Fixation",0,5,"loss",2,2.24844658169241,"post_loss"
887.015977141757,0.5,"AM04EN20b","2022_Feb_16_1043","MainTask",79,"Money",0,5,"loss",2,2.24844658169241,"post_loss"
887.5164043482,2.24844658169241,"AM04EN20b","2022_Feb_16_1043","MainTask",79,"Choice",0,5,"loss",2,2.24844658169241,"post_loss"
889.764850929892,0,"AM04EN20b","2022_Feb_16_1043","MainTask",79,"Response",0,5,"loss",2,2.24844658169241,"post_loss"
891.770021746835,1,"AM04EN20b","2022_Feb_16_1043","MainTask",79,"Feedback",0,5,"loss",2,2.24844658169241,"post_loss"
892.770874409474,2.69490794267587,"AM04EN20b","2022_Feb_16_1043","MainTask",80,"Fixation",0,5,"reward",4,0.557466340536848,"post_loss"
895.43980910625,0.5,"AM04EN20b","2022_Feb_16_1043","MainTask",80,"Money",0,5,"reward",4,0.557466340536848,"post_loss"
895.940236604401,0.557466340536848,"AM04EN20b","2022_Feb_16_1043","MainTask",80,"Choice",0,5,"reward",4,0.557466340536848,"post_loss"
896.497702944938,0,"AM04EN20b","2022_Feb_16_1043","MainTask",80,"Response",0,5,"reward",4,0.557466340536848,"post_loss"
898.525776636227,1,"AM04EN20b","2022_Feb_16_1043","MainTask",80,"Feedback",0,5,"reward",4,0.557466340536848,"post_loss"
899.526622881287,3.39336896675784,"AM04EN20b","2022_Feb_16_1043","MainTask",81,"Fixation",0,2,"loss",4,0.593987021908106,"post_reward"
902.896152516638,0.5,"AM04EN20b","2022_Feb_16_1043","MainTask",81,"Money",0,2,"loss",4,0.593987021908106,"post_reward"
903.396577972833,0.593987021908106,"AM04EN20b","2022_Feb_16_1043","MainTask",81,"Choice",0,2,"loss",4,0.593987021908106,"post_reward"
903.990564994741,0,"AM04EN20b","2022_Feb_16_1043","MainTask",81,"Response",0,2,"loss",4,0.593987021908106,"post_reward"
906.015473945366,1,"AM04EN20b","2022_Feb_16_1043","MainTask",81,"Feedback",0,2,"loss",4,0.593987021908106,"post_reward"
907.016329233376,4.18076381638605,"AM04EN20b","2022_Feb_16_1043","MainTask",82,"Fixation",0,4,"loss",4,0.608401191919256,"post_loss"
911.186536214826,0.5,"AM04EN20b","2022_Feb_16_1043","MainTask",82,"Money",0,4,"loss",4,0.608401191919256,"post_loss"
911.686964296392,0.608401191919256,"AM04EN20b","2022_Feb_16_1043","MainTask",82,"Choice",0,4,"loss",4,0.608401191919256,"post_loss"
912.295365488311,0,"AM04EN20b","2022_Feb_16_1043","MainTask",82,"Response",0,4,"loss",4,0.608401191919256,"post_loss"
914.305857351845,1,"AM04EN20b","2022_Feb_16_1043","MainTask",82,"Feedback",0,4,"loss",4,0.608401191919256,"post_loss"
915.306712056439,3.36691457549898,"AM04EN20b","2022_Feb_16_1043","MainTask",83,"Fixation",10,5,"reward",4,3.66015807659278,"post_loss"
918.659560950209,0.5,"AM04EN20b","2022_Feb_16_1043","MainTask",83,"Money",10,5,"reward",4,3.66015807659278,"post_loss"
919.15998553128,3.66015807659278,"AM04EN20b","2022_Feb_16_1043","MainTask",83,"Choice",10,5,"reward",4,3.66015807659278,"post_loss"
922.820143607873,0,"AM04EN20b","2022_Feb_16_1043","MainTask",83,"Response",10,5,"reward",4,3.66015807659278,"post_loss"
924.83147704914,1,"AM04EN20b","2022_Feb_16_1043","MainTask",83,"Feedback",10,5,"reward",4,3.66015807659278,"post_loss"
925.865693820311,3.4887441583325,"AM04EN20b","2022_Feb_16_1043","MainTask",84,"Fixation",0,5,"reward",4,0.462248748208367,"post_reward"
929.335284276791,0.5,"AM04EN20b","2022_Feb_16_1043","MainTask",84,"Money",0,5,"reward",4,0.462248748208367,"post_reward"
929.835733944754,0.462248748208367,"AM04EN20b","2022_Feb_16_1043","MainTask",84,"Choice",0,5,"reward",4,0.462248748208367,"post_reward"
930.297982692962,0,"AM04EN20b","2022_Feb_16_1043","MainTask",84,"Response",0,5,"reward",4,0.462248748208367,"post_reward"
932.304498284027,1,"AM04EN20b","2022_Feb_16_1043","MainTask",84,"Feedback",0,5,"reward",4,0.462248748208367,"post_reward"
933.305353863747,3.35966335461312,"AM04EN20b","2022_Feb_16_1043","MainTask",85,"Fixation",0,6,"reward",2,0.809871400504562,"post_reward"
936.658203340932,0.5,"AM04EN20b","2022_Feb_16_1043","MainTask",85,"Money",0,6,"reward",2,0.809871400504562,"post_reward"
937.141948930672,0.809871400504562,"AM04EN20b","2022_Feb_16_1043","MainTask",85,"Choice",0,6,"reward",2,0.809871400504562,"post_reward"
937.951820331176,0,"AM04EN20b","2022_Feb_16_1043","MainTask",85,"Response",0,6,"reward",2,0.809871400504562,"post_reward"
939.961019052911,1,"AM04EN20b","2022_Feb_16_1043","MainTask",85,"Feedback",0,6,"reward",2,0.809871400504562,"post_reward"
940.961868215052,3.99996463267688,"AM04EN20b","2022_Feb_16_1043","MainTask",86,"Fixation",0,4,"reward",4,0.570643668404955,"post_reward"
944.94858849766,0.5,"AM04EN20b","2022_Feb_16_1043","MainTask",86,"Money",0,4,"reward",4,0.570643668404955,"post_reward"
945.449015120686,0.570643668404955,"AM04EN20b","2022_Feb_16_1043","MainTask",86,"Choice",0,4,"reward",4,0.570643668404955,"post_reward"
946.019658789091,0,"AM04EN20b","2022_Feb_16_1043","MainTask",86,"Response",0,4,"reward",4,0.570643668404955,"post_reward"
948.034548443227,1,"AM04EN20b","2022_Feb_16_1043","MainTask",86,"Feedback",0,4,"reward",4,0.570643668404955,"post_reward"
949.035399063909,3.60186998051014,"AM04EN20b","2022_Feb_16_1043","MainTask",87,"Fixation",10,4,"reward",4,0.450282008760041,"post_reward"
952.621782715423,0.5,"AM04EN20b","2022_Feb_16_1043","MainTask",87,"Money",10,4,"reward",4,0.450282008760041,"post_reward"
953.122208463326,0.450282008760041,"AM04EN20b","2022_Feb_16_1043","MainTask",87,"Choice",10,4,"reward",4,0.450282008760041,"post_reward"
953.572490472086,0,"AM04EN20b","2022_Feb_16_1043","MainTask",87,"Response",10,4,"reward",4,0.450282008760041,"post_reward"
955.574292352727,1,"AM04EN20b","2022_Feb_16_1043","MainTask",87,"Feedback",10,4,"reward",4,0.450282008760041,"post_reward"
956.591828382318,4.24700227277949,"AM04EN20b","2022_Feb_16_1043","MainTask",88,"Fixation",50,8,"reward",2,0.606116826158541,"post_reward"
960.828762705709,0.5,"AM04EN20b","2022_Feb_16_1043","MainTask",88,"Money",50,8,"reward",2,0.606116826158541,"post_reward"
961.329189328735,0.606116826158541,"AM04EN20b","2022_Feb_16_1043","MainTask",88,"Choice",50,8,"reward",2,0.606116826158541,"post_reward"
961.935306154894,0,"AM04EN20b","2022_Feb_16_1043","MainTask",88,"Response",50,8,"reward",2,0.606116826158541,"post_reward"
963.948085009561,1,"AM04EN20b","2022_Feb_16_1043","MainTask",88,"Feedback",50,8,"reward",2,0.606116826158541,"post_reward"
964.965617246948,2.78591812801008,"AM04EN20b","2022_Feb_16_1043","MainTask",89,"Fixation",50,4,"loss",4,0.729096857283366,"post_reward"
967.734636684912,0.5,"AM04EN20b","2022_Feb_16_1043","MainTask",89,"Money",50,4,"loss",4,0.729096857283366,"post_reward"
968.235060682568,0.729096857283366,"AM04EN20b","2022_Feb_16_1043","MainTask",89,"Choice",50,4,"loss",4,0.729096857283366,"post_reward"
968.964157539851,0,"AM04EN20b","2022_Feb_16_1043","MainTask",89,"Response",50,4,"loss",4,0.729096857283366,"post_reward"
970.987403754574,1,"AM04EN20b","2022_Feb_16_1043","MainTask",89,"Feedback",50,4,"loss",4,0.729096857283366,"post_reward"
972.02161819208,3.27730755580893,"AM04EN20b","2022_Feb_16_1043","MainTask",90,"Fixation",10,5,"loss",4,0.658509342678371,"post_loss"
975.291071837484,0.5,"AM04EN20b","2022_Feb_16_1043","MainTask",90,"Money",10,5,"loss",4,0.658509342678371,"post_loss"
975.791488834146,0.658509342678371,"AM04EN20b","2022_Feb_16_1043","MainTask",90,"Choice",10,5,"loss",4,0.658509342678371,"post_loss"
976.449998176824,0,"AM04EN20b","2022_Feb_16_1043","MainTask",90,"Response",10,5,"loss",4,0.658509342678371,"post_loss"
978.46042673971,1,"AM04EN20b","2022_Feb_16_1043","MainTask",90,"Feedback",10,5,"loss",4,0.658509342678371,"post_loss"
979.477961019053,4.22048221684525,"AM04EN20b","2022_Feb_16_1043","MainTask",91,"Fixation",0,5,"reward",4,1.18384637486997,"post_loss"
983.681532692452,0.5,"AM04EN20b","2022_Feb_16_1043","MainTask",91,"Money",0,5,"reward",4,1.18384637486997,"post_loss"
984.181958440353,1.18384637486997,"AM04EN20b","2022_Feb_16_1043","MainTask",91,"Choice",0,5,"reward",4,1.18384637486997,"post_loss"
985.365804815223,0,"AM04EN20b","2022_Feb_16_1043","MainTask",91,"Response",0,5,"reward",4,1.18384637486997,"post_loss"
987.384684160399,1,"AM04EN20b","2022_Feb_16_1043","MainTask",91,"Feedback",0,5,"reward",4,1.18384637486997,"post_loss"
988.385535947913,2.94302938901146,"AM04EN20b","2022_Feb_16_1043","MainTask",92,"Fixation",0,4,"reward",4,0.557552977828891,"post_reward"
991.304685268889,0.5,"AM04EN20b","2022_Feb_16_1043","MainTask",92,"Money",0,4,"reward",4,0.557552977828891,"post_reward"
991.805107808004,0.557552977828891,"AM04EN20b","2022_Feb_16_1043","MainTask",92,"Choice",0,4,"reward",4,0.557552977828891,"post_reward"
992.362660785833,0,"AM04EN20b","2022_Feb_16_1043","MainTask",92,"Response",0,4,"reward",4,0.557552977828891,"post_reward"
994.373961847503,1,"AM04EN20b","2022_Feb_16_1043","MainTask",92,"Feedback",0,4,"reward",4,0.557552977828891,"post_reward"
995.374815676974,3.53690578811384,"AM04EN20b","2022_Feb_16_1043","MainTask",93,"Fixation",10,5,"reward",4,0.635609385415592,"post_reward"
998.894473153379,0.5,"AM04EN20b","2022_Feb_16_1043","MainTask",93,"Money",10,5,"reward",4,0.635609385415592,"post_reward"
999.394901234946,0.635609385415592,"AM04EN20b","2022_Feb_16_1043","MainTask",93,"Choice",10,5,"reward",4,0.635609385415592,"post_reward"
1000.03051062036,0,"AM04EN20b","2022_Feb_16_1043","MainTask",93,"Response",10,5,"reward",4,0.635609385415592,"post_reward"
1002.04715664868,1,"AM04EN20b","2022_Feb_16_1043","MainTask",93,"Feedback",10,5,"reward",4,0.635609385415592,"post_reward"
1003.08137429498,3.01056538457726,"AM04EN20b","2022_Feb_16_1043","MainTask",94,"Fixation",50,4,"reward",4,0.495993535749221,"post_reward"
1006.08392382336,0.5,"AM04EN20b","2022_Feb_16_1043","MainTask",94,"Money",50,4,"reward",4,0.495993535749221,"post_reward"
1006.58434694589,0.495993535749221,"AM04EN20b","2022_Feb_16_1043","MainTask",94,"Choice",50,4,"reward",4,0.495993535749221,"post_reward"
1007.08034048164,0,"AM04EN20b","2022_Feb_16_1043","MainTask",94,"Response",50,4,"reward",4,0.495993535749221,"post_reward"
1009.08649202106,1,"AM04EN20b","2022_Feb_16_1043","MainTask",94,"Feedback",50,4,"reward",4,0.495993535749221,"post_reward"
1010.12075021477,2.71785258961518,"AM04EN20b","2022_Feb_16_1043","MainTask",95,"Fixation",10,5,"reward",4,0.592775266657554,"post_reward"
1012.82298863651,0.5,"AM04EN20b","2022_Feb_16_1043","MainTask",95,"Money",10,5,"reward",4,0.592775266657554,"post_reward"
1013.3234210937,0.592775266657554,"AM04EN20b","2022_Feb_16_1043","MainTask",95,"Choice",10,5,"reward",4,0.592775266657554,"post_reward"
1013.91619636036,0,"AM04EN20b","2022_Feb_16_1043","MainTask",95,"Response",10,5,"reward",4,0.592775266657554,"post_reward"
1015.9256272817,1,"AM04EN20b","2022_Feb_16_1043","MainTask",95,"Feedback",10,5,"reward",4,0.592775266657554,"post_reward"
1016.94316126934,2.89921861696752,"AM04EN20b","2022_Feb_16_1043","MainTask",96,"Fixation",50,4,"reward",4,0.422359130536279,"post_reward"
1019.81226632362,0.5,"AM04EN20b","2022_Feb_16_1043","MainTask",96,"Money",50,4,"reward",4,0.422359130536279,"post_reward"
1020.31269177981,0.422359130536279,"AM04EN20b","2022_Feb_16_1043","MainTask",96,"Choice",50,4,"reward",4,0.422359130536279,"post_reward"
1020.73505091035,0,"AM04EN20b","2022_Feb_16_1043","MainTask",96,"Response",50,4,"reward",4,0.422359130536279,"post_reward"
1022.74809580276,1,"AM04EN20b","2022_Feb_16_1043","MainTask",96,"Feedback",50,4,"reward",4,0.422359130536279,"post_reward"
1023.76563474943,3.1298240121604,"AM04EN20b","2022_Feb_16_1043","MainTask",97,"Fixation",0,4,"reward",4,0.61620438232967,"post_reward"
1026.86827485316,0.5,"AM04EN20b","2022_Feb_16_1043","MainTask",97,"Money",0,4,"reward",4,0.61620438232967,"post_reward"
1027.3686944752,0.61620438232967,"AM04EN20b","2022_Feb_16_1043","MainTask",97,"Choice",0,4,"reward",4,0.61620438232967,"post_reward"
1027.98489885752,0,"AM04EN20b","2022_Feb_16_1043","MainTask",97,"Response",0,4,"reward",4,0.61620438232967,"post_reward"
1029.98758782236,1,"AM04EN20b","2022_Feb_16_1043","MainTask",97,"Feedback",0,4,"reward",4,0.61620438232967,"post_reward"
1030.98844748599,3.48746580477621,"AM04EN20b","2022_Feb_16_1043","MainTask",98,"Fixation",50,5,"reward",2,0.966249086588505,"post_reward"
1034.45805865374,0.5,"AM04EN20b","2022_Feb_16_1043","MainTask",98,"Money",50,5,"reward",2,0.966249086588505,"post_reward"
1034.95848119285,0.966249086588505,"AM04EN20b","2022_Feb_16_1043","MainTask",98,"Choice",50,5,"reward",2,0.966249086588505,"post_reward"
1035.92473027944,0,"AM04EN20b","2022_Feb_16_1043","MainTask",98,"Response",50,5,"reward",2,0.966249086588505,"post_reward"
1037.92767653077,1,"AM04EN20b","2022_Feb_16_1043","MainTask",98,"Feedback",50,5,"reward",2,0.966249086588505,"post_reward"
1038.94520760133,3.76133223202139,"AM04EN20b","2022_Feb_16_1043","MainTask",99,"Fixation",0,5,"reward",2,1.23940042326831,"post_reward"
1042.68171967731,0.5,"AM04EN20b","2022_Feb_16_1043","MainTask",99,"Money",0,5,"reward",2,1.23940042326831,"post_reward"
1043.18214542521,1.23940042326831,"AM04EN20b","2022_Feb_16_1043","MainTask",99,"Choice",0,5,"reward",2,1.23940042326831,"post_reward"
1044.42154584848,0,"AM04EN20b","2022_Feb_16_1043","MainTask",99,"Response",0,5,"reward",2,1.23940042326831,"post_reward"
1046.43491161975,1,"AM04EN20b","2022_Feb_16_1043","MainTask",99,"Feedback",0,5,"reward",2,1.23940042326831,"post_reward"
1047.43576253214,3.48791050028086,"AM04EN20b","2022_Feb_16_1043","MainTask",100,"Fixation",0,5,"loss",2,0.5325699333589,"post_reward"
1050.90539149409,0.5,"AM04EN20b","2022_Feb_16_1043","MainTask",100,"Money",0,5,"loss",2,0.5325699333589,"post_reward"
1051.40580615708,0.5325699333589,"AM04EN20b","2022_Feb_16_1043","MainTask",100,"Choice",0,5,"loss",2,0.5325699333589,"post_reward"
1051.93837609044,0,"AM04EN20b","2022_Feb_16_1043","MainTask",100,"Response",0,5,"loss",2,0.5325699333589,"post_reward"
1053.95797653792,1,"AM04EN20b","2022_Feb_16_1043","MainTask",100,"Feedback",0,5,"loss",2,0.5325699333589,"post_reward"
1054.95883036739,3.60491923361309,"AM04EN20b","2022_Feb_16_1043","MainTask",101,"Fixation",0,5,"reward",2,0.768618631100253,"post_loss"
1058.5452102267,0.5,"AM04EN20b","2022_Feb_16_1043","MainTask",101,"Money",0,5,"reward",2,0.768618631100253,"post_loss"
1059.04563976681,0.768618631100253,"AM04EN20b","2022_Feb_16_1043","MainTask",101,"Choice",0,5,"reward",2,0.768618631100253,"post_loss"
1059.81425839791,0,"AM04EN20b","2022_Feb_16_1043","MainTask",101,"Response",0,5,"reward",2,0.768618631100253,"post_loss"
1061.8480192294,1,"AM04EN20b","2022_Feb_16_1043","MainTask",101,"Feedback",0,5,"reward",2,0.768618631100253,"post_loss"
1062.84887364228,3.36742484401657,"AM04EN20b","2022_Feb_16_1043","MainTask",102,"Fixation",10,4,"reward",4,0.538909916178454,"post_reward"
1066.2017242863,0.5,"AM04EN20b","2022_Feb_16_1043","MainTask",102,"Money",10,4,"reward",4,0.538909916178454,"post_reward"
1066.70214974249,0.538909916178454,"AM04EN20b","2022_Feb_16_1043","MainTask",102,"Choice",10,4,"reward",4,0.538909916178454,"post_reward"
1067.24105965867,0,"AM04EN20b","2022_Feb_16_1043","MainTask",102,"Response",10,4,"reward",4,0.538909916178454,"post_reward"
1069.25432070675,1,"AM04EN20b","2022_Feb_16_1043","MainTask",102,"Feedback",10,4,"reward",4,0.538909916178454,"post_reward"
1070.2885368945,2.60390874225779,"AM04EN20b","2022_Feb_16_1043","MainTask",103,"Fixation",50,5,"reward",2,0.645423611142178,"post_reward"
1072.87406759167,0.5,"AM04EN20b","2022_Feb_16_1043","MainTask",103,"Money",50,5,"reward",2,0.645423611142178,"post_reward"
1073.37449246445,0.645423611142178,"AM04EN20b","2022_Feb_16_1043","MainTask",103,"Choice",50,5,"reward",2,0.645423611142178,"post_reward"
1074.01991607559,0,"AM04EN20b","2022_Feb_16_1043","MainTask",103,"Response",50,5,"reward",2,0.645423611142178,"post_reward"
1076.02674904502,1,"AM04EN20b","2022_Feb_16_1043","MainTask",103,"Feedback",50,5,"reward",2,0.645423611142178,"post_reward"
1077.06095969032,3.13209649313927,"AM04EN20b","2022_Feb_16_1043","MainTask",104,"Fixation",10,4,"reward",4,0.401074944174979,"post_reward"
1080.18028053563,0.5,"AM04EN20b","2022_Feb_16_1043","MainTask",104,"Money",10,4,"reward",4,0.401074944174979,"post_reward"
1080.68070540841,0.401074944174979,"AM04EN20b","2022_Feb_16_1043","MainTask",104,"Choice",10,4,"reward",4,0.401074944174979,"post_reward"
1081.08178035259,0,"AM04EN20b","2022_Feb_16_1043","MainTask",104,"Response",10,4,"reward",4,0.401074944174979,"post_reward"
1083.08274882332,1,"AM04EN20b","2022_Feb_16_1043","MainTask",104,"Feedback",10,4,"reward",4,0.401074944174979,"post_reward"
1084.10028514462,3.22575843169675,"AM04EN20b","2022_Feb_16_1043","MainTask",105,"Fixation",0,5,"loss",2,0.825166237125813,"post_reward"
1087.30300736417,0.5,"AM04EN20b","2022_Feb_16_1043","MainTask",105,"Money",0,5,"loss",2,0.825166237125813,"post_reward"
1087.80343223695,0.825166237125813,"AM04EN20b","2022_Feb_16_1043","MainTask",105,"Choice",0,5,"loss",2,0.825166237125813,"post_reward"
1088.62859847408,0,"AM04EN20b","2022_Feb_16_1043","MainTask",105,"Response",0,5,"loss",2,0.825166237125813,"post_reward"
1090.65586005014,1,"AM04EN20b","2022_Feb_16_1043","MainTask",105,"Feedback",0,5,"loss",2,0.825166237125813,"post_reward"
1091.65671096253,3.3915495712435,"AM04EN20b","2022_Feb_16_1043","MainTask",106,"Fixation",50,5,"loss",2,0.580763895877681,"post_loss"
1095.02624293155,0.5,"AM04EN20b","2022_Feb_16_1043","MainTask",106,"Money",50,5,"loss",2,0.580763895877681,"post_loss"
1095.52666809604,0.580763895877681,"AM04EN20b","2022_Feb_16_1043","MainTask",106,"Choice",50,5,"loss",2,0.580763895877681,"post_loss"
1096.10743199191,0,"AM04EN20b","2022_Feb_16_1043","MainTask",106,"Response",50,5,"loss",2,0.580763895877681,"post_loss"
1098.11219908491,1,"AM04EN20b","2022_Feb_16_1043","MainTask",106,"Feedback",50,5,"loss",2,0.580763895877681,"post_loss"
1099.14641556438,3.86077377820694,"AM04EN20b","2022_Feb_16_1043","MainTask",107,"Fixation",0,8,"loss",2,0.580153350923865,"post_loss"
1102.99969253971,0.5,"AM04EN20b","2022_Feb_16_1043","MainTask",107,"Money",0,8,"loss",2,0.580153350923865,"post_loss"
1103.5001177042,0.580153350923865,"AM04EN20b","2022_Feb_16_1043","MainTask",107,"Choice",0,8,"loss",2,0.580153350923865,"post_loss"
1104.08027105512,0,"AM04EN20b","2022_Feb_16_1043","MainTask",107,"Response",0,8,"loss",2,0.580153350923865,"post_loss"
1106.08566590385,1,"AM04EN20b","2022_Feb_16_1043","MainTask",107,"Feedback",0,8,"loss",2,0.580153350923865,"post_loss"
1107.08650543963,3.49153874902915,"AM04EN20b","2022_Feb_16_1043","MainTask",108,"Fixation",0,4,"reward",4,0.499564042314887,"post_loss"
1110.55611894104,0.5,"AM04EN20b","2022_Feb_16_1043","MainTask",108,"Money",0,4,"reward",4,0.499564042314887,"post_loss"
1111.05654439724,0.499564042314887,"AM04EN20b","2022_Feb_16_1043","MainTask",108,"Choice",0,4,"reward",4,0.499564042314887,"post_loss"
1111.55610843955,0,"AM04EN20b","2022_Feb_16_1043","MainTask",108,"Response",0,4,"reward",4,0.499564042314887,"post_loss"
1113.57535417004,1,"AM04EN20b","2022_Feb_16_1043","MainTask",108,"Feedback",0,4,"reward",4,0.499564042314887,"post_loss"
1114.5762150005,2.89902290941725,"AM04EN20b","2022_Feb_16_1043","MainTask",109,"Fixation",0,5,"loss",4,0.580541322633508,"post_reward"
1117.46199204512,0.5,"AM04EN20b","2022_Feb_16_1043","MainTask",109,"Money",0,5,"loss",4,0.580541322633508,"post_reward"
1117.96241983498,0.580541322633508,"AM04EN20b","2022_Feb_16_1043","MainTask",109,"Choice",0,5,"loss",4,0.580541322633508,"post_reward"
1118.54296115761,0,"AM04EN20b","2022_Feb_16_1043","MainTask",109,"Response",0,5,"loss",4,0.580541322633508,"post_reward"
1120.56463331569,1,"AM04EN20b","2022_Feb_16_1043","MainTask",109,"Feedback",0,5,"loss",4,0.580541322633508,"post_reward"
1121.56548772857,3.90579156561162,"AM04EN20b","2022_Feb_16_1043","MainTask",110,"Fixation",10,8,"loss",2,0.485263055028554,"post_loss"
1125.45212297828,0.5,"AM04EN20b","2022_Feb_16_1043","MainTask",110,"Money",10,8,"loss",2,0.485263055028554,"post_loss"
1125.95254814277,0.485263055028554,"AM04EN20b","2022_Feb_16_1043","MainTask",110,"Choice",10,8,"loss",2,0.485263055028554,"post_loss"
1126.4378111978,0,"AM04EN20b","2022_Feb_16_1043","MainTask",110,"Response",10,8,"loss",2,0.485263055028554,"post_loss"
1128.45467629887,1,"AM04EN20b","2022_Feb_16_1043","MainTask",110,"Feedback",10,8,"loss",2,0.485263055028554,"post_loss"
1129.48889452858,4.29788449070351,"AM04EN20b","2022_Feb_16_1043","MainTask",111,"Fixation",50,5,"reward",4,1.18830600758156,"post_loss"
1133.77587661916,0.5,"AM04EN20b","2022_Feb_16_1043","MainTask",111,"Money",50,5,"reward",4,1.18830600758156,"post_loss"
1134.27629507436,1.18830600758156,"AM04EN20b","2022_Feb_16_1043","MainTask",111,"Choice",50,5,"reward",4,1.18830600758156,"post_loss"
1135.46460108195,0,"AM04EN20b","2022_Feb_16_1043","MainTask",111,"Response",50,5,"reward",4,1.18830600758156,"post_loss"
1137.49569949403,1,"AM04EN20b","2022_Feb_16_1043","MainTask",111,"Feedback",50,5,"reward",4,1.18830600758156,"post_loss"
1138.52990809738,4.10444260557573,"AM04EN20b","2022_Feb_16_1043","MainTask",112,"Fixation",10,4,"loss",4,0.445279507363011,"post_reward"
1142.61672391437,0.5,"AM04EN20b","2022_Feb_16_1043","MainTask",112,"Money",10,4,"loss",4,0.445279507363011,"post_reward"
1143.11714762032,0.445279507363011,"AM04EN20b","2022_Feb_16_1043","MainTask",112,"Choice",10,4,"loss",4,0.445279507363011,"post_reward"
1143.56242712768,0,"AM04EN20b","2022_Feb_16_1043","MainTask",112,"Response",10,4,"loss",4,0.445279507363011,"post_reward"
1145.5859157518,1,"AM04EN20b","2022_Feb_16_1043","MainTask",112,"Feedback",10,4,"loss",4,0.445279507363011,"post_reward"
1146.62012435514,3.92836652749583,"AM04EN20b","2022_Feb_16_1043","MainTask",113,"Fixation",50,5,"reward",2,0.784679493070144,"post_loss"
1150.54013013096,0.5,"AM04EN20b","2022_Feb_16_1043","MainTask",113,"Money",50,5,"reward",2,0.784679493070144,"post_loss"
1151.04057746526,0.784679493070144,"AM04EN20b","2022_Feb_16_1043","MainTask",113,"Choice",50,5,"reward",2,0.784679493070144,"post_loss"
1151.82525695833,0,"AM04EN20b","2022_Feb_16_1043","MainTask",113,"Response",50,5,"reward",2,0.784679493070144,"post_loss"
1153.85962104207,1,"AM04EN20b","2022_Feb_16_1043","MainTask",113,"Feedback",50,5,"reward",2,0.784679493070144,"post_loss"
1154.8938363547,3.57251556583996,"AM04EN20b","2022_Feb_16_1043","MainTask",114,"Fixation",50,4,"loss",4,0.582802060042013,"post_reward"
1158.4468564811,0.5,"AM04EN20b","2022_Feb_16_1043","MainTask",114,"Money",50,4,"loss",4,0.582802060042013,"post_reward"
1158.94727989534,0.582802060042013,"AM04EN20b","2022_Feb_16_1043","MainTask",114,"Choice",50,4,"loss",4,0.582802060042013,"post_reward"
1159.53008195538,0,"AM04EN20b","2022_Feb_16_1043","MainTask",114,"Response",50,4,"loss",4,0.582802060042013,"post_reward"
1161.54949366775,1,"AM04EN20b","2022_Feb_16_1043","MainTask",114,"Feedback",50,4,"loss",4,0.582802060042013,"post_reward"
1162.58370489647,3.46291805908547,"AM04EN20b","2022_Feb_16_1043","MainTask",115,"Fixation",10,4,"reward",4,0.932853473586874,"post_loss"
1166.03664465729,0.5,"AM04EN20b","2022_Feb_16_1043","MainTask",115,"Money",10,4,"reward",4,0.932853473586874,"post_loss"
1166.53707011349,0.932853473586874,"AM04EN20b","2022_Feb_16_1043","MainTask",115,"Choice",10,4,"reward",4,0.932853473586874,"post_loss"
1167.46992358708,0,"AM04EN20b","2022_Feb_16_1043","MainTask",115,"Response",10,4,"reward",4,0.932853473586874,"post_loss"
1169.48958120933,1,"AM04EN20b","2022_Feb_16_1043","MainTask",115,"Feedback",10,4,"reward",4,0.932853473586874,"post_loss"
1170.5237903961,3.98325515199223,"AM04EN20b","2022_Feb_16_1043","MainTask",116,"Fixation",10,5,"reward",2,0.834491560157403,"post_reward"
1174.49383577128,0.5,"AM04EN20b","2022_Feb_16_1043","MainTask",116,"Money",10,5,"reward",2,0.834491560157403,"post_reward"
1174.99426297773,0.834491560157403,"AM04EN20b","2022_Feb_16_1043","MainTask",116,"Choice",10,5,"reward",2,0.834491560157403,"post_reward"
1175.82875453788,0,"AM04EN20b","2022_Feb_16_1043","MainTask",116,"Response",10,5,"reward",2,0.834491560157403,"post_reward"
1177.83001034105,1,"AM04EN20b","2022_Feb_16_1043","MainTask",116,"Feedback",10,5,"reward",2,0.834491560157403,"post_reward"
1178.86430033094,2.83803840310303,"AM04EN20b","2022_Feb_16_1043","MainTask",117,"Fixation",0,5,"loss",4,0.467889215116884,"post_reward"
1181.68328731639,0.5,"AM04EN20b","2022_Feb_16_1043","MainTask",117,"Money",0,5,"loss",4,0.467889215116884,"post_reward"
1182.18371218917,0.467889215116884,"AM04EN20b","2022_Feb_16_1043","MainTask",117,"Choice",0,5,"loss",4,0.467889215116884,"post_reward"
1182.65160140428,0,"AM04EN20b","2022_Feb_16_1043","MainTask",117,"Response",0,5,"loss",4,0.467889215116884,"post_reward"
1184.68584034527,1,"AM04EN20b","2022_Feb_16_1043","MainTask",117,"Feedback",0,5,"loss",4,0.467889215116884,"post_reward"
1185.68669475815,2.71311310534458,"AM04EN20b","2022_Feb_16_1043","MainTask",118,"Fixation",50,5,"reward",2,0.523026120998111,"post_loss"
1188.3889912298,0.5,"AM04EN20b","2022_Feb_16_1043","MainTask",118,"Money",50,5,"reward",2,0.523026120998111,"post_loss"
1188.88941756112,0.523026120998111,"AM04EN20b","2022_Feb_16_1043","MainTask",118,"Choice",50,5,"reward",2,0.523026120998111,"post_loss"
1189.41244368211,0,"AM04EN20b","2022_Feb_16_1043","MainTask",118,"Response",50,5,"reward",2,0.523026120998111,"post_loss"
1191.44158852537,1,"AM04EN20b","2022_Feb_16_1043","MainTask",118,"Feedback",50,5,"reward",2,0.523026120998111,"post_loss"
1192.47580208775,3.81193779987486,"AM04EN20b","2022_Feb_16_1043","MainTask",119,"Fixation",50,7,"reward",2,0.642818074813476,"post_reward"
1196.27903596323,0.5,"AM04EN20b","2022_Feb_16_1043","MainTask",119,"Money",50,7,"reward",2,0.642818074813476,"post_reward"
1196.77945996088,0.642818074813476,"AM04EN20b","2022_Feb_16_1043","MainTask",119,"Choice",50,7,"reward",2,0.642818074813476,"post_reward"
1197.4222780357,0,"AM04EN20b","2022_Feb_16_1043","MainTask",119,"Response",50,7,"reward",2,0.642818074813476,"post_reward"
1199.43171916682,1,"AM04EN20b","2022_Feb_16_1043","MainTask",119,"Feedback",50,7,"reward",2,0.642818074813476,"post_reward"
1200.46592981213,41.7479452814023,"AM04EN20b","2022_Feb_16_1043","MainTask",2,"Break",NA,NA,NA,NA,41.7479452814023,"post_break"
1243.23564264013,4.39759893745399,"AM04EN20b","2022_Feb_16_1043","MainTask",120,"Fixation",0,6,"loss",2,0.806719494996287,NA
1247.60602902203,0.5,"AM04EN20b","2022_Feb_16_1043","MainTask",120,"Money",0,6,"loss",2,0.806719494996287,NA
1248.1064536031,0.806719494996287,"AM04EN20b","2022_Feb_16_1043","MainTask",120,"Choice",0,6,"loss",2,0.806719494996287,NA
1248.9131730981,0,"AM04EN20b","2022_Feb_16_1043","MainTask",120,"Response",0,6,"loss",2,0.806719494996287,NA
1250.94219950789,1,"AM04EN20b","2022_Feb_16_1043","MainTask",120,"Feedback",0,6,"loss",2,0.806719494996287,NA
1251.94305537932,2.59273224476569,"AM04EN20b","2022_Feb_16_1043","MainTask",121,"Fixation",50,4,"loss",4,0.522729453907232,"post_loss"
1254.5285828677,0.5,"AM04EN20b","2022_Feb_16_1043","MainTask",121,"Money",50,4,"loss",4,0.522729453907232,"post_loss"
1255.01232670718,0.522729453907232,"AM04EN20b","2022_Feb_16_1043","MainTask",121,"Choice",50,4,"loss",4,0.522729453907232,"post_loss"
1255.53505616109,0,"AM04EN20b","2022_Feb_16_1043","MainTask",121,"Response",50,4,"loss",4,0.522729453907232,"post_loss"
1257.5478183884,1,"AM04EN20b","2022_Feb_16_1043","MainTask",121,"Feedback",50,4,"loss",4,0.522729453907232,"post_loss"
1258.58205295376,4.49827153444131,"AM04EN20b","2022_Feb_16_1043","MainTask",122,"Fixation",50,5,"loss",2,0.574914857712429,"post_loss"
1263.05250074021,0.5,"AM04EN20b","2022_Feb_16_1043","MainTask",122,"Money",50,5,"loss",2,0.574914857712429,"post_loss"
1263.55292444616,0.574914857712429,"AM04EN20b","2022_Feb_16_1043","MainTask",122,"Choice",50,5,"loss",2,0.574914857712429,"post_loss"
1264.12783930387,0,"AM04EN20b","2022_Feb_16_1043","MainTask",122,"Response",50,5,"loss",2,0.574914857712429,"post_loss"
1266.13846185261,1,"AM04EN20b","2022_Feb_16_1043","MainTask",122,"Feedback",50,5,"loss",2,0.574914857712429,"post_loss"
1267.15599263145,3.90428797638389,"AM04EN20b","2022_Feb_16_1043","MainTask",123,"Fixation",0,5,"loss",4,0.726623756412664,"post_loss"
1271.04263021483,0.5,"AM04EN20b","2022_Feb_16_1043","MainTask",123,"Money",0,5,"loss",4,0.726623756412664,"post_loss"
1271.5430547959,0.726623756412664,"AM04EN20b","2022_Feb_16_1043","MainTask",123,"Choice",0,5,"loss",4,0.726623756412664,"post_loss"
1272.26967855231,0,"AM04EN20b","2022_Feb_16_1043","MainTask",123,"Response",0,5,"loss",4,0.726623756412664,"post_loss"
1274.27871537608,1,"AM04EN20b","2022_Feb_16_1043","MainTask",123,"Feedback",0,5,"loss",4,0.726623756412664,"post_loss"
1275.27957008067,2.6840168849899,"AM04EN20b","2022_Feb_16_1043","MainTask",124,"Fixation",0,4,"loss",4,0.488608362977175,"post_loss"
1277.94851207015,0.5,"AM04EN20b","2022_Feb_16_1043","MainTask",124,"Money",0,4,"loss",4,0.488608362977175,"post_loss"
1278.44892994193,0.488608362977175,"AM04EN20b","2022_Feb_16_1043","MainTask",124,"Choice",0,4,"loss",4,0.488608362977175,"post_loss"
1278.93753830491,0,"AM04EN20b","2022_Feb_16_1043","MainTask",124,"Response",0,4,"loss",4,0.488608362977175,"post_loss"
1280.95105751462,1,"AM04EN20b","2022_Feb_16_1043","MainTask",124,"Feedback",0,4,"loss",4,0.488608362977175,"post_loss"
1281.95191367775,4.3905534906372,"AM04EN20b","2022_Feb_16_1043","MainTask",125,"Fixation",10,4,"loss",4,0.487636100038799,"post_loss"
1286.32229655916,0.5,"AM04EN20b","2022_Feb_16_1043","MainTask",125,"Money",10,4,"loss",4,0.487636100038799,"post_loss"
1286.82272084852,0.487636100038799,"AM04EN20b","2022_Feb_16_1043","MainTask",125,"Choice",10,4,"loss",4,0.487636100038799,"post_loss"
1287.31035694856,0,"AM04EN20b","2022_Feb_16_1043","MainTask",125,"Response",10,4,"loss",4,0.487636100038799,"post_loss"
1289.32482858506,1,"AM04EN20b","2022_Feb_16_1043","MainTask",125,"Feedback",10,4,"loss",4,0.487636100038799,"post_loss"
1290.34238153371,3.0236798513923,"AM04EN20b","2022_Feb_16_1043","MainTask",126,"Fixation",0,4,"loss",2,0.87584321858958,"post_loss"
1293.34493310405,0.5,"AM04EN20b","2022_Feb_16_1043","MainTask",126,"Money",0,4,"loss",2,0.87584321858958,"post_loss"
1293.84536089391,0.87584321858958,"AM04EN20b","2022_Feb_16_1043","MainTask",126,"Choice",0,4,"loss",2,0.87584321858958,"post_loss"
1294.7212041125,0,"AM04EN20b","2022_Feb_16_1043","MainTask",126,"Response",0,4,"loss",2,0.87584321858958,"post_loss"
1296.73114844002,1,"AM04EN20b","2022_Feb_16_1043","MainTask",126,"Feedback",0,4,"loss",2,0.87584321858958,"post_loss"
1297.73200401974,3.27670859364277,"AM04EN20b","2022_Feb_16_1043","MainTask",127,"Fixation",50,2,"loss",4,0.542846224641835,"post_loss"
1301.00144628852,0.5,"AM04EN20b","2022_Feb_16_1043","MainTask",127,"Money",50,2,"loss",4,0.542846224641835,"post_loss"
1301.48519187826,0.542846224641835,"AM04EN20b","2022_Feb_16_1043","MainTask",127,"Choice",50,2,"loss",4,0.542846224641835,"post_loss"
1302.02803810291,0,"AM04EN20b","2022_Feb_16_1043","MainTask",127,"Response",50,2,"loss",4,0.542846224641835,"post_loss"
1304.0373619674,1,"AM04EN20b","2022_Feb_16_1043","MainTask",127,"Feedback",50,2,"loss",4,0.542846224641835,"post_loss"
1305.05489974723,2.61328060872708,"AM04EN20b","2022_Feb_16_1043","MainTask",128,"Fixation",50,4,"loss",4,2.76800050173915,"post_loss"
1307.64042723561,0.5,"AM04EN20b","2022_Feb_16_1043","MainTask",128,"Money",50,4,"loss",4,2.76800050173915,"post_loss"
1308.14085298352,2.76800050173915,"AM04EN20b","2022_Feb_16_1043","MainTask",128,"Choice",50,4,"loss",4,2.76800050173915,"post_loss"
1310.90885348526,0,"AM04EN20b","2022_Feb_16_1043","MainTask",128,"Response",50,4,"loss",4,2.76800050173915,"post_loss"
1312.91158008042,1,"AM04EN20b","2022_Feb_16_1043","MainTask",128,"Feedback",50,4,"loss",4,2.76800050173915,"post_loss"
1313.92911144269,4.08011913624734,"AM04EN20b","2022_Feb_16_1043","MainTask",129,"Fixation",10,5,"loss",4,1.04768376513312,"post_loss"
1317.98255819211,0.5,"AM04EN20b","2022_Feb_16_1043","MainTask",129,"Money",10,5,"loss",4,1.04768376513312,"post_loss"
1318.48298248147,1.04768376513312,"AM04EN20b","2022_Feb_16_1043","MainTask",129,"Choice",10,5,"loss",4,1.04768376513312,"post_loss"
1319.53066624661,0,"AM04EN20b","2022_Feb_16_1043","MainTask",129,"Response",10,5,"loss",4,1.04768376513312,"post_loss"
1321.53558094388,1,"AM04EN20b","2022_Feb_16_1043","MainTask",129,"Feedback",10,5,"loss",4,1.04768376513312,"post_loss"
1322.55311288956,2.76252041379262,"AM04EN20b","2022_Feb_16_1043","MainTask",130,"Fixation",50,5,"loss",2,0.677318969628686,"post_loss"
1325.28877288632,0.5,"AM04EN20b","2022_Feb_16_1043","MainTask",130,"Money",50,5,"loss",2,0.677318969628686,"post_loss"
1325.78919892593,0.677318969628686,"AM04EN20b","2022_Feb_16_1043","MainTask",130,"Choice",50,5,"loss",2,0.677318969628686,"post_loss"
1326.46651789556,0,"AM04EN20b","2022_Feb_16_1043","MainTask",130,"Response",50,5,"loss",2,0.677318969628686,"post_loss"
1328.4748149477,1,"AM04EN20b","2022_Feb_16_1043","MainTask",130,"Feedback",50,5,"loss",2,0.677318969628686,"post_loss"
1329.49234951875,3.29140608821105,"AM04EN20b","2022_Feb_16_1043","MainTask",131,"Fixation",0,5,"loss",4,0.586144742619581,"post_loss"
1332.76179470462,0.5,"AM04EN20b","2022_Feb_16_1043","MainTask",131,"Money",0,5,"loss",4,0.586144742619581,"post_loss"
1333.26222336961,0.586144742619581,"AM04EN20b","2022_Feb_16_1043","MainTask",131,"Choice",0,5,"loss",4,0.586144742619581,"post_loss"
1333.84836811223,0,"AM04EN20b","2022_Feb_16_1043","MainTask",131,"Response",0,5,"loss",4,0.586144742619581,"post_loss"
1335.86443510006,1,"AM04EN20b","2022_Feb_16_1043","MainTask",131,"Feedback",0,5,"loss",4,0.586144742619581,"post_loss"
1336.86528542904,3.33387238744123,"AM04EN20b","2022_Feb_16_1043","MainTask",132,"Fixation",10,4,"loss",4,0.649994092911584,"post_loss"
1340.18477546502,0.5,"AM04EN20b","2022_Feb_16_1043","MainTask",132,"Money",10,4,"loss",4,0.649994092911584,"post_loss"
1340.68520617196,0.649994092911584,"AM04EN20b","2022_Feb_16_1043","MainTask",132,"Choice",10,4,"loss",4,0.649994092911584,"post_loss"
1341.33520026487,0,"AM04EN20b","2022_Feb_16_1043","MainTask",132,"Response",10,4,"loss",4,0.649994092911584,"post_loss"
1343.3374580852,1,"AM04EN20b","2022_Feb_16_1043","MainTask",132,"Feedback",10,4,"loss",4,0.649994092911584,"post_loss"
1344.35499207283,3.33949565459042,"AM04EN20b","2022_Feb_16_1043","MainTask",133,"Fixation",0,4,"loss",4,0.619131672638105,"post_loss"
1347.67447948344,0.5,"AM04EN20b","2022_Feb_16_1043","MainTask",133,"Money",0,4,"loss",4,0.619131672638105,"post_loss"
1348.17490610647,0.619131672638105,"AM04EN20b","2022_Feb_16_1043","MainTask",133,"Choice",0,4,"loss",4,0.619131672638105,"post_loss"
1348.79403777911,0,"AM04EN20b","2022_Feb_16_1043","MainTask",133,"Response",0,4,"loss",4,0.619131672638105,"post_loss"
1350.81048019521,1,"AM04EN20b","2022_Feb_16_1043","MainTask",133,"Feedback",0,4,"loss",4,0.619131672638105,"post_loss"
1351.81133402468,2.94107437330327,"AM04EN20b","2022_Feb_16_1043","MainTask",134,"Fixation",10,5,"loss",4,1.14796599267538,"post_loss"
1354.73048217883,0.5,"AM04EN20b","2022_Feb_16_1043","MainTask",134,"Money",10,5,"loss",4,1.14796599267538,"post_loss"
1355.23090851014,1.14796599267538,"AM04EN20b","2022_Feb_16_1043","MainTask",134,"Choice",10,5,"loss",4,1.14796599267538,"post_loss"
1356.37887450282,0,"AM04EN20b","2022_Feb_16_1043","MainTask",134,"Response",10,5,"loss",4,1.14796599267538,"post_loss"
1358.38359054691,1,"AM04EN20b","2022_Feb_16_1043","MainTask",134,"Feedback",10,5,"loss",4,1.14796599267538,"post_loss"
1359.40112336771,4.26750537464191,"AM04EN20b","2022_Feb_16_1043","MainTask",135,"Fixation",0,5,"loss",4,0.389218762078599,"post_loss"
1363.63806002477,0.5,"AM04EN20b","2022_Feb_16_1043","MainTask",135,"Money",0,5,"loss",4,0.389218762078599,"post_loss"
1364.13848548096,0.389218762078599,"AM04EN20b","2022_Feb_16_1043","MainTask",135,"Choice",0,5,"loss",4,0.389218762078599,"post_loss"
1364.52770424304,0,"AM04EN20b","2022_Feb_16_1043","MainTask",135,"Response",0,5,"loss",4,0.389218762078599,"post_loss"
1366.54052831245,1,"AM04EN20b","2022_Feb_16_1043","MainTask",135,"Feedback",0,5,"loss",4,0.389218762078599,"post_loss"
1367.54138622584,2.66810130260368,"AM04EN20b","2022_Feb_16_1043","MainTask",136,"Fixation",10,4,"reward",4,0.430503035950096,"post_loss"
1370.19363405517,0.5,"AM04EN20b","2022_Feb_16_1043","MainTask",136,"Money",10,4,"reward",4,0.430503035950096,"post_loss"
1370.69406155332,0.430503035950096,"AM04EN20b","2022_Feb_16_1043","MainTask",136,"Choice",10,4,"reward",4,0.430503035950096,"post_loss"
1371.12456458927,0,"AM04EN20b","2022_Feb_16_1043","MainTask",136,"Response",10,4,"reward",4,0.430503035950096,"post_loss"
1373.14614894321,1,"AM04EN20b","2022_Feb_16_1043","MainTask",136,"Feedback",10,4,"reward",4,0.430503035950096,"post_loss"
1374.18036338072,2.54963103283038,"AM04EN20b","2022_Feb_16_1043","MainTask",137,"Fixation",50,5,"loss",2,0.680125201095507,"post_reward"
1376.71585068632,0.5,"AM04EN20b","2022_Feb_16_1043","MainTask",137,"Money",50,5,"loss",2,0.680125201095507,"post_reward"
1377.21629276987,0.680125201095507,"AM04EN20b","2022_Feb_16_1043","MainTask",137,"Choice",50,5,"loss",2,0.680125201095507,"post_reward"
1377.89641797097,0,"AM04EN20b","2022_Feb_16_1043","MainTask",137,"Response",50,5,"loss",2,0.680125201095507,"post_reward"
1379.91857582295,1,"AM04EN20b","2022_Feb_16_1043","MainTask",137,"Feedback",50,5,"loss",2,0.680125201095507,"post_reward"
1380.95278150921,3.84941671315907,"AM04EN20b","2022_Feb_16_1043","MainTask",138,"Fixation",0,5,"reward",2,0.733451766802318,"post_loss"
1384.78938474396,0.5,"AM04EN20b","2022_Feb_16_1043","MainTask",138,"Money",0,5,"reward",2,0.733451766802318,"post_loss"
1385.28980961674,0.733451766802318,"AM04EN20b","2022_Feb_16_1043","MainTask",138,"Choice",0,5,"reward",2,0.733451766802318,"post_loss"
1386.02326138354,0,"AM04EN20b","2022_Feb_16_1043","MainTask",138,"Response",0,5,"reward",2,0.733451766802318,"post_loss"
1388.04215239704,1,"AM04EN20b","2022_Feb_16_1043","MainTask",138,"Feedback",0,5,"reward",2,0.733451766802318,"post_loss"
1389.04300505968,3.53013400074587,"AM04EN20b","2022_Feb_16_1043","MainTask",139,"Fixation",10,3,"loss",4,1.62698007779909,"post_reward"
1392.5626634112,0.5,"AM04EN20b","2022_Feb_16_1043","MainTask",139,"Money",10,3,"loss",4,1.62698007779909,"post_reward"
1393.06308799228,1.62698007779909,"AM04EN20b","2022_Feb_16_1043","MainTask",139,"Choice",10,3,"loss",4,1.62698007779909,"post_reward"
1394.69006807007,0,"AM04EN20b","2022_Feb_16_1043","MainTask",139,"Response",10,3,"loss",4,1.62698007779909,"post_reward"
1396.71620044427,1,"AM04EN20b","2022_Feb_16_1043","MainTask",139,"Feedback",10,3,"loss",4,1.62698007779909,"post_reward"
1397.75040292175,3.17335751274486,"AM04EN20b","2022_Feb_16_1043","MainTask",140,"Fixation",50,7,"loss",2,0.642401224007699,"post_loss"
1400.90309079267,0.5,"AM04EN20b","2022_Feb_16_1043","MainTask",140,"Money",50,7,"loss",2,0.642401224007699,"post_loss"
1401.40351770741,0.642401224007699,"AM04EN20b","2022_Feb_16_1043","MainTask",140,"Choice",50,7,"loss",2,0.642401224007699,"post_loss"
1402.04591893142,0,"AM04EN20b","2022_Feb_16_1043","MainTask",140,"Response",50,7,"loss",2,0.642401224007699,"post_loss"
1404.05577195431,1,"AM04EN20b","2022_Feb_16_1043","MainTask",140,"Feedback",50,7,"loss",2,0.642401224007699,"post_loss"
1405.09003043973,4.09139871301799,"AM04EN20b","2022_Feb_16_1043","MainTask",141,"Fixation",0,4,"reward",4,0.506192816104885,"post_loss"
1409.16011417453,0.5,"AM04EN20b","2022_Feb_16_1043","MainTask",141,"Money",0,4,"reward",4,0.506192816104885,"post_loss"
1409.66054021414,0.506192816104885,"AM04EN20b","2022_Feb_16_1043","MainTask",141,"Choice",0,4,"reward",4,0.506192816104885,"post_loss"
1410.16673303025,0,"AM04EN20b","2022_Feb_16_1043","MainTask",141,"Response",0,4,"reward",4,0.506192816104885,"post_loss"
1412.1960298534,1,"AM04EN20b","2022_Feb_16_1043","MainTask",141,"Feedback",0,4,"reward",4,0.506192816104885,"post_loss"
1413.19688368287,2.62733663336726,"AM04EN20b","2022_Feb_16_1043","MainTask",142,"Fixation",50,4,"loss",4,0.496080756458468,"post_reward"
1415.79909482991,0.5,"AM04EN20b","2022_Feb_16_1043","MainTask",142,"Money",50,4,"loss",4,0.496080756458468,"post_reward"
1416.29952086952,0.496080756458468,"AM04EN20b","2022_Feb_16_1043","MainTask",142,"Choice",50,4,"loss",4,0.496080756458468,"post_reward"
1416.79560162598,0,"AM04EN20b","2022_Feb_16_1043","MainTask",142,"Response",50,4,"loss",4,0.496080756458468,"post_reward"
1418.81833093403,1,"AM04EN20b","2022_Feb_16_1043","MainTask",142,"Feedback",50,4,"loss",4,0.496080756458468,"post_reward"
1419.85254216275,2.7249640779834,"AM04EN20b","2022_Feb_16_1043","MainTask",143,"Fixation",0,4,"loss",4,0.54449466684855,"post_loss"
1422.57152316818,0.5,"AM04EN20b","2022_Feb_16_1043","MainTask",143,"Money",0,4,"loss",4,0.54449466684855,"post_loss"
1423.07194745755,0.54449466684855,"AM04EN20b","2022_Feb_16_1043","MainTask",143,"Choice",0,4,"loss",4,0.54449466684855,"post_loss"
1423.61644212439,0,"AM04EN20b","2022_Feb_16_1043","MainTask",143,"Response",0,4,"loss",4,0.54449466684855,"post_loss"
1425.62411900522,1,"AM04EN20b","2022_Feb_16_1043","MainTask",143,"Feedback",0,4,"loss",4,0.54449466684855,"post_loss"
1426.62497604348,2.65343421421596,"AM04EN20b","2022_Feb_16_1043","MainTask",144,"Fixation",0,5,"reward",4,0.444330872776845,"post_loss"
1429.2605460483,0.5,"AM04EN20b","2022_Feb_16_1043","MainTask",144,"Money",0,5,"reward",4,0.444330872776845,"post_loss"
1429.76097121279,0.444330872776845,"AM04EN20b","2022_Feb_16_1043","MainTask",144,"Choice",0,5,"reward",4,0.444330872776845,"post_loss"
1430.20530208557,0,"AM04EN20b","2022_Feb_16_1043","MainTask",144,"Response",0,5,"reward",4,0.444330872776845,"post_loss"
1432.22973817744,1,"AM04EN20b","2022_Feb_16_1043","MainTask",144,"Feedback",0,5,"reward",4,0.444330872776845,"post_loss"
1433.23059317374,3.24947800767196,"AM04EN20b","2022_Feb_16_1043","MainTask",145,"Fixation",10,5,"loss",4,0.629043620563607,"post_reward"
1436.46667425108,0.5,"AM04EN20b","2022_Feb_16_1043","MainTask",145,"Money",10,5,"loss",4,0.629043620563607,"post_reward"
1436.96709999898,0.629043620563607,"AM04EN20b","2022_Feb_16_1043","MainTask",145,"Choice",10,5,"loss",4,0.629043620563607,"post_reward"
1437.59614361954,0,"AM04EN20b","2022_Feb_16_1043","MainTask",145,"Response",10,5,"loss",4,0.629043620563607,"post_reward"
1439.61935570442,1,"AM04EN20b","2022_Feb_16_1043","MainTask",145,"Feedback",10,5,"loss",4,0.629043620563607,"post_reward"
1440.65357130876,2.55836081352792,"AM04EN20b","2022_Feb_16_1043","MainTask",146,"Fixation",0,5,"loss",4,0.377521560871173,"post_loss"
1443.18906940756,0.5,"AM04EN20b","2022_Feb_16_1043","MainTask",146,"Money",0,5,"loss",4,0.377521560871173,"post_loss"
1443.6894858208,0.377521560871173,"AM04EN20b","2022_Feb_16_1043","MainTask",146,"Choice",0,5,"loss",4,0.377521560871173,"post_loss"
1444.06700738167,0,"AM04EN20b","2022_Feb_16_1043","MainTask",146,"Response",0,5,"loss",4,0.377521560871173,"post_loss"
1446.07484761901,1,"AM04EN20b","2022_Feb_16_1043","MainTask",146,"Feedback",0,5,"loss",4,0.377521560871173,"post_loss"
1447.07570115677,3.85004962659295,"AM04EN20b","2022_Feb_16_1043","MainTask",147,"Fixation",50,5,"reward",2,0.618131405724853,"post_loss"
1450.91229797394,0.5,"AM04EN20b","2022_Feb_16_1043","MainTask",147,"Money",50,5,"reward",2,0.618131405724853,"post_loss"
1451.41272051306,0.618131405724853,"AM04EN20b","2022_Feb_16_1043","MainTask",147,"Choice",50,5,"reward",2,0.618131405724853,"post_loss"
1452.03085191878,0,"AM04EN20b","2022_Feb_16_1043","MainTask",147,"Response",50,5,"reward",2,0.618131405724853,"post_loss"
1454.06497738533,1,"AM04EN20b","2022_Feb_16_1043","MainTask",147,"Feedback",50,5,"reward",2,0.618131405724853,"post_loss"
1455.09918365501,3.53068524771225,"AM04EN20b","2022_Feb_16_1043","MainTask",148,"Fixation",10,5,"reward",2,0.569382031075293,"post_reward"
1458.61885163291,0.5,"AM04EN20b","2022_Feb_16_1043","MainTask",148,"Money",10,5,"reward",2,0.569382031075293,"post_reward"
1459.11928496522,0.569382031075293,"AM04EN20b","2022_Feb_16_1043","MainTask",148,"Choice",10,5,"reward",2,0.569382031075293,"post_reward"
1459.6886669963,0,"AM04EN20b","2022_Feb_16_1043","MainTask",148,"Response",10,5,"reward",2,0.569382031075293,"post_reward"
