SubsetIndex,rep_Practice,ImageFilePrac,ColourPrac,CorrAnsPrac,TriggerConditionPrac,TriggerSpecificPrac,Primer,Condition,ImageFile,Colour,CorrAns,TriggerCondition,TriggerSpecific,Blocks.thisRepN,Blocks.thisTrialN,Blocks.thisN,Blocks.thisIndex,Practices.thisRepN,Practices.thisTrialN,Practices.thisN,Practices.thisIndex,trials.thisRepN,trials.thisTrialN,trials.thisN,trials.thisIndex,CountdownLoop.thisRepN,CountdownLoop.thisTrialN,CountdownLoop.thisN,CountdownLoop.thisIndex,jitter,jitter_black,Fixation.started,Fixation.stopped,square1.started,square1.stopped,image_black_practice.started,image_black_practice.stopped,image_prompt_practice.started,image_prompt_practice.stopped,response_practice.keys,response_practice.corr,response_practice.rt,breakslide.keys,breakslide.rt,image_black.started,image_black.stopped,image_prompt.started,image_prompt.stopped,Response.keys,Response.corr,Response.started,Response.stopped,square2.started,square2.stopped,showReminder,Reminder_Errors_Resp.keys,Reminder_Errors_Resp.started,Reminder_Errors_Resp.stopped,Response.rt,break_slide.started,break_slide.stopped,participant,session,EEGPort,LogFilesFolder,date,expName,psychopyVersion,frameRate,
Subset1,5,PracticeStimuli/practice_yellow.png,yellow,3,9,0,PracticeStimuli/practice_black.png,Scramble,,,,,,0,0,0,0,0,0,0,3,,,,,,,,,1.023517663601854,1.3915143389415305,130.50834500000929,None,130.50834500000929,None,131.5537164999987,132.9489065000089,132.9489065000089,133.94984919999843,None,0,,,,,,,,,,,,,,,,,,,,,IA6LI11,1,Serial_COM3,C:\Users\EEG\Desktop\FINALCoScienceTasksLogfiles\,2022_Jan_05_1149,Stroop,2020.1.3,59.774863951697725,
Subset1,5,PracticeStimuli/practice_blue.png,blue,4,9,0,PracticeStimuli/practice_black.png,Scramble,,,,,,0,0,0,0,0,1,1,0,,,,,,,,,1.1661892393073399,1.4324066045776038,133.96814680000534,None,133.96814680000534,None,135.1502513000014,136.58557490000385,136.56865450000623,None,4,1,0.8762415000092005,,,,,,,,,,,,,,,,,,,,IA6LI11,1,Serial_COM3,C:\Users\EEG\Desktop\FINALCoScienceTasksLogfiles\,2022_Jan_05_1149,Stroop,2020.1.3,59.774863951697725,
Subset1,5,PracticeStimuli/practice_green.png,green,1,9,0,PracticeStimuli/practice_black.png,Scramble,,,,,,0,0,0,0,0,2,2,2,,,,,,,,,1.3580755644995388,1.2496220993811913,137.47146610000345,None,137.47146610000345,None,138.8536829000077,140.1051875000121,140.08815080000204,141.0889700000116,None,0,,,,,,,,,,,,,,,,,,,,,IA6LI11,1,Serial_COM3,C:\Users\EEG\Desktop\FINALCoScienceTasksLogfiles\,2022_Jan_05_1149,Stroop,2020.1.3,59.774863951697725,
Subset1,5,PracticeStimuli/practice_red.png,red,2,9,0,PracticeStimuli/practice_black.png,Scramble,,,,,,0,0,0,0,0,3,3,1,,,,,,,,,1.207914844752979,1.4404890330489004,141.10642260000168,None,141.10642260000168,None,142.32996490001096,143.77452520000224,143.77452520000224,None,2,1,0.7555126999941422,,,,,,,,,,,,,,,,,,,,IA6LI11,1,Serial_COM3,C:\Users\EEG\Desktop\FINALCoScienceTasksLogfiles\,2022_Jan_05_1149,Stroop,2020.1.3,59.774863951697725,
Subset1,5,PracticeStimuli/practice_yellow.png,yellow,3,9,0,PracticeStimuli/practice_black.png,Scramble,,,,,,0,0,0,0,1,0,4,3,,,,,,,,,1.13189704870537,1.3354000184215478,144.56085560000793,None,144.56085560000793,None,145.70651309999812,147.04428030000417,147.02721510000993,148.02798020000046,None,0,,,,,,,,,,,,,,,,,,,,,IA6LI11,1,Serial_COM3,C:\Users\EEG\Desktop\FINALCoScienceTasksLogfiles\,2022_Jan_05_1149,Stroop,2020.1.3,59.774863951697725,
Subset1,5,PracticeStimuli/practice_blue.png,blue,4,9,0,PracticeStimuli/practice_black.png,Scramble,,,,,,0,0,0,0,1,1,5,0,,,,,,,,,1.4967331670552857,1.0187921581411814,148.04509430000326,None,148.04509430000326,None,149.54995020000206,150.58057520000148,150.56355760000588,None,4,1,0.9476422000007005,,,,,,,,,,,,,,,,,,,,IA6LI11,1,Serial_COM3,C:\Users\EEG\Desktop\FINALCoScienceTasksLogfiles\,2022_Jan_05_1149,Stroop,2020.1.3,59.774863951697725,
Subset1,5,PracticeStimuli/practice_red.png,red,2,9,0,PracticeStimuli/practice_black.png,Scramble,,,,,,0,0,0,0,1,2,6,1,,,,,,,,,1.251732381156341,1.154896507468914,151.54383249999955,None,151.54383249999955,None,152.80733650000184,153.9666683000105,153.9497054000094,None,2,1,0.43610459999763407,,,,,,,,,,,,,,,,,,,,IA6LI11,1,Serial_COM3,C:\Users\EEG\Desktop\FINALCoScienceTasksLogfiles\,2022_Jan_05_1149,Stroop,2020.1.3,59.774863951697725,
Subset1,5,PracticeStimuli/practice_green.png,green,1,9,0,PracticeStimuli/practice_black.png,Scramble,,,,,,0,0,0,0,1,3,7,2,,,,,,,,,1.3942606241049644,1.116805009534724,154.41891980000946,None,154.41891980000946,None,155.82174620000296,156.95252120000077,156.9355993000063,157.93629969999893,None,0,,,,,,,,,,,,,,,,,,,,,IA6LI11,1,Serial_COM3,C:\Users\EEG\Desktop\FINALCoScienceTasksLogfiles\,2022_Jan_05_1149,Stroop,2020.1.3,59.774863951697725,
Subset1,5,PracticeStimuli/practice_yellow.png,yellow,3,9,0,PracticeStimuli/practice_black.png,Scramble,,,,,,0,0,0,0,2,0,8,3,,,,,,,,,1.3371351465209471,1.4188638218681349,157.95372270001099,None,157.95372270001099,None,159.31849859999784,160.73884910000197,160.72197959999903,None,3,1,0.44492999999783933,,,,,,,,,,,,,,,,,,,,IA6LI11,1,Serial_COM3,C:\Users\EEG\Desktop\FINALCoScienceTasksLogfiles\,2022_Jan_05_1149,Stroop,2020.1.3,59.774863951697725,
Subset1,5,PracticeStimuli/practice_blue.png,blue,4,9,0,PracticeStimuli/practice_black.png,Scramble,,,,,,0,0,0,0,2,1,9,0,,,,,,,,,1.3922323494139226,1.255570499418776,161.19104010000592,None,161.19104010000592,None,162.5943671999994,163.85841430000437,163.84130130000995,164.84219609999855,None,0,,,,,,,,,,,,,,,,,,,,,IA6LI11,1,Serial_COM3,C:\Users\EEG\Desktop\FINALCoScienceTasksLogfiles\,2022_Jan_05_1149,Stroop,2020.1.3,59.774863951697725,
Subset1,5,PracticeStimuli/practice_green.png,green,1,9,0,PracticeStimuli/practice_black.png,Scramble,,,,,,0,0,0,0,2,2,10,2,,,,,,,,,1.1246823130703572,1.311863825020267,164.85952150000958,None,164.85952150000958,None,165.99692109999887,167.3107200000086,167.3107200000086,168.31156320001173,None,0,,,,,,,,,,,,,,,,,,,,,IA6LI11,1,Serial_COM3,C:\Users\EEG\Desktop\FINALCoScienceTasksLogfiles\,2022_Jan_05_1149,Stroop,2020.1.3,59.774863951697725,
Subset1,5,PracticeStimuli/practice_red.png,red,2,9,0,PracticeStimuli/practice_black.png,Scramble,,,,,,0,0,0,0,2,3,11,1,,,,,,,,,1.280720883263091,1.3790810867249932,168.32912670000223,None,168.32912670000223,None,169.62160759999824,171.01334889999998,170.98018189999857,171.98131380000268,None,0,,,,,,,,,,,,,,,,,,,,,IA6LI11,1,Serial_COM3,C:\Users\EEG\Desktop\FINALCoScienceTasksLogfiles\,2022_Jan_05_1149,Stroop,2020.1.3,59.774863951697725,
Subset1,5,PracticeStimuli/practice_green.png,green,1,9,0,PracticeStimuli/practice_black.png,Scramble,,,,,,0,0,0,0,3,0,12,2,,,,,,,,,1.0806925574833588,1.348586142670805,171.99890730000334,None,171.99890730000334,None,173.09103500000492,174.4500776000059,174.4168168000033,175.41751430000295,None,0,,,,,,,,,,,,,,,,,,,,,IA6LI11,1,Serial_COM3,C:\Users\EEG\Desktop\FINALCoScienceTasksLogfiles\,2022_Jan_05_1149,Stroop,2020.1.3,59.774863951697725,
Subset1,5,PracticeStimuli/practice_yellow.png,yellow,3,9,0,PracticeStimuli/practice_black.png,Scramble,,,,,,0,0,0,0,3,1,13,3,,,,,,,,,1.0841538465249791,1.426790286758212,175.4352942000114,None,175.4352942000114,None,176.53128550000838,177.97000230000413,177.95294380000269,None,3,1,0.83709159999853,,,,,,,,,,,,,,,,,,,,IA6LI11,1,Serial_COM3,C:\Users\EEG\Desktop\FINALCoScienceTasksLogfiles\,2022_Jan_05_1149,Stroop,2020.1.3,59.774863951697725,
Subset1,5,PracticeStimuli/practice_red.png,red,2,9,0,PracticeStimuli/practice_black.png,Scramble,,,,,,0,0,0,0,3,2,14,1,,,,,,,,,1.075748105859696,1.3628198112828602,178.82260150001093,None,178.82260150001093,None,179.91380560000835,181.2891529000044,181.25590820000798,182.2565314000094,None,0,,,,,,,,,,,,,,,,,,,,,IA6LI11,1,Serial_COM3,C:\Users\EEG\Desktop\FINALCoScienceTasksLogfiles\,2022_Jan_05_1149,Stroop,2020.1.3,59.774863951697725,
Subset1,5,PracticeStimuli/practice_blue.png,blue,4,9,0,PracticeStimuli/practice_black.png,Scramble,,,,,,0,0,0,0,3,3,15,0,,,,,,,,,1.2113087837785963,1.0191972283809858,182.27394270000514,None,182.27394270000514,None,183.4999128000054,184.52540179999778,184.50843420000456,None,4,1,0.930805900003179,,,,,,,,,,,,,,,,,,,,IA6LI11,1,Serial_COM3,C:\Users\EEG\Desktop\FINALCoScienceTasksLogfiles\,2022_Jan_05_1149,Stroop,2020.1.3,59.774863951697725,
Subset1,5,PracticeStimuli/practice_blue.png,blue,4,9,0,PracticeStimuli/practice_black.png,Scramble,,,,,,0,0,0,0,4,0,16,0,,,,,,,,,1.067982624953242,1.3830592734726563,185.4612485000107,None,185.4612485000107,None,186.55708860000595,187.94485980000172,187.92785960000765,None,4,1,0.5351918999949703,,,,,,,,,,,,,,,,,,,,IA6LI11,1,Serial_COM3,C:\Users\EEG\Desktop\FINALCoScienceTasksLogfiles\,2022_Jan_05_1149,Stroop,2020.1.3,59.774863951697725,
Subset1,5,PracticeStimuli/practice_red.png,red,2,9,0,PracticeStimuli/practice_black.png,Scramble,,,,,,0,0,0,0,4,1,17,1,,,,,,,,,1.3601305652658515,1.1708548288707885,188.48037509999995,None,188.48037509999995,None,189.859881100012,191.03091529999801,191.01395600000978,None,2,1,0.8059402000071714,,,,,,,,,,,,,,,,,,,,IA6LI11,1,Serial_COM3,C:\Users\EEG\Desktop\FINALCoScienceTasksLogfiles\,2022_Jan_05_1149,Stroop,2020.1.3,59.774863951697725,
Subset1,5,PracticeStimuli/practice_green.png,green,1,9,0,PracticeStimuli/practice_black.png,Scramble,,,,,,0,0,0,0,4,2,18,2,,,,,,,,,1.1751329817356198,1.1954365345890956,191.86070650001056,None,191.86070650001056,None,193.06105420000677,194.2671876000095,194.24995460000355,195.250626500012,None,0,,,,,,,,,,,,,,,,,,,,,IA6LI11,1,Serial_COM3,C:\Users\EEG\Desktop\FINALCoScienceTasksLogfiles\,2022_Jan_05_1149,Stroop,2020.1.3,59.774863951697725,
Subset1,5,PracticeStimuli/practice_yellow.png,yellow,3,9,0,PracticeStimuli/practice_black.png,Scramble,,,,,,0,0,0,0,4,3,19,3,,,,,,,,,1.356104166787543,1.2922277354288676,195.26811800000723,None,195.26811800000723,None,196.64967490000708,197.95347170000605,197.93623980000848,None,3,1,0.3767399999924237,,,,,,,,,,,,,,,,,,,,IA6LI11,1,Serial_COM3,C:\Users\EEG\Desktop\FINALCoScienceTasksLogfiles\,2022_Jan_05_1149,Stroop,2020.1.3,59.774863951697725,
Subset1,5,,,,,,Stimuli/neutral_35.png,neutral_man_woman,Stimuli/neutral_34.png,blue,4,4,43,0,0,0,0,,,,,0,0,0,68,,,,,1.187069119842799,1.0544417077249144,213.7663928000111,None,213.7663928000111,None,,,,,,,,space,15.341149399988353,214.9860711000074,216.05131690000417,216.03457680001156,217.03543560000253,None,0,1.0598957400070503,2.0608242400048766,216.03457680001156,217.03543560000253,False,None,None,None,,,,IA6LI11,1,Serial_COM3,C:\Users\EEG\Desktop\FINALCoScienceTasksLogfiles\,2022_Jan_05_1149,Stroop,2020.1.3,59.774863951697725,
Subset1,5,,,,,,Stimuli/woman_85.png,erotic_woman,Stimuli/woman_81.png,green,1,7,78,0,0,0,0,,,,,0,1,1,88,,,,,1.2192873810646745,1.1893472057556815,217.05383540000184,None,217.05383540000184,None,,,,,,,,,,218.31206060000113,219.5045766000112,219.4875702999998,220.48829530000512,None,0,1.1991192099958425,2.199811709986534,219.4875702999998,220.48829530000512,False,None,None,None,,,,IA6LI11,1,Serial_COM3,C:\Users\EEG\Desktop\FINALCoScienceTasksLogfiles\,2022_Jan_05_1149,Stroop,2020.1.3,59.774863951697725,
Subset1,5,,,,,,Stimuli/man_15.png,erotic_man,Stimuli/man_11.png,green,1,3,31,0,0,0,0,,,,,0,2,2,90,,,,,1.246216398648093,1.1523781861876992,220.51043239999854,None,220.51043239999854,None,,,,,,,,,,221.77698680000321,222.9408584000048,222.92366480000783,None,1,1,1.157590840011835,None,222.92366480000783,None,False,None,None,None,0.7702432999940356,,,IA6LI11,1,Serial_COM3,C:\Users\EEG\Desktop\FINALCoScienceTasksLogfiles\,2022_Jan_05_1149,Stroop,2020.1.3,59.774863951697725,
Subset1,5,,,,,,Stimuli/neutral_65.png,neutral_man_woman,Stimuli/neutral_64.png,blue,4,4,46,0,0,0,0,,,,,0,3,3,16,,,,,1.1036786739257431,1.232897868648128,223.73241640000197,None,223.73241640000197,None,,,,,,,,,,224.86811229999876,226.1100790000055,226.09294130001217,227.09378870000364,None,0,1.246121009986382,2.2469517099962104,226.09294130001217,227.09378870000364,False,None,None,None,,,,IA6LI11,1,Serial_COM3,C:\Users\EEG\Desktop\FINALCoScienceTasksLogfiles\,2022_Jan_05_1149,Stroop,2020.1.3,59.774863951697725,
Subset1,5,,,,,,Stimuli/tree_35.png,tree,Stimuli/tree_33.png,yellow,3,1,13,0,0,0,0,,,,,0,4,4,80,,,,,1.1007083967734363,1.4785880817456138,227.11242180000409,None,227.11242180000409,None,,,,,,,,,,228.24998659999983,229.72937070000626,229.72937070000626,230.73013979999814,None,0,1.490001440019114,2.4907272400159854,229.72937070000626,230.73013979999814,False,None,None,None,,,,IA6LI11,1,Serial_COM3,C:\Users\EEG\Desktop\FINALCoScienceTasksLogfiles\,2022_Jan_05_1149,Stroop,2020.1.3,59.774863951697725,
Subset1,5,,,,,,Stimuli/man_45.png,erotic_man,Stimuli/man_43.png,yellow,3,3,34,0,0,0,0,,,,,0,5,5,10,,,,,1.360521285744826,1.1794555568415594,230.75094260000333,None,230.75094260000333,None,,,,,,,,,,232.14867480000248,233.33269540000765,233.31572560001223,None,3,1,1.1817415099940263,None,233.31572560001223,None,False,None,None,None,0.6550747000001138,,,IA6LI11,1,Serial_COM3,C:\Users\EEG\Desktop\FINALCoScienceTasksLogfiles\,2022_Jan_05_1149,Stroop,2020.1.3,59.774863951697725,
Subset1,5,,,,,,Stimuli/woman_65.png,erotic_woman,Stimuli/woman_61.png,green,1,7,76,0,0,0,0,,,,,0,6,6,35,,,,,1.058379590964578,1.1931101361227041,234.00727110001026,None,234.00727110001026,None,,,,,,,,,,235.08882420000737,236.2844688000041,236.2844688000041,237.28566280000086,None,0,1.206051640008809,2.2073299400071846,236.2844688000041,237.28566280000086,False,None,None,None,,,,IA6LI11,1,Serial_COM3,C:\Users\EEG\Desktop\FINALCoScienceTasksLogfiles\,2022_Jan_05_1149,Stroop,2020.1.3,59.774863951697725,
Subset1,5,,,,,,Stimuli/man_15.png,erotic_man,Stimuli/man_14.png,blue,4,3,31,0,0,0,0,,,,,0,7,7,0,,,,,1.1029362611219482,1.229762996532532,237.30622880000737,None,237.30622880000737,None,,,,,,,,,,238.45817850000458,239.68759320001118,239.68759320001118,240.68856249999953,None,0,1.2404258099995786,2.2413895099889487,239.68759320001118,240.68856249999953,False,None,None,None,,,,IA6LI11,1,Serial_COM3,C:\Users\EEG\Desktop\FINALCoScienceTasksLogfiles\,2022_Jan_05_1149,Stroop,2020.1.3,59.774863951697725,
Subset1,5,,,,,,Stimuli/neutral_couple_35.png,neutral_couple,Stimuli/neutral_couple_32.png,red,2,5,53,0,0,0,0,,,,,0,8,8,95,,,,,1.3960353018814164,1.205709571764286,240.7073473000055,None,240.7073473000055,None,,,,,,,,,,242.14122400000633,243.35770240001148,243.3407026000059,None,2,1,1.2135532099928241,None,243.3407026000059,None,False,None,None,None,0.8111203000007663,,,IA6LI11,1,Serial_COM3,C:\Users\EEG\Desktop\FINALCoScienceTasksLogfiles\,2022_Jan_05_1149,Stroop,2020.1.3,59.774863951697725,
Subset1,5,,,,,,Stimuli/couple_25.png,erotic_couple,Stimuli/couple_21.png,green,1,2,22,0,0,0,0,,,,,0,9,9,25,,,,,1.368201537972773,1.0992897208325059,244.17741780000506,None,244.17741780000506,None,,,,,,,,,,245.58223970000108,246.6938669000083,246.67680180000025,247.67757460000576,None,0,1.1034631399961654,2.1042219399969326,246.67680180000025,247.67757460000576,False,None,None,None,,,,IA6LI11,1,Serial_COM3,C:\Users\EEG\Desktop\FINALCoScienceTasksLogfiles\,2022_Jan_05_1149,Stroop,2020.1.3,59.774863951697725,
Subset1,5,,,,,,Stimuli/neutral_75.png,neutral_man_woman,Stimuli/neutral_74.png,blue,4,4,47,0,0,0,0,,,,,0,10,10,78,,,,,1.1799561073002254,1.1751013590317967,247.69661990000168,None,247.69661990000168,None,,,,,,,,,,248.9108738000068,250.09661980000965,250.0795908,251.08058619999792,None,0,1.1857967099931557,2.186778309987858,250.0795908,251.08058619999792,False,None,None,None,,,,IA6LI11,1,Serial_COM3,C:\Users\EEG\Desktop\FINALCoScienceTasksLogfiles\,2022_Jan_05_1149,Stroop,2020.1.3,59.774863951697725,
Subset1,5,,,,,,Stimuli/neutral_25.png,neutral_man_woman,Stimuli/neutral_23.png,yellow,3,4,42,0,0,0,0,,,,,0,11,11,32,,,,,1.047000583411867,1.3979268259330093,251.0995641000045,None,251.0995641000045,None,,,,,,,,,,252.18479480000678,253.5825068000122,253.5825068000122,None,3,1,1.4097927099937806,None,253.5825068000122,None,False,None,None,None,0.7129877000115812,,,IA6LI11,1,Serial_COM3,C:\Users\EEG\Desktop\FINALCoScienceTasksLogfiles\,2022_Jan_05_1149,Stroop,2020.1.3,59.774863951697725,
Subset1,5,,,,,,Stimuli/neutral_couple_15.png,neutral_couple,Stimuli/neutral_couple_11.png,green,1,5,51,0,0,0,0,,,,,0,12,12,53,,,,,1.3856356211164562,1.1896930580286496,254.32397320000746,None,254.32397320000746,None,,,,,,,,,,255.75038710000808,256.95229910001217,256.93542350000644,257.9361155000079,None,0,1.2010335099912481,2.2017015099991113,256.93542350000644,257.9361155000079,False,None,None,None,,,,IA6LI11,1,Serial_COM3,C:\Users\EEG\Desktop\FINALCoScienceTasksLogfiles\,2022_Jan_05_1149,Stroop,2020.1.3,59.774863951697725,
Subset1,5,,,,,,Stimuli/couple_35.png,erotic_couple,Stimuli/couple_32.png,red,2,2,23,0,0,0,0,,,,,0,13,13,59,,,,,1.2772273797596911,1.0263713525942246,257.95463050001126,None,257.95463050001126,None,,,,,,,,,,259.28792030000477,260.3218160000106,260.3046988999995,None,2,1,1.0324469799961662,None,260.3046988999995,None,False,None,None,None,0.9171744000050239,,,IA6LI11,1,Serial_COM3,C:\Users\EEG\Desktop\FINALCoScienceTasksLogfiles\,2022_Jan_05_1149,Stroop,2020.1.3,59.774863951697725,
Subset1,5,,,,,,Stimuli/woman_45.png,erotic_woman,Stimuli/woman_43.png,yellow,3,7,74,0,0,0,0,,,,,0,14,14,1,,,,,1.2309632659410752,1.4764590961711914,261.2463800000114,None,261.2463800000114,None,,,,,,,,,,262.52638390001084,264.0081906999985,263.9910780000064,None,3,1,1.4773132099944633,None,263.9910780000064,None,False,None,None,None,0.8158037000102922,,,IA6LI11,1,Serial_COM3,C:\Users\EEG\Desktop\FINALCoScienceTasksLogfiles\,2022_Jan_05_1149,Stroop,2020.1.3,59.774863951697725,
Subset1,5,,,,,,Stimuli/man_25.png,erotic_man,Stimuli/man_22.png,red,2,3,32,0,0,0,0,,,,,0,15,15,102,,,,,1.4351968300912756,1.0293165840288165,264.8274453000049,None,264.8274453000049,None,,,,,,,,,,266.29808360000607,267.3273052000004,267.3273052000004,None,2,1,1.0395668400014983,None,267.3273052000004,None,False,None,None,None,0.808741300003021,,,IA6LI11,1,Serial_COM3,C:\Users\EEG\Desktop\FINALCoScienceTasksLogfiles\,2022_Jan_05_1149,Stroop,2020.1.3,59.774863951697725,
Subset1,5,,,,,,Stimuli/positiv_85.png,positive_man_woman,Stimuli/positiv_81.png,green,1,6,68,0,0,0,0,,,,,0,16,16,50,,,,,1.4808518066816925,1.05713886755434,268.16359300000477,None,268.16359300000477,None,,,,,,,,,,269.6719849000074,270.7305480000068,270.7133385000052,None,1,1,1.0640828099858481,None,270.7133385000052,None,False,None,None,None,0.7405171999998856,,,IA6LI11,1,Serial_COM3,C:\Users\EEG\Desktop\FINALCoScienceTasksLogfiles\,2022_Jan_05_1149,Stroop,2020.1.3,59.774863951697725,
Subset1,5,,,,,,Stimuli/neutral_couple_25.png,neutral_couple,Stimuli/neutral_couple_22.png,red,2,5,52,0,0,0,0,,,,,0,17,17,31,,,,,1.1060310432449858,1.347422918557467,271.4874666000105,None,271.4874666000105,None,,,,,,,,,,272.63095020000765,273.9833532000048,273.9662573000096,None,4,0,1.3515258100087522,None,273.9662573000096,None,False,None,None,None,0.8490374000102747,,,IA6LI11,1,Serial_COM3,C:\Users\EEG\Desktop\FINALCoScienceTasksLogfiles\,2022_Jan_05_1149,Stroop,2020.1.3,59.774863951697725,
Subset1,5,,,,,,Stimuli/neutral_55.png,neutral_man_woman,Stimuli/neutral_51.png,green,1,4,45,0,0,0,0,,,,,0,18,18,56,,,,,1.438299238735087,1.4444218828120556,274.84032319999824,None,274.84032319999824,None,,,,,,,,,,276.3076025000046,277.75273600000946,277.75273600000946,None,3,0,1.4557141400000546,None,277.75273600000946,None,False,None,None,None,0.7924964999983786,,,IA6LI11,1,Serial_COM3,C:\Users\EEG\Desktop\FINALCoScienceTasksLogfiles\,2022_Jan_05_1149,Stroop,2020.1.3,59.774863951697725,
Subset1,5,,,,,,Stimuli/couple_35.png,erotic_couple,Stimuli/couple_32.png,red,2,2,23,0,0,0,0,,,,,0,19,19,83,,,,,1.1790227709329724,1.1375666111010365,278.5723613000009,None,278.5723613000009,None,,,,,,,,,,279.78254320000997,280.9222720000107,280.9052134000085,None,2,1,1.1450289100030204,None,280.9052134000085,None,False,None,None,None,0.867836300007184,,,IA6LI11,1,Serial_COM3,C:\Users\EEG\Desktop\FINALCoScienceTasksLogfiles\,2022_Jan_05_1149,Stroop,2020.1.3,59.774863951697725,
Subset1,5,,,,,,Stimuli/couple_45.png,erotic_couple,Stimuli/couple_43.png,yellow,3,2,24,0,0,0,0,,,,,0,20,20,44,,,,,1.2692455001987026,1.401069591938842,281.7967386000091,None,281.7967386000091,None,,,,,,,,,,283.0942221000005,284.508877100001,284.4916515000077,None,3,1,1.4084851399966283,None,284.4916515000077,None,False,None,None,None,0.6231157000001986,,,IA6LI11,1,Serial_COM3,C:\Users\EEG\Desktop\FINALCoScienceTasksLogfiles\,2022_Jan_05_1149,Stroop,2020.1.3,59.774863951697725,
Subset1,5,,,,,,Stimuli/neutral_25.png,neutral_man_woman,Stimuli/neutral_22.png,red,2,4,42,0,0,0,0,,,,,0,21,21,11,,,,,1.098529685102485,1.2472487530490883,285.1486664000113,None,285.1486664000113,None,,,,,,,,,,286.28321270000015,287.5444634000014,287.52750140000717,288.52821770000446,None,0,1.2535942400136264,2.2542924400040647,287.52750140000717,288.52821770000446,False,None,None,None,,,,IA6LI11,1,Serial_COM3,C:\Users\EEG\Desktop\FINALCoScienceTasksLogfiles\,2022_Jan_05_1149,Stroop,2020.1.3,59.774863951697725,
Subset1,5,,,,,,Stimuli/tree_25.png,tree,Stimuli/tree_22.png,red,2,1,12,0,0,0,0,,,,,0,22,22,43,,,,,1.0484623669514441,1.0850494684402485,288.54707130001043,None,288.54707130001043,None,,,,,,,,,,289.63184440000623,290.73037260001,290.713407800009,291.71417140000267,None,0,1.0943207099917345,2.09508900999208,290.713407800009,291.71417140000267,False,None,None,None,,,,IA6LI11,1,Serial_COM3,C:\Users\EEG\Desktop\FINALCoScienceTasksLogfiles\,2022_Jan_05_1149,Stroop,2020.1.3,59.774863951697725,
Subset1,5,,,,,,Stimuli/woman_55.png,erotic_woman,Stimuli/woman_53.png,yellow,3,7,75,0,0,0,0,,,,,0,23,23,51,,,,,1.2578969904541057,1.121865471174706,291.7325861999998,None,291.7325861999998,None,,,,,,,,,,293.02202840000973,294.1495328000019,294.1495328000019,295.15071040000475,None,0,1.1360083400068106,2.1371560400002636,294.1495328000019,295.15071040000475,False,None,None,None,,,,IA6LI11,1,Serial_COM3,C:\Users\EEG\Desktop\FINALCoScienceTasksLogfiles\,2022_Jan_05_1149,Stroop,2020.1.3,59.774863951697725,
Subset1,5,,,,,,Stimuli/neutral_couple_85.png,neutral_couple,Stimuli/neutral_couple_81.png,green,1,5,58,0,0,0,0,,,,,0,24,24,37,,,,,1.0173943185173224,1.2041871278951066,295.17175990001124,None,295.17175990001124,None,,,,,,,,,,296.2358430000022,297.45267270000477,297.4356153000117,298.43650020001223,None,0,1.2138133099942934,2.2146968099841615,297.4356153000117,298.43650020001223,False,None,None,None,,,,IA6LI11,1,Serial_COM3,C:\Users\EEG\Desktop\FINALCoScienceTasksLogfiles\,2022_Jan_05_1149,Stroop,2020.1.3,59.774863951697725,
Subset1,5,,,,,,Stimuli/positiv_75.png,positive_man_woman,Stimuli/positiv_72.png,red,2,6,67,0,0,0,0,,,,,0,25,25,30,,,,,1.3594195206197945,1.0049508779058909,298.4549204000068,None,298.4549204000068,None,,,,,,,,,,299.86594550000154,300.8725487000047,300.8551053000119,None,2,1,1.0103972800134216,None,300.8551053000119,None,False,None,None,None,0.8160438000049908,,,IA6LI11,1,Serial_COM3,C:\Users\EEG\Desktop\FINALCoScienceTasksLogfiles\,2022_Jan_05_1149,Stroop,2020.1.3,59.774863951697725,
Subset1,5,,,,,,Stimuli/positiv_25.png,positive_man_woman,Stimuli/positiv_21.png,green,1,6,62,0,0,0,0,,,,,0,26,26,5,,,,,1.438389048054759,1.3764665033998638,301.6922217000101,None,301.6922217000101,None,,,,,,,,,,303.1745710000105,304.55874590000894,304.54169399999955,None,1,1,1.3815372099925298,None,304.54169399999955,None,False,None,None,None,0.879719100004877,,,IA6LI11,1,Serial_COM3,C:\Users\EEG\Desktop\FINALCoScienceTasksLogfiles\,2022_Jan_05_1149,Stroop,2020.1.3,59.774863951697725,
Subset1,5,,,,,,Stimuli/tree_25.png,tree,Stimuli/tree_23.png,yellow,3,1,12,0,0,0,0,,,,,0,27,27,99,,,,,1.4422225577642624,1.3204727648116321,305.4446575000038,None,305.4446575000038,None,,,,,,,,,,306.9131597000087,308.2449236000102,308.228076600004,None,3,1,1.3268587400089018,None,308.228076600004,None,False,None,None,None,0.919712700007949,,,IA6LI11,1,Serial_COM3,C:\Users\EEG\Desktop\FINALCoScienceTasksLogfiles\,2022_Jan_05_1149,Stroop,2020.1.3,59.774863951697725,
Subset1,5,,,,,,Stimuli/woman_35.png,erotic_woman,Stimuli/woman_34.png,blue,4,7,73,0,0,0,0,,,,,0,28,28,98,,,,,1.1590389336646536,1.1250592740436498,309.18145390000427,None,309.18145390000427,None,,,,,,,,,,310.3759337000083,311.51438820001204,311.49728570001025,312.4982627999998,None,0,1.1399193100078264,2.140934709997964,311.49728570001025,312.4982627999998,False,None,None,None,,,,IA6LI11,1,Serial_COM3,C:\Users\EEG\Desktop\FINALCoScienceTasksLogfiles\,2022_Jan_05_1149,Stroop,2020.1.3,59.774863951697725,
Subset1,5,,,,,,Stimuli/neutral_65.png,neutral_man_woman,Stimuli/neutral_61.png,green,1,4,46,0,0,0,0,,,,,0,29,29,101,,,,,1.3368784162333465,1.248129914985487,312.5166167999996,None,312.5166167999996,None,,,,,,,,,,313.88715870000306,315.1507113999978,315.1336611000006,316.13447520000045,None,0,1.2575025400146842,2.258311940007843,315.1336611000006,316.13447520000045,False,None,None,None,,,,IA6LI11,1,Serial_COM3,C:\Users\EEG\Desktop\FINALCoScienceTasksLogfiles\,2022_Jan_05_1149,Stroop,2020.1.3,59.774863951697725,
Subset1,5,,,,,,Stimuli/neutral_45.png,neutral_man_woman,Stimuli/neutral_41.png,green,1,4,44,0,0,0,0,,,,,0,30,30,92,,,,,1.1563640201801795,1.301714833381529,316.156656200008,None,316.156656200008,None,,,,,,,,,,317.3386445000069,318.6529569999984,318.6362203000026,319.6375737000053,None,0,1.3090221400052542,2.310540439997567,318.6362203000026,319.6375737000053,False,None,None,None,,,,IA6LI11,1,Serial_COM3,C:\Users\EEG\Desktop\FINALCoScienceTasksLogfiles\,2022_Jan_05_1149,Stroop,2020.1.3,59.774863951697725,
Subset1,5,,,,,,Stimuli/man_65.png,erotic_man,Stimuli/man_64.png,blue,4,3,36,0,0,0,0,,,,,0,31,31,93,,,,,1.2209713135029205,1.013158346790818,319.65995260000636,None,319.65995260000636,None,,,,,,,,,,320.91041029999906,321.9227413000044,321.9227413000044,322.92344830000366,None,0,1.022452240009443,2.023117840013583,321.9227413000044,322.92344830000366,False,None,None,None,,,,IA6LI11,1,Serial_COM3,C:\Users\EEG\Desktop\FINALCoScienceTasksLogfiles\,2022_Jan_05_1149,Stroop,2020.1.3,59.774863951697725,
Subset1,5,,,,,,Stimuli/couple_45.png,erotic_couple,Stimuli/couple_44.png,blue,4,2,24,0,0,0,0,,,,,0,32,32,19,,,,,1.0729363784931245,1.0895240484475095,322.94503400000394,None,322.94503400000394,None,,,,,,,,,,324.04864050001197,325.14214530000754,325.14214530000754,None,4,1,1.1020810399932088,None,325.14214530000754,None,False,None,None,None,0.7406568000005791,,,IA6LI11,1,Serial_COM3,C:\Users\EEG\Desktop\FINALCoScienceTasksLogfiles\,2022_Jan_05_1149,Stroop,2020.1.3,59.774863951697725,
Subset1,5,,,,,,Stimuli/tree_35.png,tree,Stimuli/tree_34.png,blue,4,1,13,0,0,0,0,,,,,0,33,33,22,,,,,1.4561459594902553,1.4038613202175148,325.9124257000076,None,325.9124257000076,None,,,,,,,,,,327.4113362000062,328.8287670999998,328.8117142000119,None,4,1,1.4144763099902775,None,328.8117142000119,None,False,None,None,None,0.5881833000021288,,,IA6LI11,1,Serial_COM3,C:\Users\EEG\Desktop\FINALCoScienceTasksLogfiles\,2022_Jan_05_1149,Stroop,2020.1.3,59.774863951697725,
Subset1,5,,,,,,Stimuli/neutral_75.png,neutral_man_woman,Stimuli/neutral_74.png,blue,4,4,47,0,0,0,0,,,,,0,34,34,24,,,,,1.414616804919873,1.0295864273708364,329.4314321999991,None,329.4314321999991,None,,,,,,,,,,330.87172710000596,331.9142750000028,331.88102210000216,None,4,1,1.0337483099865494,None,331.88102210000216,None,False,None,None,None,0.3456494000129169,,,IA6LI11,1,Serial_COM3,C:\Users\EEG\Desktop\FINALCoScienceTasksLogfiles\,2022_Jan_05_1149,Stroop,2020.1.3,59.774863951697725,
Subset1,5,,,,,,Stimuli/neutral_couple_45.png,neutral_couple,Stimuli/neutral_couple_44.png,blue,4,5,54,0,0,0,0,,,,,0,35,35,81,,,,,1.3349917723240912,1.4465963419111358,332.2548766000109,None,332.2548766000109,None,,,,,,,,,,333.6386072000023,335.1006223000004,335.08373080000456,None,4,1,1.4551628099870868,None,335.08373080000456,None,False,None,None,None,0.47685389999242034,,,IA6LI11,1,Serial_COM3,C:\Users\EEG\Desktop\FINALCoScienceTasksLogfiles\,2022_Jan_05_1149,Stroop,2020.1.3,59.774863951697725,
Subset1,5,,,,,,Stimuli/neutral_45.png,neutral_man_woman,Stimuli/neutral_41.png,green,1,4,44,0,0,0,0,,,,,0,36,36,73,,,,,1.2634010349285933,1.3394910685010544,335.5869417000067,None,335.5869417000067,None,,,,,,,,,,336.8668392000109,338.2199072000076,338.2028428000049,339.20383250000305,None,0,1.3526460400025826,2.353635139996186,338.2028428000049,339.20383250000305,False,None,None,None,,,,IA6LI11,1,Serial_COM3,C:\Users\EEG\Desktop\FINALCoScienceTasksLogfiles\,2022_Jan_05_1149,Stroop,2020.1.3,59.774863951697725,
Subset1,5,,,,,,Stimuli/neutral_75.png,neutral_man_woman,Stimuli/neutral_72.png,red,2,4,47,0,0,0,0,,,,,0,37,37,74,,,,,1.300801628018755,1.4825847165833124,339.2246933999995,None,339.2246933999995,None,,,,,,,,,,340.55510440000216,342.03969170000346,342.02270719999797,None,2,1,1.4818990400090115,None,342.02270719999797,None,False,None,None,None,0.4940827999962494,,,IA6LI11,1,Serial_COM3,C:\Users\EEG\Desktop\FINALCoScienceTasksLogfiles\,2022_Jan_05_1149,Stroop,2020.1.3,59.774863951697725,
Subset1,5,,,,,,Stimuli/tree_65.png,tree,Stimuli/tree_64.png,blue,4,1,16,0,0,0,0,,,,,0,38,38,21,,,,,1.2172590460774357,1.0870662794035686,342.54232720000437,None,342.54232720000437,None,,,,,,,,,,343.8071695000108,344.90877270000055,344.8917339000036,345.89251430000877,None,0,1.1012634099897696,2.1020371099875774,344.8917339000036,345.89251430000877,False,None,None,None,,,,IA6LI11,1,Serial_COM3,C:\Users\EEG\Desktop\FINALCoScienceTasksLogfiles\,2022_Jan_05_1149,Stroop,2020.1.3,59.774863951697725,
Subset1,5,,,,,,Stimuli/man_45.png,erotic_man,Stimuli/man_42.png,red,2,3,34,0,0,0,0,,,,,0,39,39,107,,,,,1.3310726632898273,1.1869518746379855,345.91382200000226,None,345.91382200000226,None,,,,,,,,,,347.289886700004,348.47843990000547,348.46151370000734,349.4622149000061,None,0,1.1916491099837003,2.1923270099941874,348.46151370000734,349.4622149000061,False,None,None,None,,,,IA6LI11,1,Serial_COM3,C:\Users\EEG\Desktop\FINALCoScienceTasksLogfiles\,2022_Jan_05_1149,Stroop,2020.1.3,59.774863951697725,
Subset1,5,,,,,,Stimuli/tree_75.png,tree,Stimuli/tree_73.png,yellow,3,1,17,0,0,0,0,,,,,0,40,40,36,,,,,1.1207431816123377,1.382028992524309,349.48105240000586,None,349.48105240000586,None,,,,,,,,,,350.6334424000088,352.0313346000039,352.0144020000007,None,3,1,1.3924639400065644,None,352.0144020000007,None,False,None,None,None,0.7005910000007134,,,IA6LI11,1,Serial_COM3,C:\Users\EEG\Desktop\FINALCoScienceTasksLogfiles\,2022_Jan_05_1149,Stroop,2020.1.3,59.774863951697725,
Subset1,5,,,,,,Stimuli/neutral_couple_45.png,neutral_couple,Stimuli/neutral_couple_42.png,red,2,5,54,0,0,0,0,,,,,0,41,41,2,,,,,1.343244071703348,1.373355488252315,352.73858750000363,None,352.73858750000363,None,,,,,,,,,,354.1018689000048,355.484260000012,355.4672094999987,356.4680410000001,None,0,1.3790182399970945,2.3798466400039615,355.4672094999987,356.4680410000001,False,None,None,None,,,,IA6LI11,1,Serial_COM3,C:\Users\EEG\Desktop\FINALCoScienceTasksLogfiles\,2022_Jan_05_1149,Stroop,2020.1.3,59.774863951697725,
Subset1,5,,,,,,Stimuli/positiv_65.png,positive_man_woman,Stimuli/positiv_61.png,green,1,6,66,0,0,0,0,,,,,0,42,42,34,,,,,1.0453079996303898,1.3475782007859172,356.48860830000194,None,356.48860830000194,None,,,,,,,,,,357.57161080000515,358.91999160000705,358.91999160000705,None,1,1,1.3607890099956421,None,358.91999160000705,None,False,None,None,None,0.6709854000073392,,,IA6LI11,1,Serial_COM3,C:\Users\EEG\Desktop\FINALCoScienceTasksLogfiles\,2022_Jan_05_1149,Stroop,2020.1.3,59.774863951697725,
Subset1,5,,,,,,Stimuli/woman_65.png,erotic_woman,Stimuli/woman_64.png,blue,4,7,76,0,0,0,0,,,,,0,43,43,94,,,,,1.2258179094684423,1.135253444783924,359.6235813000094,None,359.6235813000094,None,,,,,,,,,,360.89042920000793,362.0396516000037,362.02260700000625,363.02359910000814,None,0,1.1450542099919403,2.1460695099958684,362.02260700000625,363.02359910000814,False,None,None,None,,,,IA6LI11,1,Serial_COM3,C:\Users\EEG\Desktop\FINALCoScienceTasksLogfiles\,2022_Jan_05_1149,Stroop,2020.1.3,59.774863951697725,
Subset1,5,,,,,,Stimuli/tree_25.png,tree,Stimuli/tree_21.png,green,1,1,12,0,0,0,0,,,,,0,44,44,49,,,,,1.0976355793934798,1.1608910863329815,363.041988099998,None,363.041988099998,None,,,,,,,,,,364.16106320000836,365.3257564000087,365.3087158999988,366.30954840000777,None,0,1.1604392400040524,2.1612672400078736,365.3087158999988,366.30954840000777,False,None,None,None,,,,IA6LI11,1,Serial_COM3,C:\Users\EEG\Desktop\FINALCoScienceTasksLogfiles\,2022_Jan_05_1149,Stroop,2020.1.3,59.774863951697725,
Subset1,5,,,,,,Stimuli/neutral_couple_35.png,neutral_couple,Stimuli/neutral_couple_33.png,yellow,3,5,53,0,0,0,0,,,,,0,45,45,67,,,,,1.1896186982746755,1.3717907261945192,366.3318789000041,None,366.3318789000041,None,,,,,,,,,,367.5443743000069,368.92875760000607,368.91165639999963,None,3,1,1.3825751399999717,None,368.91165639999963,None,False,None,None,None,0.39742500000284053,,,IA6LI11,1,Serial_COM3,C:\Users\EEG\Desktop\FINALCoScienceTasksLogfiles\,2022_Jan_05_1149,Stroop,2020.1.3,59.774863951697725,
Subset1,5,,,,,,Stimuli/woman_75.png,erotic_woman,Stimuli/woman_74.png,blue,4,7,77,0,0,0,0,,,,,0,46,46,6,,,,,1.1517113417039933,1.1760939834432993,369.33602080000855,None,369.33602080000855,None,,,,,,,,,,370.51807089999784,371.6974271000072,371.6974271000072,None,2,0,1.1894949400011683,None,371.6974271000072,None,False,None,None,None,0.9354391999950167,,,IA6LI11,1,Serial_COM3,C:\Users\EEG\Desktop\FINALCoScienceTasksLogfiles\,2022_Jan_05_1149,Stroop,2020.1.3,59.774863951697725,
Subset1,5,,,,,,Stimuli/man_55.png,erotic_man,Stimuli/man_54.png,blue,4,3,35,0,0,0,0,,,,,0,47,47,63,,,,,1.1475141093542451,1.0366302277410315,372.655617299999,None,372.655617299999,None,,,,,,,,,,373.83655870000075,374.883765999999,374.86667640000815,None,4,1,1.0425014400098007,None,374.86667640000815,None,False,None,None,None,0.8583217999985209,,,IA6LI11,1,Serial_COM3,C:\Users\EEG\Desktop\FINALCoScienceTasksLogfiles\,2022_Jan_05_1149,Stroop,2020.1.3,59.774863951697725,
Subset1,5,,,,,,Stimuli/neutral_couple_65.png,neutral_couple,Stimuli/neutral_couple_63.png,yellow,3,5,56,0,0,0,0,,,,,0,48,48,17,,,,,1.2007732770983695,1.1440725168157906,375.75346290000016,None,375.75346290000016,None,,,,,,,,,,377.00259230000665,378.1530644000013,378.1359905999998,None,3,1,1.1480181099905167,None,378.1359905999998,None,False,None,None,None,0.6848277999961283,,,IA6LI11,1,Serial_COM3,C:\Users\EEG\Desktop\FINALCoScienceTasksLogfiles\,2022_Jan_05_1149,Stroop,2020.1.3,59.774863951697725,
Subset1,5,,,,,,Stimuli/neutral_couple_75.png,neutral_couple,Stimuli/neutral_couple_73.png,yellow,3,5,57,0,0,0,0,,,,,0,49,49,58,,,,,1.0362593915308658,1.2184967429154865,378.8435393000109,None,378.8435393000109,None,,,,,,,,,,379.9086398000072,381.1389480000071,381.1218637999991,None,3,1,1.2252208400022937,None,381.1218637999991,None,False,None,None,None,0.7966072999988683,,,IA6LI11,1,Serial_COM3,C:\Users\EEG\Desktop\FINALCoScienceTasksLogfiles\,2022_Jan_05_1149,Stroop,2020.1.3,59.774863951697725,
Subset1,5,,,,,,Stimuli/neutral_75.png,neutral_man_woman,Stimuli/neutral_73.png,yellow,3,4,47,0,0,0,0,,,,,0,50,50,28,,,,,1.4415344886749841,1.0063530733133899,381.9465377000015,None,381.9465377000015,None,,,,,,,,,,383.40956350001215,384.42497160000494,384.4080377000064,None,3,1,1.0125279400090221,None,384.4080377000064,None,False,None,None,None,0.4088062000082573,,,IA6LI11,1,Serial_COM3,C:\Users\EEG\Desktop\FINALCoScienceTasksLogfiles\,2022_Jan_05_1149,Stroop,2020.1.3,59.774863951697725,
Subset1,5,,,,,,Stimuli/couple_55.png,erotic_couple,Stimuli/couple_54.png,blue,4,2,25,0,0,0,0,,,,,0,51,51,77,,,,,1.1332879469119117,1.3342401271612738,384.8442936000065,None,384.8442936000065,None,,,,,,,,,,386.01307620000443,387.3607200999977,387.3438507000101,388.3445084999985,None,0,1.342204340020544,2.3428213400184177,387.3438507000101,388.3445084999985,False,None,None,None,,,,IA6LI11,1,Serial_COM3,C:\Users\EEG\Desktop\FINALCoScienceTasksLogfiles\,2022_Jan_05_1149,Stroop,2020.1.3,59.774863951697725,
Subset1,5,,,,,,Stimuli/positiv_25.png,positive_man_woman,Stimuli/positiv_22.png,red,2,6,62,0,0,0,0,,,,,0,52,52,38,,,,,1.337383323242976,1.4797277377756368,388.3628626999998,None,388.3628626999998,None,,,,,,,,,,389.7346113000094,391.21358290000353,391.21358290000353,None,2,1,1.4896590400167042,None,391.21358290000353,None,False,None,None,None,0.3315851999941515,,,IA6LI11,1,Serial_COM3,C:\Users\EEG\Desktop\FINALCoScienceTasksLogfiles\,2022_Jan_05_1149,Stroop,2020.1.3,59.774863951697725,
Subset1,5,,,,,,Stimuli/tree_55.png,tree,Stimuli/tree_53.png,yellow,3,1,15,0,0,0,0,,,,,0,53,53,87,,,,,1.0824368900602594,1.4727666629196985,391.57074690000445,None,391.57074690000445,None,,,,,,,,,,392.68594910000684,394.1664191000018,394.1493577000074,395.15016879999894,None,0,1.4747017400077311,2.475508240007912,394.1493577000074,395.15016879999894,False,None,None,None,,,,IA6LI11,1,Serial_COM3,C:\Users\EEG\Desktop\FINALCoScienceTasksLogfiles\,2022_Jan_05_1149,Stroop,2020.1.3,59.774863951697725,
Subset1,5,,,,,,Stimuli/positiv_25.png,positive_man_woman,Stimuli/positiv_22.png,red,2,6,62,0,0,0,0,,,,,0,54,54,39,,,,,1.4586103991348915,1.4534627244669795,395.17093570000725,None,395.17093570000725,None,,,,,,,,,,396.64390039999853,398.1031399000058,398.0859391000122,399.0868315999978,None,0,1.4642527400137624,2.4651194400066743,398.0859391000122,399.0868315999978,False,None,None,None,,,,IA6LI11,1,Serial_COM3,C:\Users\EEG\Desktop\FINALCoScienceTasksLogfiles\,2022_Jan_05_1149,Stroop,2020.1.3,59.774863951697725,
Subset1,5,,,,,,Stimuli/neutral_couple_55.png,neutral_couple,Stimuli/neutral_couple_51.png,green,1,5,55,0,0,0,0,,,,,0,55,55,48,,,,,1.3643711855876495,1.290892627712636,399.10582710000745,None,399.10582710000745,None,,,,,,,,,,400.48652020000736,401.7888151000079,401.7719458000065,None,1,1,1.3018426400085445,None,401.7719458000065,None,False,None,None,None,0.8602285999950254,,,IA6LI11,1,Serial_COM3,C:\Users\EEG\Desktop\FINALCoScienceTasksLogfiles\,2022_Jan_05_1149,Stroop,2020.1.3,59.774863951697725,
Subset1,5,,,,,,Stimuli/positiv_85.png,positive_man_woman,Stimuli/positiv_84.png,blue,4,6,68,0,0,0,0,,,,,0,56,56,20,,,,,1.2093295738480678,1.1492462378089912,402.658806300009,None,402.658806300009,None,,,,,,,,,,403.92310300000827,405.0754946000088,405.0583764000039,406.0596063000121,None,0,1.1510654800076736,2.1522744800167857,405.0583764000039,406.0596063000121,False,None,None,None,,,,IA6LI11,1,Serial_COM3,C:\Users\EEG\Desktop\FINALCoScienceTasksLogfiles\,2022_Jan_05_1149,Stroop,2020.1.3,59.774863951697725,
Subset1,5,,,,,,Stimuli/neutral_couple_15.png,neutral_couple,Stimuli/neutral_couple_12.png,red,2,5,51,0,0,0,0,,,,,0,57,57,70,,,,,1.3663827474434325,1.3694305309370354,406.07819690000906,None,406.07819690000906,None,,,,,,,,,,407.4710015000019,408.8452926000027,408.8283561999997,None,2,1,1.3781444099877262,None,408.8283561999997,None,False,None,None,None,0.5965259000076912,,,IA6LI11,1,Serial_COM3,C:\Users\EEG\Desktop\FINALCoScienceTasksLogfiles\,2022_Jan_05_1149,Stroop,2020.1.3,59.774863951697725,
Subset1,5,,,,,,Stimuli/tree_25.png,tree,Stimuli/tree_21.png,green,1,1,12,0,0,0,0,,,,,0,58,58,40,,,,,1.487417021777076,1.444008173266604,409.45240990001184,None,409.45240990001184,None,,,,,,,,,,410.97250450000865,412.4312323000049,412.3978100000095,None,1,1,1.447612809992279,None,412.3978100000095,None,False,None,None,None,0.8870680000109132,,,IA6LI11,1,Serial_COM3,C:\Users\EEG\Desktop\FINALCoScienceTasksLogfiles\,2022_Jan_05_1149,Stroop,2020.1.3,59.774863951697725,
Subset1,5,,,,,,Stimuli/man_55.png,erotic_man,Stimuli/man_52.png,red,2,3,35,0,0,0,0,,,,,0,59,59,66,,,,,1.1771491926166864,1.1919954082290567,413.32290150001063,None,413.32290150001063,None,,,,,,,,,,414.5183427000011,415.71732619999966,415.70021270000143,416.7014385000075,None,0,1.194649240016588,2.1959510400047293,415.70021270000143,416.7014385000075,False,None,None,None,,,,IA6LI11,1,Serial_COM3,C:\Users\EEG\Desktop\FINALCoScienceTasksLogfiles\,2022_Jan_05_1149,Stroop,2020.1.3,59.774863951697725,
Subset1,5,,,,,,Stimuli/positiv_75.png,positive_man_woman,Stimuli/positiv_73.png,yellow,3,6,67,0,0,0,0,,,,,0,60,60,72,,,,,1.0426132167493427,1.4385749780405759,416.72035920000053,None,416.72035920000053,None,,,,,,,,,,417.7905610000016,419.23721070001193,419.22026760000153,None,3,1,1.4404779400065308,None,419.22026760000153,None,False,None,None,None,0.7299100999953225,,,IA6LI11,1,Serial_COM3,C:\Users\EEG\Desktop\FINALCoScienceTasksLogfiles\,2022_Jan_05_1149,Stroop,2020.1.3,59.774863951697725,
Subset1,5,,,,,,Stimuli/positiv_55.png,positive_man_woman,Stimuli/positiv_53.png,yellow,3,6,65,0,0,0,0,,,,,0,61,61,27,,,,,1.318803155210667,1.1568737200117467,419.97343500000716,None,419.97343500000716,None,,,,,,,,,,421.3310352999979,422.4900830000115,422.47307760000695,None,3,1,1.1649217099911766,None,422.47307760000695,None,False,None,None,None,0.6277986000059173,,,IA6LI11,1,Serial_COM3,C:\Users\EEG\Desktop\FINALCoScienceTasksLogfiles\,2022_Jan_05_1149,Stroop,2020.1.3,59.774863951697725,
Subset1,5,,,,,,Stimuli/neutral_couple_75.png,neutral_couple,Stimuli/neutral_couple_71.png,green,1,5,57,0,0,0,0,,,,,0,62,62,3,,,,,1.3266237372243102,1.0702087669097258,423.1298162000021,None,423.1298162000021,None,,,,,,,,,,424.48628380001173,425.5592991000012,425.5425760000071,None,1,1,1.0758495100017171,None,425.5425760000071,None,False,None,None,None,0.7297033000068041,,,IA6LI11,1,Serial_COM3,C:\Users\EEG\Desktop\FINALCoScienceTasksLogfiles\,2022_Jan_05_1149,Stroop,2020.1.3,59.774863951697725,
Subset1,5,,,,,,Stimuli/positiv_85.png,positive_man_woman,Stimuli/positiv_81.png,green,1,6,68,0,0,0,0,,,,,0,63,63,82,,,,,1.3381816920801126,1.340081019261807,426.2954452000122,None,426.2954452000122,None,,,,,,,,,,427.66275770000357,429.01206850000017,428.995004100012,429.995880100003,None,0,1.3454713400133187,2.346351540007163,428.995004100012,429.995880100003,False,None,None,None,,,,IA6LI11,1,Serial_COM3,C:\Users\EEG\Desktop\FINALCoScienceTasksLogfiles\,2022_Jan_05_1149,Stroop,2020.1.3,59.774863951697725,
Subset1,5,,,,,,Stimuli/positiv_65.png,positive_man_woman,Stimuli/positiv_64.png,blue,4,6,66,0,0,0,0,,,,,0,64,64,54,,,,,1.4898692267961533,1.4869319484932384,430.0253085000004,None,430.0253085000004,None,,,,,,,,,,431.5563445000007,433.0487485000049,433.03166210000927,434.03250370000023,None,0,1.4980976099905092,2.498926410000422,433.03166210000927,434.03250370000023,False,None,None,None,,,,IA6LI11,1,Serial_COM3,C:\Users\EEG\Desktop\FINALCoScienceTasksLogfiles\,2022_Jan_05_1149,Stroop,2020.1.3,59.774863951697725,
Subset1,5,,,,,,Stimuli/neutral_65.png,neutral_man_woman,Stimuli/neutral_63.png,yellow,3,4,46,0,0,0,0,,,,,0,65,65,75,,,,,1.4509337137588012,1.351711150874476,434.05348570000206,None,434.05348570000206,None,,,,,,,,,,435.53784990000713,436.9019367000001,436.884858800011,437.8857168000104,None,0,1.358360440019169,2.3592202400177484,436.884858800011,437.8857168000104,False,None,None,None,,,,IA6LI11,1,Serial_COM3,C:\Users\EEG\Desktop\FINALCoScienceTasksLogfiles\,2022_Jan_05_1149,Stroop,2020.1.3,59.774863951697725,
Subset1,5,,,,,,Stimuli/man_75.png,erotic_man,Stimuli/man_72.png,red,2,3,37,0,0,0,0,,,,,0,66,66,55,,,,,1.2325145048205897,1.2059139696112475,437.904566000012,None,437.904566000012,None,,,,,,,,,,439.1570352999988,440.3714297000115,440.354531200006,None,2,1,1.2091718400188256,None,440.354531200006,None,False,None,None,None,0.42449990000750404,,,IA6LI11,1,Serial_COM3,C:\Users\EEG\Desktop\FINALCoScienceTasksLogfiles\,2022_Jan_05_1149,Stroop,2020.1.3,59.774863951697725,
Subset1,5,,,,,,Stimuli/man_25.png,erotic_man,Stimuli/man_23.png,yellow,3,3,32,0,0,0,0,,,,,0,67,67,60,,,,,1.373061499521806,1.1207320442370001,440.80740560000413,None,440.80740560000413,None,,,,,,,,,,442.22488920000615,443.3573213000054,443.34025680000195,None,3,1,1.1289512100047432,None,443.34025680000195,None,False,None,None,None,0.8914969000034034,,,IA6LI11,1,Serial_COM3,C:\Users\EEG\Desktop\FINALCoScienceTasksLogfiles\,2022_Jan_05_1149,Stroop,2020.1.3,59.774863951697725,
Subset1,5,,,,,,Stimuli/neutral_couple_65.png,neutral_couple,Stimuli/neutral_couple_62.png,red,2,5,56,0,0,0,0,,,,,0,68,68,13,,,,,1.4473424806719026,1.4661330517810471,444.26406680000946,None,444.26406680000946,None,,,,,,,,,,445.7488657000067,447.2270822999999,447.21009150000464,448.2109715000115,None,0,1.4707581399998162,2.471634739995352,447.21009150000464,448.2109715000115,False,None,None,None,,,,IA6LI11,1,Serial_COM3,C:\Users\EEG\Desktop\FINALCoScienceTasksLogfiles\,2022_Jan_05_1149,Stroop,2020.1.3,59.774863951697725,
Subset1,5,,,,,,Stimuli/tree_15.png,tree,Stimuli/tree_14.png,blue,4,1,11,0,0,0,0,,,,,0,69,69,26,,,,,1.0846550572226474,1.3711518006767982,448.2295310000045,None,448.2295310000045,None,,,,,,,,,,449.3603440000006,450.74675210000714,450.72986190000665,None,4,1,1.3858529099961743,None,450.72986190000665,None,False,None,None,None,0.5975426999939373,,,IA6LI11,1,Serial_COM3,C:\Users\EEG\Desktop\FINALCoScienceTasksLogfiles\,2022_Jan_05_1149,Stroop,2020.1.3,59.774863951697725,
Subset1,5,,,,,,Stimuli/man_85.png,erotic_man,Stimuli/man_84.png,blue,4,3,38,0,0,0,0,,,,,0,70,70,61,,,,,1.3040625236523804,1.2710948034337004,451.3504365000117,None,451.3504365000117,None,,,,,,,,,,452.68408580000687,453.96622780000325,453.94916250000824,None,4,1,1.2781491400091909,None,453.94916250000824,None,False,None,None,None,0.4708102000004146,,,IA6LI11,1,Serial_COM3,C:\Users\EEG\Desktop\FINALCoScienceTasksLogfiles\,2022_Jan_05_1149,Stroop,2020.1.3,59.774863951697725,
Subset1,5,,,,,,Stimuli/neutral_couple_15.png,neutral_couple,Stimuli/neutral_couple_13.png,yellow,3,5,51,0,0,0,0,,,,,0,71,71,109,,,,,1.39695695551311,1.201286136780306,454.4543762000103,None,454.4543762000103,None,,,,,,,,,,455.8640461000032,457.0688162000006,457.0516390999983,None,3,1,1.2050225400162162,None,457.0516390999983,None,False,None,None,None,0.8536859000014374,,,IA6LI11,1,Serial_COM3,C:\Users\EEG\Desktop\FINALCoScienceTasksLogfiles\,2022_Jan_05_1149,Stroop,2020.1.3,59.774863951697725,
Subset1,5,,,,,,Stimuli/man_85.png,erotic_man,Stimuli/man_84.png,blue,4,3,38,0,0,0,0,,,,,0,72,72,45,,,,,1.443042696859398,1.017695725457058,457.94338550000975,None,457.94338550000975,None,,,,,,,,,,459.41738780000014,460.43812869999965,460.4211195000098,None,2,0,1.021771109997644,None,460.4211195000098,None,False,None,None,None,0.9266973999910988,,,IA6LI11,1,Serial_COM3,C:\Users\EEG\Desktop\FINALCoScienceTasksLogfiles\,2022_Jan_05_1149,Stroop,2020.1.3,59.774863951697725,
Subset1,5,,,,,,Stimuli/neutral_25.png,neutral_man_woman,Stimuli/neutral_21.png,green,1,4,42,0,0,0,0,,,,,0,73,73,9,,,,,1.308976287457514,1.0291223137505119,461.3795583000028,None,461.3795583000028,None,,,,,,,,,,462.7273501000018,463.75720790000923,463.75720790000923,464.7581854000018,None,0,1.0410807099979138,2.0420705099968472,463.75720790000923,464.7581854000018,False,None,None,None,,,,IA6LI11,1,Serial_COM3,C:\Users\EEG\Desktop\FINALCoScienceTasksLogfiles\,2022_Jan_05_1149,Stroop,2020.1.3,59.774863951697725,
Subset1,5,,,,,,Stimuli/couple_15.png,erotic_couple,Stimuli/couple_14.png,blue,4,2,21,0,0,0,0,,,,,0,74,74,4,,,,,1.378971177062635,1.061569982268731,464.77678630000446,None,464.77678630000446,None,,,,,,,,,,466.20292910000717,467.27694750000956,467.24354380001023,None,4,1,1.0616384800086962,None,467.24354380001023,None,False,None,None,None,0.69865469999786,,,IA6LI11,1,Serial_COM3,C:\Users\EEG\Desktop\FINALCoScienceTasksLogfiles\,2022_Jan_05_1149,Stroop,2020.1.3,59.774863951697725,
Subset1,5,,,,,,Stimuli/woman_65.png,erotic_woman,Stimuli/woman_62.png,red,2,7,76,0,0,0,0,,,,,0,75,75,111,,,,,1.4258293963237167,1.357470960660657,467.968532400002,None,467.968532400002,None,,,,,,,,,,469.42489740000747,470.79641840000113,470.76319389999844,None,2,1,1.3579007100051967,None,470.76319389999844,None,False,None,None,None,0.49632230000861455,,,IA6LI11,1,Serial_COM3,C:\Users\EEG\Desktop\FINALCoScienceTasksLogfiles\,2022_Jan_05_1149,Stroop,2020.1.3,59.774863951697725,
Subset1,5,,,,,,Stimuli/neutral_couple_65.png,neutral_couple,Stimuli/neutral_couple_61.png,green,1,5,56,0,0,0,0,,,,,0,76,76,97,,,,,1.2860326763584748,1.018263856851258,471.28313940000953,None,471.28313940000953,None,,,,,,,,,,472.6089126000006,473.63254700000107,473.61557720000565,474.61628090000886,None,0,1.028515010009869,2.029107110007317,473.61557720000565,474.61628090000886,False,None,None,None,,,,IA6LI11,1,Serial_COM3,C:\Users\EEG\Desktop\FINALCoScienceTasksLogfiles\,2022_Jan_05_1149,Stroop,2020.1.3,59.774863951697725,
Subset1,5,,,,,,Stimuli/woman_75.png,erotic_woman,Stimuli/woman_73.png,yellow,3,7,77,0,0,0,0,,,,,0,77,77,62,,,,,1.4134753052704232,1.00578523974516,474.6368677999999,None,474.6368677999999,None,,,,,,,,,,476.08570140000666,477.10205050000513,477.08488770000986,None,3,1,1.012390410003718,None,477.08488770000986,None,False,None,None,None,0.6793822000036016,,,IA6LI11,1,Serial_COM3,C:\Users\EEG\Desktop\FINALCoScienceTasksLogfiles\,2022_Jan_05_1149,Stroop,2020.1.3,59.774863951697725,
Subset1,5,,,,,,Stimuli/man_55.png,erotic_man,Stimuli/man_52.png,red,2,3,35,0,0,0,0,,,,,0,78,78,86,,,,,1.4311827912271036,1.1349349208174568,477.78842900000745,None,477.78842900000745,None,,,,,,,,,,479.2393602000084,480.3881426000007,480.37102360000426,481.3719427000033,None,0,1.1457902399997693,2.1467409399920143,480.37102360000426,481.3719427000033,False,None,None,None,,,,IA6LI11,1,Serial_COM3,C:\Users\EEG\Desktop\FINALCoScienceTasksLogfiles\,2022_Jan_05_1149,Stroop,2020.1.3,59.774863951697725,
Subset1,5,,,,,,Stimuli/woman_15.png,erotic_woman,Stimuli/woman_14.png,blue,4,7,71,0,0,0,0,,,,,0,79,79,46,,,,,1.1430878172178371,1.3524829638828986,481.394168800005,None,481.394168800005,None,,,,,,,,,,482.5755327000079,483.941092100009,483.924093300011,None,4,1,1.361631909996504,None,483.924093300011,None,False,None,None,None,0.36308149999240413,,,IA6LI11,1,Serial_COM3,C:\Users\EEG\Desktop\FINALCoScienceTasksLogfiles\,2022_Jan_05_1149,Stroop,2020.1.3,59.774863951697725,
Subset1,5,,,,,,Stimuli/positiv_45.png,positive_man_woman,Stimuli/positiv_43.png,yellow,3,6,64,0,0,0,0,,,,,0,80,80,79,,,,,1.434789798161611,1.0607339046961117,484.31020480000007,None,484.31020480000007,None,,,,,,,,,,485.7930352000112,486.86015180000686,486.8430764000077,None,3,1,1.0636127100005979,None,486.8430764000077,None,False,None,None,None,0.6947536999941804,,,IA6LI11,1,Serial_COM3,C:\Users\EEG\Desktop\FINALCoScienceTasksLogfiles\,2022_Jan_05_1149,Stroop,2020.1.3,59.774863951697725,
Subset1,5,,,,,,Stimuli/tree_35.png,tree,Stimuli/tree_33.png,yellow,3,1,13,0,0,0,0,,,,,0,81,81,91,,,,,1.3899222074985573,1.3905494564989067,487.5634078000003,None,487.5634078000003,None,,,,,,,,,,488.9779558000009,490.37976500000514,490.36273500000243,None,3,1,1.4013792400219245,None,490.36273500000243,None,False,None,None,None,0.7993949000083376,,,IA6LI11,1,Serial_COM3,C:\Users\EEG\Desktop\FINALCoScienceTasksLogfiles\,2022_Jan_05_1149,Stroop,2020.1.3,59.774863951697725,
Subset1,5,,,,,,Stimuli/couple_85.png,erotic_couple,Stimuli/couple_84.png,blue,4,2,28,0,0,0,0,,,,,0,82,82,71,,,,,1.3700104741980217,1.3048322701322432,491.18709500000114,None,491.18709500000114,None,,,,,,,,,,492.5870056999993,493.89912270000787,493.8826501000003,None,2,0,1.3060810400202172,None,493.8826501000003,None,False,None,None,None,0.9063450999965426,,,IA6LI11,1,Serial_COM3,C:\Users\EEG\Desktop\FINALCoScienceTasksLogfiles\,2022_Jan_05_1149,Stroop,2020.1.3,59.774863951697725,
Subset1,5,,,,,,Stimuli/neutral_couple_35.png,neutral_couple,Stimuli/neutral_couple_33.png,yellow,3,5,53,0,0,0,0,,,,,0,83,83,29,,,,,1.3647209556630222,1.2713222590115894,494.8195601000043,None,494.8195601000043,None,,,,,,,,,,496.21745300000475,497.50231019999774,497.4852905000007,None,3,1,1.2829484100075206,None,497.4852905000007,None,False,None,None,None,0.6826935999997659,,,IA6LI11,1,Serial_COM3,C:\Users\EEG\Desktop\FINALCoScienceTasksLogfiles\,2022_Jan_05_1149,Stroop,2020.1.3,59.774863951697725,
Subset1,5,,,,,,Stimuli/couple_55.png,erotic_couple,Stimuli/couple_52.png,red,2,2,25,0,0,0,0,,,,,0,84,84,23,,,,,1.3995237036468087,1.3196249935240798,498.1884373000066,None,498.1884373000066,None,,,,,,,,,,499.6072239000059,500.9385073000012,500.9215250999987,None,2,1,1.3266836400143802,None,500.9215250999987,None,False,None,None,None,0.5053126999991946,,,IA6LI11,1,Serial_COM3,C:\Users\EEG\Desktop\FINALCoScienceTasksLogfiles\,2022_Jan_05_1149,Stroop,2020.1.3,59.774863951697725,
Subset1,5,,,,,,Stimuli/woman_15.png,erotic_woman,Stimuli/woman_13.png,yellow,3,7,71,0,0,0,0,,,,,0,85,85,110,,,,,1.1733355999045325,1.4667140365469455,501.45823740000196,None,501.45823740000196,None,,,,,,,,,,502.66904200000863,504.1412047000049,504.12412400000903,None,3,1,1.4750112099864054,None,504.12412400000903,None,False,None,None,None,0.6009003999934066,,,IA6LI11,1,Serial_COM3,C:\Users\EEG\Desktop\FINALCoScienceTasksLogfiles\,2022_Jan_05_1149,Stroop,2020.1.3,59.774863951697725,
Subset1,5,,,,,,Stimuli/neutral_85.png,neutral_man_woman,Stimuli/neutral_83.png,yellow,3,4,48,0,0,0,0,,,,,0,86,86,105,,,,,1.3063622228728016,1.0458361104960219,504.7436386000045,None,504.7436386000045,None,,,,,,,,,,506.08020789999864,507.12694210000336,507.12694210000336,None,3,1,1.0577094400068745,None,507.12694210000336,None,False,None,None,None,0.7549709000013536,,,IA6LI11,1,Serial_COM3,C:\Users\EEG\Desktop\FINALCoScienceTasksLogfiles\,2022_Jan_05_1149,Stroop,2020.1.3,59.774863951697725,
Subset1,5,,,,,,Stimuli/man_65.png,erotic_man,Stimuli/man_63.png,yellow,3,3,36,0,0,0,0,,,,,0,87,87,18,,,,,1.3453328753477216,1.224494440388478,507.9133251000021,None,507.9133251000021,None,,,,,,,,,,509.2849450000067,510.5127754999994,510.5127754999994,None,3,1,1.2377513400133466,None,510.5127754999994,None,False,None,None,None,0.49650589999509975,,,IA6LI11,1,Serial_COM3,C:\Users\EEG\Desktop\FINALCoScienceTasksLogfiles\,2022_Jan_05_1149,Stroop,2020.1.3,59.774863951697725,
Subset1,5,,,,,,Stimuli/couple_75.png,erotic_couple,Stimuli/couple_73.png,yellow,3,2,27,0,0,0,0,,,,,0,88,88,42,,,,,1.230414951318713,1.0510434825121253,511.0371548000112,None,511.0371548000112,None,,,,,,,,,,512.3147250000038,513.3653226000024,513.3653226000024,None,3,1,1.0650006099895108,None,513.3653226000024,None,False,None,None,None,0.47182400000747293,,,IA6LI11,1,Serial_COM3,C:\Users\EEG\Desktop\FINALCoScienceTasksLogfiles\,2022_Jan_05_1149,Stroop,2020.1.3,59.774863951697725,
Subset1,5,,,,,,Stimuli/neutral_couple_65.png,neutral_couple,Stimuli/neutral_couple_61.png,green,1,5,56,0,0,0,0,,,,,0,89,89,64,,,,,1.4620792210378977,1.4303929683218612,513.8682677000033,None,513.8682677000033,None,,,,,,,,,,515.350798200001,516.7851367000112,516.7681584000093,517.7689026000007,None,0,1.4332801400159951,2.4340478400117718,516.7681584000093,517.7689026000007,False,None,None,None,,,,IA6LI11,1,Serial_COM3,C:\Users\EEG\Desktop\FINALCoScienceTasksLogfiles\,2022_Jan_05_1149,Stroop,2020.1.3,59.774863951697725,
Subset1,5,,,,,,Stimuli/tree_55.png,tree,Stimuli/tree_52.png,red,2,1,15,0,0,0,0,,,,,0,90,90,108,,,,,1.1718128781404844,1.477690327579126,517.7874224000116,None,517.7874224000116,None,,,,,,,,,,518.9919119000115,520.4713832999987,520.4713832999987,521.4718581000052,None,0,1.4896027399954619,2.4901485400041565,520.4713832999987,521.4718581000052,False,None,None,None,,,,IA6LI11,1,Serial_COM3,C:\Users\EEG\Desktop\FINALCoScienceTasksLogfiles\,2022_Jan_05_1149,Stroop,2020.1.3,59.774863951697725,
Subset1,5,,,,,,Stimuli/man_85.png,erotic_man,Stimuli/man_82.png,red,2,3,38,0,0,0,0,,,,,0,91,91,76,,,,,1.2126922789317347,1.2884823186242405,521.490503500012,None,521.490503500012,None,,,,,,,,,,522.7425396000035,524.0410915000102,524.0242065000057,None,2,1,1.2936293099919567,None,524.0242065000057,None,False,None,None,None,0.48958560000755824,,,IA6LI11,1,Serial_COM3,C:\Users\EEG\Desktop\FINALCoScienceTasksLogfiles\,2022_Jan_05_1149,Stroop,2020.1.3,59.774863951697725,
Subset1,5,,,,,,Stimuli/woman_15.png,erotic_woman,Stimuli/woman_13.png,yellow,3,7,71,0,0,0,0,,,,,0,92,92,14,,,,,1.0809429722826103,1.2105936771002068,524.5432787000027,None,524.5432787000027,None,,,,,,,,,,525.6402127000038,526.8601636000094,526.8430316000013,None,3,1,1.2194019400049,None,526.8430316000013,None,False,None,None,None,0.8039687999989837,,,IA6LI11,1,Serial_COM3,C:\Users\EEG\Desktop\FINALCoScienceTasksLogfiles\,2022_Jan_05_1149,Stroop,2020.1.3,59.774863951697725,
Subset1,5,,,,,,Stimuli/man_85.png,erotic_man,Stimuli/man_83.png,yellow,3,3,38,0,0,0,0,,,,,0,93,93,96,,,,,1.2377935459276226,1.2906719043775166,527.6837218000001,None,527.6837218000001,None,,,,,,,,,,528.9511521000095,530.2457961000036,530.2457961000036,None,3,1,1.3050872400053777,None,530.2457961000036,None,False,None,None,None,0.6090215000003809,,,IA6LI11,1,Serial_COM3,C:\Users\EEG\Desktop\FINALCoScienceTasksLogfiles\,2022_Jan_05_1149,Stroop,2020.1.3,59.774863951697725,
Subset1,5,,,,,,Stimuli/man_35.png,erotic_man,Stimuli/man_33.png,yellow,3,3,33,0,0,0,0,,,,,0,94,94,104,,,,,1.3680345250474157,1.3738664059855126,530.8813330999983,None,530.8813330999983,None,,,,,,,,,,532.2998904999986,533.682536200009,533.6653521999979,None,3,1,1.3774236099998234,None,533.6653521999979,None,False,None,None,None,0.535525699990103,,,IA6LI11,1,Serial_COM3,C:\Users\EEG\Desktop\FINALCoScienceTasksLogfiles\,2022_Jan_05_1149,Stroop,2020.1.3,59.774863951697725,
Subset1,5,,,,,,Stimuli/tree_85.png,tree,Stimuli/tree_84.png,blue,4,1,18,0,0,0,0,,,,,0,95,95,52,,,,,1.289180306173211,1.2006624298216242,534.235723500009,None,534.235723500009,None,,,,,,,,,,535.5544833000022,536.7683367999998,536.7513177000073,537.7520957000088,None,0,1.2076831400190713,2.2084198400116293,536.7513177000073,537.7520957000088,False,None,None,None,,,,IA6LI11,1,Serial_COM3,C:\Users\EEG\Desktop\FINALCoScienceTasksLogfiles\,2022_Jan_05_1149,Stroop,2020.1.3,59.774863951697725,
Subset1,5,,,,,,Stimuli/positiv_55.png,positive_man_woman,Stimuli/positiv_54.png,blue,4,6,65,0,0,0,0,,,,,0,96,96,65,,,,,1.169173131353141,1.3615139000393757,537.7703711000067,None,537.7703711000067,None,,,,,,,,,,538.9964622000116,540.3710620000056,540.3375735000009,541.3383776000119,None,0,1.3633771800086834,2.3641775800060714,540.3375735000009,541.3383776000119,False,None,None,None,,,,IA6LI11,1,Serial_COM3,C:\Users\EEG\Desktop\FINALCoScienceTasksLogfiles\,2022_Jan_05_1149,Stroop,2020.1.3,59.774863951697725,
Subset1,5,,,,,,Stimuli/man_75.png,erotic_man,Stimuli/man_74.png,blue,4,3,37,0,0,0,0,,,,,0,97,97,100,,,,,1.0014312534043286,1.4494299737703835,541.3593658000027,None,541.3593658000027,None,,,,,,,,,,542.3950898000039,543.8575501000014,543.8404377999977,None,4,1,1.4561368400027277,None,543.8404377999977,None,False,None,None,None,0.3893960999994306,,,IA6LI11,1,Serial_COM3,C:\Users\EEG\Desktop\FINALCoScienceTasksLogfiles\,2022_Jan_05_1149,Stroop,2020.1.3,59.774863951697725,
Subset1,5,,,,,,Stimuli/man_45.png,erotic_man,Stimuli/man_42.png,red,2,3,34,0,0,0,0,,,,,0,98,98,12,,,,,1.2876364260948543,1.441009860497029,544.264404600006,None,544.264404600006,None,,,,,,,,,,545.5832814000023,547.0268519000092,547.0097443999985,None,2,1,1.4498563099914463,None,547.0097443999985,None,False,None,None,None,0.3770606000034604,,,IA6LI11,1,Serial_COM3,C:\Users\EEG\Desktop\FINALCoScienceTasksLogfiles\,2022_Jan_05_1149,Stroop,2020.1.3,59.774863951697725,
Subset1,5,,,,,,Stimuli/man_45.png,erotic_man,Stimuli/man_43.png,yellow,3,3,34,0,0,0,0,,,,,0,99,99,84,,,,,1.3581706672275464,1.1855981408972813,547.417000100002,None,547.417000100002,None,,,,,,,,,,548.8064518000028,549.9959738000034,549.978919000001,None,3,1,1.1920989100035513,None,549.978919000001,None,False,None,None,None,0.6608935999975074,,,IA6LI11,1,Serial_COM3,C:\Users\EEG\Desktop\FINALCoScienceTasksLogfiles\,2022_Jan_05_1149,Stroop,2020.1.3,59.774863951697725,
Subset1,5,,,,,,Stimuli/neutral_55.png,neutral_man_woman,Stimuli/neutral_54.png,blue,4,4,45,0,0,0,0,,,,,0,100,100,41,,,,,1.2277334759987188,1.1837641016645748,550.6699783000076,None,550.6699783000076,None,,,,,,,,,,551.9317505000072,553.1150141000107,553.1150141000107,None,4,1,1.196488510002382,None,553.1150141000107,None,False,None,None,None,0.3908713999990141,,,IA6LI11,1,Serial_COM3,C:\Users\EEG\Desktop\FINALCoScienceTasksLogfiles\,2022_Jan_05_1149,Stroop,2020.1.3,59.774863951697725,
Subset1,5,,,,,,Stimuli/woman_75.png,erotic_woman,Stimuli/woman_71.png,green,1,7,77,0,0,0,0,,,,,0,101,101,85,,,,,1.3700700868726603,1.2876852428944021,553.534811400008,None,553.534811400008,None,,,,,,,,,,554.9394479000039,556.234504100008,556.2174263000052,None,1,1,1.2872989400202641,None,556.2174263000052,None,False,None,None,None,0.7744385999976657,,,IA6LI11,1,Serial_COM3,C:\Users\EEG\Desktop\FINALCoScienceTasksLogfiles\,2022_Jan_05_1149,Stroop,2020.1.3,59.774863951697725,
Subset1,5,,,,,,Stimuli/neutral_couple_85.png,neutral_couple,Stimuli/neutral_couple_84.png,blue,4,5,58,0,0,0,0,,,,,0,102,102,8,,,,,1.4828676404598724,1.3335303744017297,557.0204419000074,None,557.0204419000074,None,,,,,,,,,,558.5248954999988,559.8708702000004,559.8537813000003,560.8538568000076,None,0,1.3387375400052406,2.338713140008622,559.8537813000003,560.8538568000076,False,None,None,None,,,,IA6LI11,1,Serial_COM3,C:\Users\EEG\Desktop\FINALCoScienceTasksLogfiles\,2022_Jan_05_1149,Stroop,2020.1.3,59.774863951697725,
Subset1,5,,,,,,Stimuli/neutral_couple_25.png,neutral_couple,Stimuli/neutral_couple_21.png,green,1,5,52,0,0,0,0,,,,,0,103,103,103,,,,,1.336546769097874,1.3862635601366713,560.8732606999984,None,560.8732606999984,None,,,,,,,,,,562.2565182000108,563.6573598000105,563.6403451000078,None,1,1,1.3984332099935273,None,563.6403451000078,None,False,None,None,None,0.675616100008483,,,IA6LI11,1,Serial_COM3,C:\Users\EEG\Desktop\FINALCoScienceTasksLogfiles\,2022_Jan_05_1149,Stroop,2020.1.3,59.774863951697725,
Subset1,5,,,,,,Stimuli/neutral_couple_15.png,neutral_couple,Stimuli/neutral_couple_11.png,green,1,5,51,0,0,0,0,,,,,0,104,104,33,,,,,1.2074227531709067,1.377513240708705,564.3432180000091,None,564.3432180000091,None,,,,,,,,,,565.5856065000116,566.9765093000024,566.9430786000012,None,1,1,1.3780434100190178,None,566.9430786000012,None,False,None,None,None,0.5429908000078285,,,IA6LI11,1,Serial_COM3,C:\Users\EEG\Desktop\FINALCoScienceTasksLogfiles\,2022_Jan_05_1149,Stroop,2020.1.3,59.774863951697725,
Subset1,5,,,,,,Stimuli/neutral_55.png,neutral_man_woman,Stimuli/neutral_54.png,blue,4,4,45,0,0,0,0,,,,,0,105,105,89,,,,,1.37711011071741,1.2818964419236218,567.5168178000022,None,567.5168178000022,None,,,,,,,,,,568.9143215000076,570.195733600005,570.195733600005,None,2,0,1.2935062400065362,None,570.195733600005,None,False,None,None,None,0.7260644999914803,,,IA6LI11,1,Serial_COM3,C:\Users\EEG\Desktop\FINALCoScienceTasksLogfiles\,2022_Jan_05_1149,Stroop,2020.1.3,59.774863951697725,
Subset1,5,,,,,,Stimuli/couple_65.png,erotic_couple,Stimuli/couple_61.png,green,1,2,26,0,0,0,0,,,,,0,106,106,69,,,,,1.2977848879535445,1.333729258388817,570.9527710000111,None,570.9527710000111,None,,,,,,,,,,572.2936126999994,573.6324197000067,573.6152261000097,None,1,1,1.3403052099893102,None,573.6152261000097,None,False,None,None,None,0.6786056999990251,,,IA6LI11,1,Serial_COM3,C:\Users\EEG\Desktop\FINALCoScienceTasksLogfiles\,2022_Jan_05_1149,Stroop,2020.1.3,59.774863951697725,
Subset1,5,,,,,,Stimuli/tree_35.png,tree,Stimuli/tree_32.png,red,2,1,13,0,0,0,0,,,,,0,107,107,15,,,,,1.3650324859710923,1.1887068641192824,574.318386400002,None,574.318386400002,None,,,,,,,,,,575.7046053000086,576.9016871000058,576.8847615000122,None,2,1,1.191236940008821,None,576.8847615000122,None,False,None,None,None,0.6050764999963576,,,IA6LI11,1,Serial_COM3,C:\Users\EEG\Desktop\FINALCoScienceTasksLogfiles\,2022_Jan_05_1149,Stroop,2020.1.3,59.774863951697725,
Subset1,5,,,,,,Stimuli/positiv_25.png,positive_man_woman,Stimuli/positiv_24.png,blue,4,6,62,0,0,0,0,,,,,0,108,108,7,,,,,1.2120064528990298,1.3909094927654806,577.5263360000099,None,577.5263360000099,None,,,,,,,,,,578.7874608999991,580.1877154000103,580.1708186000033,None,4,1,1.398640110011911,None,580.1708186000033,None,False,None,None,None,0.3499093999998877,,,IA6LI11,1,Serial_COM3,C:\Users\EEG\Desktop\FINALCoScienceTasksLogfiles\,2022_Jan_05_1149,Stroop,2020.1.3,59.774863951697725,
Subset1,5,,,,,,Stimuli/positiv_55.png,positive_man_woman,Stimuli/positiv_54.png,blue,4,6,65,0,0,0,0,,,,,0,109,109,47,,,,,1.4435099597871217,1.2363483967257831,580.5402883000061,None,580.5402883000061,None,,,,,,,,,,582.0187712000043,583.2570210999984,583.2399736000079,None,4,1,1.2407354099996155,None,583.2399736000079,None,False,None,None,None,0.44487320000189357,,,IA6LI11,1,Serial_COM3,C:\Users\EEG\Desktop\FINALCoScienceTasksLogfiles\,2022_Jan_05_1149,Stroop,2020.1.3,59.774863951697725,
Subset1,5,,,,,,Stimuli/tree_15.png,tree,Stimuli/tree_11.png,green,1,1,11,0,0,0,0,,,,,0,110,110,106,,,,,1.4404536945490998,1.3970623199611971,583.709652000005,None,583.709652000005,None,,,,,,,,,,585.1809434000024,586.5931291000015,586.5760620000074,None,1,1,1.403718839996145,None,586.5760620000074,None,False,None,None,None,0.6588301999872783,,,IA6LI11,1,Serial_COM3,C:\Users\EEG\Desktop\FINALCoScienceTasksLogfiles\,2022_Jan_05_1149,Stroop,2020.1.3,59.774863951697725,
Subset1,5,,,,,,Stimuli/neutral_15.png,neutral_man_woman,Stimuli/neutral_13.png,yellow,3,4,41,0,0,0,0,,,,,0,111,111,57,,,,,1.3838683454697986,1.2213628000772114,587.2675047000084,None,587.2675047000084,None,,,,,,,,,,588.693823900001,589.929329400009,589.9120771000016,None,3,1,1.2346574099938152,None,589.9120771000016,None,False,None,None,None,0.6802235999930417,,,IA6LI11,1,Serial_COM3,C:\Users\EEG\Desktop\FINALCoScienceTasksLogfiles\,2022_Jan_05_1149,Stroop,2020.1.3,59.774863951697725,
Subset2,3,PracticeStimuli/practice_yellow.png,yellow,3,9,0,PracticeStimuli/practice_black.png,Scramble,,,,,,0,1,1,1,0,0,0,3,,,,,,,,,1.069559065935818,1.143655097851902,620.9426433000044,None,620.9426433000044,None,622.0394634000113,623.1901178999979,623.1731256000057,None,3,1,0.865773800003808,,,,,,,,,,,,,,,,,,590.6150777000003,None,IA6LI11,1,Serial_COM3,C:\Users\EEG\Desktop\FINALCoScienceTasksLogfiles\,2022_Jan_05_1149,Stroop,2020.1.3,59.774863951697725,
Subset2,3,PracticeStimuli/practice_blue.png,blue,4,9,0,PracticeStimuli/practice_black.png,Scramble,,,,,,0,1,1,1,0,1,1,0,,,,,,,,,1.3690189108699404,1.356239764885381,624.0593536000088,None,624.0593536000088,None,625.4505897000054,626.8098966000107,626.7928596999991,None,4,1,0.9689442999952007,,,,,,,,,,,,,,,,,,,,IA6LI11,1,Serial_COM3,C:\Users\EEG\Desktop\FINALCoScienceTasksLogfiles\,2022_Jan_05_1149,Stroop,2020.1.3,59.774863951697725,
Subset2,3,PracticeStimuli/practice_green.png,green,1,9,0,PracticeStimuli/practice_black.png,Scramble,,,,,,0,1,1,1,0,2,2,2,,,,,,,,,1.2172894948444362,1.2146289573628386,627.7791052000102,None,627.7791052000102,None,629.0150008000055,630.2290682000021,630.2290682000021,631.230223400009,None,0,,,,,,,,,,,,,,,,,,,,,IA6LI11,1,Serial_COM3,C:\Users\EEG\Desktop\FINALCoScienceTasksLogfiles\,2022_Jan_05_1149,Stroop,2020.1.3,59.774863951697725,
Subset2,3,PracticeStimuli/practice_red.png,red,2,9,0,PracticeStimuli/practice_black.png,Scramble,,,,,,0,1,1,1,0,3,3,1,,,,,,,,,1.3293327923002496,1.4709121081903709,631.2464940000064,None,631.2464940000064,None,632.5920828000089,634.06577500001,634.0485803000047,None,2,1,0.4216883000044618,,,,,,,,,,,,,,,,,,,,IA6LI11,1,Serial_COM3,C:\Users\EEG\Desktop\FINALCoScienceTasksLogfiles\,2022_Jan_05_1149,Stroop,2020.1.3,59.774863951697725,
Subset2,3,PracticeStimuli/practice_blue.png,blue,4,9,0,PracticeStimuli/practice_black.png,Scramble,,,,,,0,1,1,1,1,0,4,0,,,,,,,,,1.147402183327299,1.2101853496673254,634.5016332000087,None,634.5016332000087,None,635.6623662000056,636.8845203000092,636.8685086000041,None,4,1,0.5501309999963269,,,,,,,,,,,,,,,,,,,,IA6LI11,1,Serial_COM3,C:\Users\EEG\Desktop\FINALCoScienceTasksLogfiles\,2022_Jan_05_1149,Stroop,2020.1.3,59.774863951697725,
Subset2,3,PracticeStimuli/practice_red.png,red,2,9,0,PracticeStimuli/practice_black.png,Scramble,,,,,,0,1,1,1,1,1,5,1,,,,,,,,,1.2347712250467344,1.243317915704083,637.4203125000058,None,637.4203125000058,None,638.6822144000034,639.9373538000073,639.9203645000089,None,2,1,0.5674417999980506,,,,,,,,,,,,,,,,,,,,IA6LI11,1,Serial_COM3,C:\Users\EEG\Desktop\FINALCoScienceTasksLogfiles\,2022_Jan_05_1149,Stroop,2020.1.3,59.774863951697725,
Subset2,3,PracticeStimuli/practice_green.png,green,1,9,0,PracticeStimuli/practice_black.png,Scramble,,,,,,0,1,1,1,1,2,6,2,,,,,,,,,1.175566219765768,1.2093510996008887,640.5063285000069,None,640.5063285000069,None,641.6972852000035,642.9065676000027,642.8895017000032,None,1,1,0.7324041999963811,,,,,,,,,,,,,,,,,,,,IA6LI11,1,Serial_COM3,C:\Users\EEG\Desktop\FINALCoScienceTasksLogfiles\,2022_Jan_05_1149,Stroop,2020.1.3,59.774863951697725,
Subset2,3,PracticeStimuli/practice_yellow.png,yellow,3,9,0,PracticeStimuli/practice_black.png,Scramble,,,,,,0,1,1,1,1,3,7,3,,,,,,,,,1.4004883498788354,1.423733606412361,643.6529579000053,None,643.6529579000053,None,645.0622688000003,646.4929179000028,646.4758888000069,None,3,1,0.6662367999961134,,,,,,,,,,,,,,,,,,,,IA6LI11,1,Serial_COM3,C:\Users\EEG\Desktop\FINALCoScienceTasksLogfiles\,2022_Jan_05_1149,Stroop,2020.1.3,59.774863951697725,
Subset2,3,PracticeStimuli/practice_blue.png,blue,4,9,0,PracticeStimuli/practice_black.png,Scramble,,,,,,0,1,1,1,2,0,8,0,,,,,,,,,1.2543774440879263,1.2621657899724168,647.1617716000037,None,647.1617716000037,None,648.4316118999996,649.6952130999998,649.6952130999998,None,2,0,0.6508986000117147,,,,,,,,,,,,,,,,,,,,IA6LI11,1,Serial_COM3,C:\Users\EEG\Desktop\FINALCoScienceTasksLogfiles\,2022_Jan_05_1149,Stroop,2020.1.3,59.774863951697725,
Subset2,3,PracticeStimuli/practice_green.png,green,1,9,0,PracticeStimuli/practice_black.png,Scramble,,,,,,0,1,1,1,2,1,9,2,,,,,,,,,1.365959181488668,1.4284226081100027,650.3643343000003,None,650.3643343000003,None,651.7393337000103,653.18147950001,653.1480387000047,None,1,1,0.6102538999984972,,,,,,,,,,,,,,,,,,,,IA6LI11,1,Serial_COM3,C:\Users\EEG\Desktop\FINALCoScienceTasksLogfiles\,2022_Jan_05_1149,Stroop,2020.1.3,59.774863951697725,
Subset2,3,PracticeStimuli/practice_yellow.png,yellow,3,9,0,PracticeStimuli/practice_black.png,Scramble,,,,,,0,1,1,1,2,2,10,3,,,,,,,,,1.3195669127944114,1.2615046952506828,653.7839787000121,None,653.7839787000121,None,655.1300619000103,656.4010172999988,656.3840640999988,None,3,1,0.6158437999984017,,,,,,,,,,,,,,,,,,,,IA6LI11,1,Serial_COM3,C:\Users\EEG\Desktop\FINALCoScienceTasksLogfiles\,2022_Jan_05_1149,Stroop,2020.1.3,59.774863951697725,
Subset2,3,PracticeStimuli/practice_red.png,red,2,9,0,PracticeStimuli/practice_black.png,Scramble,,,,,,0,1,1,1,2,3,11,1,,,,,,,,,1.0831167235276387,1.1379314647078498,657.0199579000036,None,657.0199579000036,None,658.1119646000006,659.2535118000087,659.2364970000053,None,2,1,0.5433736000122735,,,,,,,,,,,,,,,,,,,,IA6LI11,1,Serial_COM3,C:\Users\EEG\Desktop\FINALCoScienceTasksLogfiles\,2022_Jan_05_1149,Stroop,2020.1.3,59.774863951697725,
Subset2,3,,,,,,Stimuli/tree_25.png,tree,Stimuli/tree_22.png,red,2,1,12,0,1,1,1,,,,,0,0,0,95,,,,,1.1859837446978014,1.4550899524435668,659.8708018000034,None,659.8708018000034,None,,,,,,,,None,,661.0938428000081,662.5563370000018,662.5392248999997,None,2,1,1.4548509400046896,None,662.5392248999997,None,False,None,None,None,0.5500865999929374,,,IA6LI11,1,Serial_COM3,C:\Users\EEG\Desktop\FINALCoScienceTasksLogfiles\,2022_Jan_05_1149,Stroop,2020.1.3,59.774863951697725,
Subset2,3,,,,,,Stimuli/man_75.png,erotic_man,Stimuli/man_71.png,green,1,3,37,0,1,1,1,,,,,0,1,1,26,,,,,1.2066169171730494,1.316429942192157,663.1109700000088,None,663.1109700000088,None,,,,,,,,,,664.3455620000022,665.6754995000083,665.6584408000053,None,1,1,1.324052340016351,None,665.6584408000053,None,False,None,None,None,0.5773560000088764,,,IA6LI11,1,Serial_COM3,C:\Users\EEG\Desktop\FINALCoScienceTasksLogfiles\,2022_Jan_05_1149,Stroop,2020.1.3,59.774863951697725,
Subset2,3,,,,,,Stimuli/man_25.png,erotic_man,Stimuli/man_23.png,yellow,3,3,32,0,1,1,1,,,,,0,2,2,81,,,,,1.2346077855369648,1.4422158560040872,666.2606379000063,None,666.2606379000063,None,,,,,,,,,,667.5444253000023,668.9948431000084,668.9778800000058,None,3,1,1.4483523099916056,None,668.9778800000058,None,False,None,None,None,0.49203290000150446,,,IA6LI11,1,Serial_COM3,C:\Users\EEG\Desktop\FINALCoScienceTasksLogfiles\,2022_Jan_05_1149,Stroop,2020.1.3,59.774863951697725,
Subset2,3,,,,,,Stimuli/tree_25.png,tree,Stimuli/tree_23.png,yellow,3,1,12,0,1,1,1,,,,,0,3,3,105,,,,,1.071998984861118,1.18901219158862,669.497549000007,None,669.497549000007,None,,,,,,,,,,670.5974535999994,671.7971610000095,671.7802413000027,None,3,1,1.195849840019946,None,671.7802413000027,None,False,None,None,None,0.7694881000061287,,,IA6LI11,1,Serial_COM3,C:\Users\EEG\Desktop\FINALCoScienceTasksLogfiles\,2022_Jan_05_1149,Stroop,2020.1.3,59.774863951697725,
Subset2,3,,,,,,Stimuli/woman_45.png,erotic_woman,Stimuli/woman_43.png,yellow,3,7,74,0,1,1,1,,,,,0,4,4,21,,,,,1.3459035535271722,1.380705903692073,672.5877654000069,None,672.5877654000069,None,,,,,,,,,,673.9831787000003,675.3668307000044,675.3499538000033,None,3,1,1.380313510002452,None,675.3499538000033,None,False,None,None,None,0.6448928000027081,,,IA6LI11,1,Serial_COM3,C:\Users\EEG\Desktop\FINALCoScienceTasksLogfiles\,2022_Jan_05_1149,Stroop,2020.1.3,59.774863951697725,
Subset2,3,,,,,,Stimuli/neutral_couple_15.png,neutral_couple,Stimuli/neutral_couple_14.png,blue,4,5,51,0,1,1,1,,,,,0,5,5,89,,,,,1.3582286268500894,1.4520261095109834,676.0254462000012,None,676.0254462000012,None,,,,,,,,,,677.4049267000082,678.869711899999,678.852727999998,679.8535727999988,None,0,1.4599442400067346,2.4607845400169026,678.852727999998,679.8535727999988,False,None,None,None,,,,IA6LI11,1,Serial_COM3,C:\Users\EEG\Desktop\FINALCoScienceTasksLogfiles\,2022_Jan_05_1149,Stroop,2020.1.3,59.774863951697725,
Subset2,3,,,,,,Stimuli/woman_45.png,erotic_woman,Stimuli/woman_44.png,blue,4,7,74,0,1,1,1,,,,,0,6,6,47,,,,,1.0277575545437814,1.439434242428907,679.8721726000076,None,679.8721726000076,None,,,,,,,,,,680.9311023000046,682.3727747000084,682.3556867000007,None,4,1,1.4470299100066768,None,682.3556867000007,None,False,None,None,None,0.43619639999815263,,,IA6LI11,1,Serial_COM3,C:\Users\EEG\Desktop\FINALCoScienceTasksLogfiles\,2022_Jan_05_1149,Stroop,2020.1.3,59.774863951697725,
Subset2,3,,,,,,Stimuli/neutral_15.png,neutral_man_woman,Stimuli/neutral_11.png,green,1,4,41,0,1,1,1,,,,,0,7,7,5,,,,,1.2789902690195691,1.1343942201601744,682.8256021999987,None,682.8256021999987,None,,,,,,,,,,684.127287100011,685.2750798000052,685.2580719000107,None,1,1,1.1420871400041506,None,685.2580719000107,None,False,None,None,None,0.6747199999954319,,,IA6LI11,1,Serial_COM3,C:\Users\EEG\Desktop\FINALCoScienceTasksLogfiles\,2022_Jan_05_1149,Stroop,2020.1.3,59.774863951697725,
Subset2,3,,,,,,Stimuli/positiv_15.png,positive_man_woman,Stimuli/positiv_12.png,red,2,6,61,0,1,1,1,,,,,0,8,8,61,,,,,1.2955027826475067,1.2236360339468024,685.9656143000029,None,685.9656143000029,None,,,,,,,,,,687.2919114000106,688.5278823999979,688.5107771000039,None,2,1,1.2350383400043938,None,688.5107771000039,None,False,None,None,None,0.6030442000046605,,,IA6LI11,1,Serial_COM3,C:\Users\EEG\Desktop\FINALCoScienceTasksLogfiles\,2022_Jan_05_1149,Stroop,2020.1.3,59.774863951697725,
Subset2,3,,,,,,Stimuli/couple_15.png,erotic_couple,Stimuli/couple_13.png,yellow,3,2,21,0,1,1,1,,,,,0,9,9,64,,,,,1.4408701644436697,1.4151261203205174,689.1507044000027,None,689.1507044000027,None,,,,,,,,,,690.6255692999985,692.0474084000016,692.0303638000041,None,3,1,1.4258503099990776,None,692.0303638000041,None,False,None,None,None,0.5637448000052245,,,IA6LI11,1,Serial_COM3,C:\Users\EEG\Desktop\FINALCoScienceTasksLogfiles\,2022_Jan_05_1149,Stroop,2020.1.3,59.774863951697725,
Subset2,3,,,,,,Stimuli/woman_25.png,erotic_woman,Stimuli/woman_22.png,red,2,7,72,0,1,1,1,,,,,0,10,10,32,,,,,1.0389147201491025,1.3759230942918539,692.6165934000019,None,692.6165934000019,None,,,,,,,,,,693.7001004000049,695.0833285000117,695.0662931000115,None,2,1,1.380487610003911,None,695.0662931000115,None,False,None,None,None,0.530735199994524,,,IA6LI11,1,Serial_COM3,C:\Users\EEG\Desktop\FINALCoScienceTasksLogfiles\,2022_Jan_05_1149,Stroop,2020.1.3,59.774863951697725,
Subset2,3,,,,,,Stimuli/couple_25.png,erotic_couple,Stimuli/couple_24.png,blue,4,2,22,0,1,1,1,,,,,0,11,11,35,,,,,1.2616720368664334,1.076222904641352,695.6197098999983,None,695.6197098999983,None,,,,,,,,,,696.908428900002,697.9854424000077,697.9854424000077,None,4,1,1.085681240001577,None,697.9854424000077,None,False,None,None,None,0.9015176999964751,,,IA6LI11,1,Serial_COM3,C:\Users\EEG\Desktop\FINALCoScienceTasksLogfiles\,2022_Jan_05_1149,Stroop,2020.1.3,59.774863951697725,
Subset2,3,,,,,,Stimuli/couple_35.png,erotic_couple,Stimuli/couple_33.png,yellow,3,2,23,0,1,1,1,,,,,0,12,12,16,,,,,1.0312228588878332,1.1115825995985056,698.9060749000055,None,698.9060749000055,None,,,,,,,,,,699.9756558000081,701.0879228999984,701.0879228999984,None,3,1,1.1223060099873692,None,701.0879228999984,None,False,None,None,None,0.6062856999924406,,,IA6LI11,1,Serial_COM3,C:\Users\EEG\Desktop\FINALCoScienceTasksLogfiles\,2022_Jan_05_1149,Stroop,2020.1.3,59.774863951697725,
Subset2,3,,,,,,Stimuli/neutral_85.png,neutral_man_woman,Stimuli/neutral_81.png,green,1,4,48,0,1,1,1,,,,,0,13,13,110,,,,,1.2897504246306433,1.3833131946174366,701.7246012000105,None,701.7246012000105,None,,,,,,,,,,703.0455280000024,704.4411178000009,704.4239559999987,None,1,1,1.3877733400149737,None,704.4239559999987,None,False,None,None,None,0.7651932000007946,,,IA6LI11,1,Serial_COM3,C:\Users\EEG\Desktop\FINALCoScienceTasksLogfiles\,2022_Jan_05_1149,Stroop,2020.1.3,59.774863951697725,
Subset2,3,,,,,,Stimuli/neutral_couple_55.png,neutral_couple,Stimuli/neutral_couple_51.png,green,1,5,55,0,1,1,1,,,,,0,14,14,57,,,,,1.0746324982541884,1.322529673379393,705.210407000006,None,705.210407000006,None,,,,,,,,,,706.3084397000057,707.6437271000032,707.6266691000055,None,1,1,1.3340731400094228,None,707.6266691000055,None,False,None,None,None,0.7593056000041543,,,IA6LI11,1,Serial_COM3,C:\Users\EEG\Desktop\FINALCoScienceTasksLogfiles\,2022_Jan_05_1149,Stroop,2020.1.3,59.774863951697725,
Subset2,3,,,,,,Stimuli/couple_65.png,erotic_couple,Stimuli/couple_63.png,yellow,3,2,26,0,1,1,1,,,,,0,15,15,75,,,,,1.243571692382509,1.3583215506110804,708.4133719000092,None,708.4133719000092,None,,,,,,,,,,709.6867345000064,711.0465357000066,711.0294668999995,None,3,1,1.3675247100036358,None,711.0294668999995,None,False,None,None,None,0.5263967999926535,,,IA6LI11,1,Serial_COM3,C:\Users\EEG\Desktop\FINALCoScienceTasksLogfiles\,2022_Jan_05_1149,Stroop,2020.1.3,59.774863951697725,
Subset2,3,,,,,,Stimuli/woman_75.png,erotic_woman,Stimuli/woman_72.png,red,2,7,77,0,1,1,1,,,,,0,16,16,66,,,,,1.1470967897910596,1.2829076875630292,711.5871099000069,None,711.5871099000069,None,,,,,,,,,,712.7840875000111,714.0823295000009,714.0654528000014,715.0661671999987,None,0,1.2928273100114893,2.2935081100004027,714.0654528000014,715.0661671999987,False,None,None,None,,,,IA6LI11,1,Serial_COM3,C:\Users\EEG\Desktop\FINALCoScienceTasksLogfiles\,2022_Jan_05_1149,Stroop,2020.1.3,59.774863951697725,
Subset2,3,,,,,,Stimuli/neutral_couple_65.png,neutral_couple,Stimuli/neutral_couple_63.png,yellow,3,5,56,0,1,1,1,,,,,0,17,17,14,,,,,1.2892158167362244,1.2949204355916353,715.0846306000021,None,715.0846306000021,None,,,,,,,,,,716.4039353999979,717.7018215999997,717.7018215999997,None,3,1,1.3102948400046444,None,717.7018215999997,None,False,None,None,None,0.6626279999909457,,,IA6LI11,1,Serial_COM3,C:\Users\EEG\Desktop\FINALCoScienceTasksLogfiles\,2022_Jan_05_1149,Stroop,2020.1.3,59.774863951697725,
Subset2,3,,,,,,Stimuli/positiv_65.png,positive_man_woman,Stimuli/positiv_62.png,red,2,6,66,0,1,1,1,,,,,0,18,18,0,,,,,1.4529241288600996,1.0385121824695904,718.3883244000026,None,718.3883244000026,None,,,,,,,,,,719.8906480000005,720.9380822000094,720.9210871000105,None,2,1,1.0420593099843245,None,720.9210871000105,None,False,None,None,None,0.4376864999940153,,,IA6LI11,1,Serial_COM3,C:\Users\EEG\Desktop\FINALCoScienceTasksLogfiles\,2022_Jan_05_1149,Stroop,2020.1.3,59.774863951697725,
Subset2,3,,,,,,Stimuli/positiv_45.png,positive_man_woman,Stimuli/positiv_42.png,red,2,6,64,0,1,1,1,,,,,0,19,19,38,,,,,1.2355901128206976,1.0730728836634467,721.3952583000064,None,721.3952583000064,None,,,,,,,,,,722.674815300008,723.7571814000112,723.7401397000067,None,2,1,1.0778312100010226,None,723.7401397000067,None,False,None,None,None,0.36847480000869837,,,IA6LI11,1,Serial_COM3,C:\Users\EEG\Desktop\FINALCoScienceTasksLogfiles\,2022_Jan_05_1149,Stroop,2020.1.3,59.774863951697725,
Subset2,3,,,,,,Stimuli/couple_75.png,erotic_couple,Stimuli/couple_71.png,green,1,2,27,0,1,1,1,,,,,0,20,20,86,,,,,1.1880410372366041,1.1296756930617078,724.1426803000068,None,724.1426803000068,None,,,,,,,,,,725.3631582000089,726.4923607000092,726.4923607000092,None,3,0,1.140415040004882,None,726.4923607000092,None,False,None,None,None,0.8904116000048816,,,IA6LI11,1,Serial_COM3,C:\Users\EEG\Desktop\FINALCoScienceTasksLogfiles\,2022_Jan_05_1149,Stroop,2020.1.3,59.774863951697725,
Subset2,3,,,,,,Stimuli/neutral_85.png,neutral_man_woman,Stimuli/neutral_84.png,blue,4,4,48,0,1,1,1,,,,,0,21,21,42,,,,,1.4604773224357035,1.4276283894048505,727.4122713000106,None,727.4122713000106,None,,,,,,,,,,728.8967205000081,730.3292629000061,730.3122073999984,731.3134500000015,None,0,1.4277577399916481,2.4290135399933206,730.3122073999984,731.3134500000015,False,None,None,None,,,,IA6LI11,1,Serial_COM3,C:\Users\EEG\Desktop\FINALCoScienceTasksLogfiles\,2022_Jan_05_1149,Stroop,2020.1.3,59.774863951697725,
Subset2,3,,,,,,Stimuli/neutral_couple_75.png,neutral_couple,Stimuli/neutral_couple_71.png,green,1,5,57,0,1,1,1,,,,,0,22,22,30,,,,,1.1364937189098328,1.4915535810762521,731.3339999000018,None,731.3339999000018,None,,,,,,,,,,732.4958311000082,733.9992920000077,733.9819082000031,None,1,1,1.5022262400016189,None,733.9819082000031,None,False,None,None,None,0.5751544999948237,,,IA6LI11,1,Serial_COM3,C:\Users\EEG\Desktop\FINALCoScienceTasksLogfiles\,2022_Jan_05_1149,Stroop,2020.1.3,59.774863951697725,
Subset2,3,,,,,,Stimuli/neutral_couple_25.png,neutral_couple,Stimuli/neutral_couple_23.png,yellow,3,5,52,0,1,1,1,,,,,0,23,23,23,,,,,1.490557575507255,1.1354653080652135,734.5851223000063,None,734.5851223000063,None,,,,,,,,,,736.1053208000085,737.2523193000088,737.2346514000092,None,3,1,1.139830140004051,None,737.2346514000092,None,False,None,None,None,0.4691439000016544,,,IA6LI11,1,Serial_COM3,C:\Users\EEG\Desktop\FINALCoScienceTasksLogfiles\,2022_Jan_05_1149,Stroop,2020.1.3,59.774863951697725,
Subset2,3,,,,,,Stimuli/neutral_25.png,neutral_man_woman,Stimuli/neutral_24.png,blue,4,4,42,0,1,1,1,,,,,0,24,24,25,,,,,1.2011132478816566,1.3774142227216688,737.7423979000014,None,737.7423979000014,None,,,,,,,,,,738.9747424000088,740.3538970000081,740.3538970000081,741.3548939000029,None,0,1.3891700399981346,2.3901658399990993,740.3538970000081,741.3548939000029,False,None,None,None,,,,IA6LI11,1,Serial_COM3,C:\Users\EEG\Desktop\FINALCoScienceTasksLogfiles\,2022_Jan_05_1149,Stroop,2020.1.3,59.774863951697725,
Subset2,3,,,,,,Stimuli/neutral_55.png,neutral_man_woman,Stimuli/neutral_52.png,red,2,4,45,0,1,1,1,,,,,0,25,25,63,,,,,1.4247598591833006,1.1520255281715057,741.3749471000046,None,741.3749471000046,None,,,,,,,,,,742.8405845000088,744.007297300006,743.9901852000039,None,2,1,1.163840409994009,None,743.9901852000039,None,False,None,None,None,0.5076929999922868,,,IA6LI11,1,Serial_COM3,C:\Users\EEG\Desktop\FINALCoScienceTasksLogfiles\,2022_Jan_05_1149,Stroop,2020.1.3,59.774863951697725,
Subset2,3,,,,,,Stimuli/man_15.png,erotic_man,Stimuli/man_14.png,blue,4,3,31,0,1,1,1,,,,,0,26,26,6,,,,,1.098942991520578,1.2683343156874203,744.5266796000069,None,744.5266796000069,None,,,,,,,,,,745.6470532000094,746.9264070000063,746.909367500004,None,4,1,1.2723945399920922,None,746.909367500004,None,False,None,None,None,0.6864256000117166,,,IA6LI11,1,Serial_COM3,C:\Users\EEG\Desktop\FINALCoScienceTasksLogfiles\,2022_Jan_05_1149,Stroop,2020.1.3,59.774863951697725,
Subset2,3,,,,,,Stimuli/woman_55.png,erotic_woman,Stimuli/woman_52.png,red,2,7,75,0,1,1,1,,,,,0,27,27,33,,,,,1.4085033306076586,1.4608092309497425,747.6339524000068,None,747.6339524000068,None,,,,,,,,,,749.0653453999985,750.5290074000077,750.5290074000077,None,2,1,1.4753211400093278,None,750.5290074000077,None,False,None,None,None,0.4029360999993514,,,IA6LI11,1,Serial_COM3,C:\Users\EEG\Desktop\FINALCoScienceTasksLogfiles\,2022_Jan_05_1149,Stroop,2020.1.3,59.774863951697725,
Subset2,3,,,,,,Stimuli/positiv_75.png,positive_man_woman,Stimuli/positiv_74.png,blue,4,6,67,0,1,1,1,,,,,0,28,28,31,,,,,1.2300907679259248,1.439842931010464,750.9703694000054,None,750.9703694000054,None,,,,,,,,,,752.2452819000027,753.6987121999991,753.6815726000059,None,4,1,1.4536349099944346,None,753.6815726000059,None,False,None,None,None,0.4712391000066418,,,IA6LI11,1,Serial_COM3,C:\Users\EEG\Desktop\FINALCoScienceTasksLogfiles\,2022_Jan_05_1149,Stroop,2020.1.3,59.774863951697725,
Subset2,3,,,,,,Stimuli/neutral_couple_25.png,neutral_couple,Stimuli/neutral_couple_23.png,yellow,3,5,52,0,1,1,1,,,,,0,29,29,85,,,,,1.2324716411634393,1.0464595516243973,754.1848181000096,None,754.1848181000096,None,,,,,,,,,,755.4448960000009,756.5011009000009,756.4840155999991,757.484738900006,None,0,1.0594933099928312,2.0601726099994266,756.4840155999991,757.484738900006,False,None,None,None,,,,IA6LI11,1,Serial_COM3,C:\Users\EEG\Desktop\FINALCoScienceTasksLogfiles\,2022_Jan_05_1149,Stroop,2020.1.3,59.774863951697725,
Subset2,3,,,,,,Stimuli/positiv_45.png,positive_man_woman,Stimuli/positiv_44.png,blue,4,6,64,0,1,1,1,,,,,0,30,30,18,,,,,1.1256194249869709,1.4087467106771494,757.5032859000057,None,757.5032859000057,None,,,,,,,,,,758.657134100009,760.0702820000006,760.0702820000006,761.0711089000106,None,0,1.4227714400185505,2.423586740027531,760.0702820000006,761.0711089000106,False,None,None,None,,,,IA6LI11,1,Serial_COM3,C:\Users\EEG\Desktop\FINALCoScienceTasksLogfiles\,2022_Jan_05_1149,Stroop,2020.1.3,59.774863951697725,
Subset2,3,,,,,,Stimuli/neutral_65.png,neutral_man_woman,Stimuli/neutral_62.png,red,2,4,46,0,1,1,1,,,,,0,31,31,1,,,,,1.4792465387984888,1.4929047275048999,761.0895904000063,None,761.0895904000063,None,,,,,,,,,,762.6037091000035,764.1073214000062,764.0902313000115,None,2,1,1.503017409995664,None,764.0902313000115,None,False,None,None,None,0.33000869999523275,,,IA6LI11,1,Serial_COM3,C:\Users\EEG\Desktop\FINALCoScienceTasksLogfiles\,2022_Jan_05_1149,Stroop,2020.1.3,59.774863951697725,
Subset2,3,,,,,,Stimuli/woman_15.png,erotic_woman,Stimuli/woman_11.png,green,1,7,71,0,1,1,1,,,,,0,32,32,98,,,,,1.2959199243973323,1.2780734023197573,764.4431523000094,None,764.4431523000094,None,,,,,,,,,,765.775693100004,767.0598509999982,767.0427373999992,None,1,1,1.2830692099960288,None,767.0427373999992,None,False,None,None,None,0.6741836000001058,,,IA6LI11,1,Serial_COM3,C:\Users\EEG\Desktop\FINALCoScienceTasksLogfiles\,2022_Jan_05_1149,Stroop,2020.1.3,59.774863951697725,
Subset2,3,,,,,,Stimuli/couple_15.png,erotic_couple,Stimuli/couple_12.png,red,2,2,21,0,1,1,1,,,,,0,33,33,69,,,,,1.337069126749437,1.3903348236710933,767.7461256000097,None,767.7461256000097,None,,,,,,,,,,769.1222017000109,770.5126748000039,770.4956990000064,771.496398800009,None,0,1.3966674100083765,2.397338509996189,770.4956990000064,771.496398800009,False,None,None,None,,,,IA6LI11,1,Serial_COM3,C:\Users\EEG\Desktop\FINALCoScienceTasksLogfiles\,2022_Jan_05_1149,Stroop,2020.1.3,59.774863951697725,
Subset2,3,,,,,,Stimuli/man_65.png,erotic_man,Stimuli/man_64.png,blue,4,3,36,0,1,1,1,,,,,0,34,34,92,,,,,1.4770339025422468,1.1428942709918697,771.5186493000074,None,771.5186493000074,None,,,,,,,,,,773.0235393000039,774.1821499000071,774.1486905000056,None,4,1,1.1473587099899305,None,774.1486905000056,None,False,None,None,None,0.3242497000028379,,,IA6LI11,1,Serial_COM3,C:\Users\EEG\Desktop\FINALCoScienceTasksLogfiles\,2022_Jan_05_1149,Stroop,2020.1.3,59.774863951697725,
Subset2,3,,,,,,Stimuli/woman_35.png,erotic_woman,Stimuli/woman_33.png,yellow,3,7,73,0,1,1,1,,,,,0,35,35,83,,,,,1.4689717441414474,1.4822974923722385,774.5062814999983,None,774.5062814999983,None,,,,,,,,,,776.0058781999978,777.5018673000013,777.4847354000085,None,3,1,1.4880505400069524,None,777.4847354000085,None,False,None,None,None,0.5626963999966392,,,IA6LI11,1,Serial_COM3,C:\Users\EEG\Desktop\FINALCoScienceTasksLogfiles\,2022_Jan_05_1149,Stroop,2020.1.3,59.774863951697725,
Subset2,3,,,,,,Stimuli/neutral_85.png,neutral_man_woman,Stimuli/neutral_81.png,green,1,4,48,0,1,1,1,,,,,0,36,36,93,,,,,1.0463096177786178,1.035234688185853,778.0716050000046,None,778.0716050000046,None,,,,,,,,,,779.1431522000057,780.1872890000086,780.1703131000104,None,1,1,1.0345214400003897,None,780.1703131000104,None,False,None,None,None,0.6478253999957815,,,IA6LI11,1,Serial_COM3,C:\Users\EEG\Desktop\FINALCoScienceTasksLogfiles\,2022_Jan_05_1149,Stroop,2020.1.3,59.774863951697725,
Subset2,3,,,,,,Stimuli/woman_55.png,erotic_woman,Stimuli/woman_52.png,red,2,7,75,0,1,1,1,,,,,0,37,37,20,,,,,1.031774223021491,1.4862865268783523,780.8447254000057,None,780.8447254000057,None,,,,,,,,,,781.9110350000119,783.4068230999983,783.389699899999,784.3904986999987,None,0,1.4895109400094952,2.4903067400155123,783.389699899999,784.3904986999987,False,None,None,None,,,,IA6LI11,1,Serial_COM3,C:\Users\EEG\Desktop\FINALCoScienceTasksLogfiles\,2022_Jan_05_1149,Stroop,2020.1.3,59.774863951697725,
Subset2,3,,,,,,Stimuli/positiv_35.png,positive_man_woman,Stimuli/positiv_32.png,red,2,6,63,0,1,1,1,,,,,0,38,38,94,,,,,1.2369678879681398,1.1319409547577624,784.4090070000093,None,784.4090070000093,None,,,,,,,,,,785.6825556000113,786.8262357000058,786.8093189000065,None,2,1,1.1353025400167098,None,786.8093189000065,None,False,None,None,None,0.6147830999980215,,,IA6LI11,1,Serial_COM3,C:\Users\EEG\Desktop\FINALCoScienceTasksLogfiles\,2022_Jan_05_1149,Stroop,2020.1.3,59.774863951697725,
Subset2,3,,,,,,Stimuli/tree_85.png,tree,Stimuli/tree_81.png,green,1,1,18,0,1,1,1,,,,,0,39,39,78,,,,,1.444912463353739,1.3917779090344542,787.4453401000064,None,787.4453401000064,None,,,,,,,,,,788.9303495000058,790.3294850000093,790.3121087000036,None,1,1,1.3947956100018928,None,790.3121087000036,None,False,None,None,None,0.7928033999924082,,,IA6LI11,1,Serial_COM3,C:\Users\EEG\Desktop\FINALCoScienceTasksLogfiles\,2022_Jan_05_1149,Stroop,2020.1.3,59.774863951697725,
Subset2,3,,,,,,Stimuli/man_75.png,erotic_man,Stimuli/man_73.png,yellow,3,3,37,0,1,1,1,,,,,0,40,40,22,,,,,1.2780186771296367,1.1820456546732638,791.1348740000103,None,791.1348740000103,None,,,,,,,,,,792.4358172000066,793.6318573000026,793.6148525000026,None,3,1,1.1897215400240384,None,793.6148525000026,None,False,None,None,None,0.6221145000017714,,,IA6LI11,1,Serial_COM3,C:\Users\EEG\Desktop\FINALCoScienceTasksLogfiles\,2022_Jan_05_1149,Stroop,2020.1.3,59.774863951697725,
Subset2,3,,,,,,Stimuli/couple_65.png,erotic_couple,Stimuli/couple_64.png,blue,4,2,26,0,1,1,1,,,,,0,41,41,76,,,,,1.2866347063058092,1.4079126715318733,794.2726829000021,None,794.2726829000021,None,,,,,,,,,,795.6157542000001,797.0346683000098,797.0176599999977,None,2,0,1.4182877800194547,None,797.0176599999977,None,False,None,None,None,0.8941699999995762,,,IA6LI11,1,Serial_COM3,C:\Users\EEG\Desktop\FINALCoScienceTasksLogfiles\,2022_Jan_05_1149,Stroop,2020.1.3,59.774863951697725,
Subset2,3,,,,,,Stimuli/tree_85.png,tree,Stimuli/tree_81.png,green,1,1,18,0,1,1,1,,,,,0,42,42,70,,,,,1.0711097524074902,1.425057814626963,797.9429565000028,None,797.9429565000028,None,,,,,,,,,,799.0371869000082,800.4708997999987,800.4539734999998,801.4547308000037,None,0,1.4310945400065975,2.43183594000584,800.4539734999998,801.4547308000037,False,None,None,None,,,,IA6LI11,1,Serial_COM3,C:\Users\EEG\Desktop\FINALCoScienceTasksLogfiles\,2022_Jan_05_1149,Stroop,2020.1.3,59.774863951697725,
Subset2,3,,,,,,Stimuli/tree_15.png,tree,Stimuli/tree_13.png,yellow,3,1,11,0,1,1,1,,,,,0,43,43,12,,,,,1.2080008791141799,1.2534592397232818,801.4755775000085,None,801.4755775000085,None,,,,,,,,,,802.7105735000077,803.9738872000016,803.9568073999981,None,3,1,1.257661139999982,None,803.9568073999981,None,False,None,None,None,0.5412260000011884,,,IA6LI11,1,Serial_COM3,C:\Users\EEG\Desktop\FINALCoScienceTasksLogfiles\,2022_Jan_05_1149,Stroop,2020.1.3,59.774863951697725,
Subset2,3,,,,,,Stimuli/neutral_couple_35.png,neutral_couple,Stimuli/neutral_couple_34.png,blue,4,5,53,0,1,1,1,,,,,0,44,44,104,,,,,1.219341354596728,1.4336543417018268,804.52674880001,None,804.52674880001,None,,,,,,,,,,805.7916364000121,807.2266250000102,807.2094354000001,None,4,1,1.4336456100136274,None,807.2094354000001,None,False,None,None,None,0.33248789999925066,,,IA6LI11,1,Serial_COM3,C:\Users\EEG\Desktop\FINALCoScienceTasksLogfiles\,2022_Jan_05_1149,Stroop,2020.1.3,59.774863951697725,
Subset2,3,,,,,,Stimuli/couple_55.png,erotic_couple,Stimuli/couple_53.png,yellow,3,2,25,0,1,1,1,,,,,0,45,45,108,,,,,1.3404539232959498,1.443296800983064,807.5674342999991,None,807.5674342999991,None,,,,,,,,,,808.9343822000083,810.378815300006,810.378815300006,None,3,1,1.4537684400129365,None,810.378815300006,None,False,None,None,None,0.5852780999994138,,,IA6LI11,1,Serial_COM3,C:\Users\EEG\Desktop\FINALCoScienceTasksLogfiles\,2022_Jan_05_1149,Stroop,2020.1.3,59.774863951697725,
Subset2,3,,,,,,Stimuli/neutral_65.png,neutral_man_woman,Stimuli/neutral_63.png,yellow,3,4,46,0,1,1,1,,,,,0,46,46,4,,,,,1.0266217928209496,1.358870651005875,811.0036443999998,None,811.0036443999998,None,,,,,,,,,,812.0488169000018,813.415053100005,813.3979376000061,None,3,1,1.3627013400109718,None,813.3979376000061,None,False,None,None,None,0.5438194000016665,,,IA6LI11,1,Serial_COM3,C:\Users\EEG\Desktop\FINALCoScienceTasksLogfiles\,2022_Jan_05_1149,Stroop,2020.1.3,59.774863951697725,
Subset2,3,,,,,,Stimuli/couple_25.png,erotic_couple,Stimuli/couple_23.png,yellow,3,2,22,0,1,1,1,,,,,0,47,47,13,,,,,1.0269111591061009,1.1633787358982008,813.9720902000117,None,813.9720902000117,None,,,,,,,,,,815.0344244000007,816.2006546000048,816.1835782999988,None,3,1,1.163253309976426,None,816.1835782999988,None,False,None,None,None,0.4853218000062043,,,IA6LI11,1,Serial_COM3,C:\Users\EEG\Desktop\FINALCoScienceTasksLogfiles\,2022_Jan_05_1149,Stroop,2020.1.3,59.774863951697725,
Subset2,3,,,,,,Stimuli/couple_55.png,erotic_couple,Stimuli/couple_51.png,green,1,2,25,0,1,1,1,,,,,0,48,48,9,,,,,1.4108586923163275,1.340186315335658,816.7057286000054,None,816.7057286000054,None,,,,,,,,,,818.1429398000037,819.4862722000107,819.4862722000107,None,1,1,1.351719240003149,None,819.4862722000107,None,False,None,None,None,0.9276251999981469,,,IA6LI11,1,Serial_COM3,C:\Users\EEG\Desktop\FINALCoScienceTasksLogfiles\,2022_Jan_05_1149,Stroop,2020.1.3,59.774863951697725,
Subset2,3,,,,,,Stimuli/woman_45.png,erotic_woman,Stimuli/woman_44.png,blue,4,7,74,0,1,1,1,,,,,0,49,49,99,,,,,1.4802999312634069,1.2245467080750962,820.4443520000059,None,820.4443520000059,None,,,,,,,,,,821.9638381000113,823.1898279000015,823.1726807000086,None,2,0,1.2323665099975187,None,823.1726807000086,None,False,None,None,None,0.5902542999974685,,,IA6LI11,1,Serial_COM3,C:\Users\EEG\Desktop\FINALCoScienceTasksLogfiles\,2022_Jan_05_1149,Stroop,2020.1.3,59.774863951697725,
Subset2,3,,,,,,Stimuli/positiv_15.png,positive_man_woman,Stimuli/positiv_13.png,yellow,3,6,61,0,1,1,1,,,,,0,50,50,109,,,,,1.382429508268613,1.4504523903811983,823.7974828000006,None,823.7974828000006,None,,,,,,,,,,825.2141679000051,826.6759778999985,826.6589997000119,None,3,1,1.4541819400037639,None,826.6589997000119,None,False,None,None,None,0.5231793999992078,,,IA6LI11,1,Serial_COM3,C:\Users\EEG\Desktop\FINALCoScienceTasksLogfiles\,2022_Jan_05_1149,Stroop,2020.1.3,59.774863951697725,
Subset2,3,,,,,,Stimuli/neutral_35.png,neutral_man_woman,Stimuli/neutral_31.png,green,1,4,43,0,1,1,1,,,,,0,51,51,43,,,,,1.215404652244369,1.3427218985150984,827.2169123000058,None,827.2169123000058,None,,,,,,,,,,828.4696611000109,829.8119082000048,829.7949241000024,None,1,1,1.347617609993904,None,829.7949241000024,None,False,None,None,None,0.7221683999960078,,,IA6LI11,1,Serial_COM3,C:\Users\EEG\Desktop\FINALCoScienceTasksLogfiles\,2022_Jan_05_1149,Stroop,2020.1.3,59.774863951697725,
Subset2,3,,,,,,Stimuli/neutral_couple_55.png,neutral_couple,Stimuli/neutral_couple_53.png,yellow,3,5,55,0,1,1,1,,,,,0,52,52,36,,,,,1.3803602276586526,1.127603579134842,830.5484620000061,None,830.5484620000061,None,,,,,,,,,,831.9509177,833.0809769000043,833.0809769000043,None,3,1,1.1416027400118764,None,833.0809769000043,None,False,None,None,None,0.6322290999960387,,,IA6LI11,1,Serial_COM3,C:\Users\EEG\Desktop\FINALCoScienceTasksLogfiles\,2022_Jan_05_1149,Stroop,2020.1.3,59.774863951697725,
Subset2,3,,,,,,Stimuli/neutral_65.png,neutral_man_woman,Stimuli/neutral_64.png,blue,4,4,46,0,1,1,1,,,,,0,53,53,34,,,,,1.031334072334291,1.1128648882108625,833.7385054000042,None,833.7385054000042,None,,,,,,,,,,834.7982537000062,835.9170110999985,835.8999214000069,None,4,1,1.1187360400072066,None,835.8999214000069,None,False,None,None,None,0.8659981000091648,,,IA6LI11,1,Serial_COM3,C:\Users\EEG\Desktop\FINALCoScienceTasksLogfiles\,2022_Jan_05_1149,Stroop,2020.1.3,59.774863951697725,
Subset2,3,,,,,,Stimuli/tree_65.png,tree,Stimuli/tree_62.png,red,2,1,16,0,1,1,1,,,,,0,54,54,2,,,,,1.140457441066029,1.03356799414679,836.7910262000078,None,836.7910262000078,None,,,,,,,,,,837.9536490000028,839.0032139000105,838.9860098000063,None,2,1,1.0464949400047772,None,838.9860098000063,None,False,None,None,None,0.38116569998965133,,,IA6LI11,1,Serial_COM3,C:\Users\EEG\Desktop\FINALCoScienceTasksLogfiles\,2022_Jan_05_1149,Stroop,2020.1.3,59.774863951697725,
Subset2,3,,,,,,Stimuli/man_85.png,erotic_man,Stimuli/man_83.png,yellow,3,3,38,0,1,1,1,,,,,0,55,55,7,,,,,1.010524436268997,1.3083564924929492,839.3892520000081,None,839.3892520000081,None,,,,,,,,,,840.4245605000033,841.7385976000078,841.7216475000023,None,3,1,1.309112240021932,None,841.7216475000023,None,False,None,None,None,0.5424439000053098,,,IA6LI11,1,Serial_COM3,C:\Users\EEG\Desktop\FINALCoScienceTasksLogfiles\,2022_Jan_05_1149,Stroop,2020.1.3,59.774863951697725,
Subset2,3,,,,,,Stimuli/tree_85.png,tree,Stimuli/tree_82.png,red,2,1,18,0,1,1,1,,,,,0,56,56,80,,,,,1.139752784388063,1.0975017579327255,842.2919973000098,None,842.2919973000098,None,,,,,,,,,,843.4620697000064,844.5742787000054,844.5573109000106,845.5580009000114,None,0,1.1049908400163986,2.105657540014363,844.5573109000106,845.5580009000114,False,None,None,None,,,,IA6LI11,1,Serial_COM3,C:\Users\EEG\Desktop\FINALCoScienceTasksLogfiles\,2022_Jan_05_1149,Stroop,2020.1.3,59.774863951697725,
Subset2,3,,,,,,Stimuli/positiv_45.png,positive_man_woman,Stimuli/positiv_44.png,blue,4,6,64,0,1,1,1,,,,,0,57,57,91,,,,,1.2603803933217572,1.096911304793272,845.578619500011,None,845.578619500011,None,,,,,,,,,,846.8725504000031,847.9770138000022,847.9599449000088,None,4,1,1.1053965099854395,None,847.9599449000088,None,False,None,None,None,0.8250124000041978,,,IA6LI11,1,Serial_COM3,C:\Users\EEG\Desktop\FINALCoScienceTasksLogfiles\,2022_Jan_05_1149,Stroop,2020.1.3,59.774863951697725,
Subset2,3,,,,,,Stimuli/man_35.png,erotic_man,Stimuli/man_31.png,green,1,3,33,0,1,1,1,,,,,0,58,58,29,,,,,1.1852179817523902,1.0124934630446343,848.8133270000108,None,848.8133270000108,None,,,,,,,,,,850.0458861000079,851.0629319,851.0460947000101,None,1,1,1.0160135100013576,None,851.0460947000101,None,False,None,None,None,0.7470266000018455,,,IA6LI11,1,Serial_COM3,C:\Users\EEG\Desktop\FINALCoScienceTasksLogfiles\,2022_Jan_05_1149,Stroop,2020.1.3,59.774863951697725,
Subset2,3,,,,,,Stimuli/positiv_15.png,positive_man_woman,Stimuli/positiv_13.png,yellow,3,6,61,0,1,1,1,,,,,0,59,59,103,,,,,1.2692461165398408,1.0340061325846763,851.8155988000071,None,851.8155988000071,None,,,,,,,,,,853.1141176000092,854.1488687000092,854.131735300005,None,3,1,1.0339600400038762,None,854.131735300005,None,False,None,None,None,0.5541297000017948,,,IA6LI11,1,Serial_COM3,C:\Users\EEG\Desktop\FINALCoScienceTasksLogfiles\,2022_Jan_05_1149,Stroop,2020.1.3,59.774863951697725,
