"Onset","Duration","Participant","date_time","Running","Trial","Event","ImageCondition","ImageFile","Colour","Accuracy","RT","Post_Trial","Post_TrialCondition","TaskPerf"
130.508345000009,1.02351766360185,"IA6LI11","2022_Jan_05_1149","Practice",0,"Fixation","Scramble","","",0,NA,"post_correct","post_neutral_man_woman",76.1160714285714
131.553716499999,1.39151433894153,"IA6LI11","2022_Jan_05_1149","Practice",0,"Picture","Scramble","","",0,NA,"post_correct","post_neutral_man_woman",76.1160714285714
132.948906500009,NA,"IA6LI11","2022_Jan_05_1149","Practice",0,"Target","Scramble","","",0,NA,"post_correct","post_neutral_man_woman",76.1160714285714
133.968146800005,1.16618923930734,"IA6LI11","2022_Jan_05_1149","Practice",1,"Fixation","Scramble","","",1,0.876241500009201,"post_noResponse",NA,76.1160714285714
135.150251300001,1.4324066045776,"IA6LI11","2022_Jan_05_1149","Practice",1,"Picture","Scramble","","",1,0.876241500009201,"post_noResponse",NA,76.1160714285714
136.568654500006,0.876241500009201,"IA6LI11","2022_Jan_05_1149","Practice",1,"Target","Scramble","","",1,0.876241500009201,"post_noResponse",NA,76.1160714285714
137.444896000015,0,"IA6LI11","2022_Jan_05_1149","Practice",1,"Response","Scramble","","",1,0.876241500009201,"post_noResponse",NA,76.1160714285714
137.471466100003,1.35807556449954,"IA6LI11","2022_Jan_05_1149","Practice",2,"Fixation","Scramble","","",0,NA,"post_correct",NA,76.1160714285714
138.853682900008,1.24962209938119,"IA6LI11","2022_Jan_05_1149","Practice",2,"Picture","Scramble","","",0,NA,"post_correct",NA,76.1160714285714
140.088150800002,NA,"IA6LI11","2022_Jan_05_1149","Practice",2,"Target","Scramble","","",0,NA,"post_correct",NA,76.1160714285714
141.106422600002,1.20791484475298,"IA6LI11","2022_Jan_05_1149","Practice",3,"Fixation","Scramble","","",1,0.755512699994142,"post_noResponse",NA,76.1160714285714
142.329964900011,1.4404890330489,"IA6LI11","2022_Jan_05_1149","Practice",3,"Picture","Scramble","","",1,0.755512699994142,"post_noResponse",NA,76.1160714285714
143.774525200002,0.755512699994142,"IA6LI11","2022_Jan_05_1149","Practice",3,"Target","Scramble","","",1,0.755512699994142,"post_noResponse",NA,76.1160714285714
144.530037899996,0,"IA6LI11","2022_Jan_05_1149","Practice",3,"Response","Scramble","","",1,0.755512699994142,"post_noResponse",NA,76.1160714285714
144.560855600008,1.13189704870537,"IA6LI11","2022_Jan_05_1149","Practice",4,"Fixation","Scramble","","",0,NA,"post_correct",NA,76.1160714285714
145.706513099998,1.33540001842155,"IA6LI11","2022_Jan_05_1149","Practice",4,"Picture","Scramble","","",0,NA,"post_correct",NA,76.1160714285714
147.02721510001,NA,"IA6LI11","2022_Jan_05_1149","Practice",4,"Target","Scramble","","",0,NA,"post_correct",NA,76.1160714285714
148.045094300003,1.49673316705529,"IA6LI11","2022_Jan_05_1149","Practice",5,"Fixation","Scramble","","",1,0.947642200000701,"post_noResponse",NA,76.1160714285714
149.549950200002,1.01879215814118,"IA6LI11","2022_Jan_05_1149","Practice",5,"Picture","Scramble","","",1,0.947642200000701,"post_noResponse",NA,76.1160714285714
150.563557600006,0.947642200000701,"IA6LI11","2022_Jan_05_1149","Practice",5,"Target","Scramble","","",1,0.947642200000701,"post_noResponse",NA,76.1160714285714
151.511199800007,0,"IA6LI11","2022_Jan_05_1149","Practice",5,"Response","Scramble","","",1,0.947642200000701,"post_noResponse",NA,76.1160714285714
151.5438325,1.25173238115634,"IA6LI11","2022_Jan_05_1149","Practice",6,"Fixation","Scramble","","",1,0.436104599997634,"post_correct",NA,76.1160714285714
152.807336500002,1.15489650746891,"IA6LI11","2022_Jan_05_1149","Practice",6,"Picture","Scramble","","",1,0.436104599997634,"post_correct",NA,76.1160714285714
153.949705400009,0.436104599997634,"IA6LI11","2022_Jan_05_1149","Practice",6,"Target","Scramble","","",1,0.436104599997634,"post_correct",NA,76.1160714285714
154.385810000007,0,"IA6LI11","2022_Jan_05_1149","Practice",6,"Response","Scramble","","",1,0.436104599997634,"post_correct",NA,76.1160714285714
154.418919800009,1.39426062410496,"IA6LI11","2022_Jan_05_1149","Practice",7,"Fixation","Scramble","","",0,NA,"post_correct",NA,76.1160714285714
155.821746200003,1.11680500953472,"IA6LI11","2022_Jan_05_1149","Practice",7,"Picture","Scramble","","",0,NA,"post_correct",NA,76.1160714285714
156.935599300006,NA,"IA6LI11","2022_Jan_05_1149","Practice",7,"Target","Scramble","","",0,NA,"post_correct",NA,76.1160714285714
157.953722700011,1.33713514652095,"IA6LI11","2022_Jan_05_1149","Practice",8,"Fixation","Scramble","","",1,0.444929999997839,"post_noResponse",NA,76.1160714285714
159.318498599998,1.41886382186813,"IA6LI11","2022_Jan_05_1149","Practice",8,"Picture","Scramble","","",1,0.444929999997839,"post_noResponse",NA,76.1160714285714
160.721979599999,0.444929999997839,"IA6LI11","2022_Jan_05_1149","Practice",8,"Target","Scramble","","",1,0.444929999997839,"post_noResponse",NA,76.1160714285714
161.166909599997,0,"IA6LI11","2022_Jan_05_1149","Practice",8,"Response","Scramble","","",1,0.444929999997839,"post_noResponse",NA,76.1160714285714
161.191040100006,1.39223234941392,"IA6LI11","2022_Jan_05_1149","Practice",9,"Fixation","Scramble","","",0,NA,"post_correct",NA,76.1160714285714
162.594367199999,1.25557049941878,"IA6LI11","2022_Jan_05_1149","Practice",9,"Picture","Scramble","","",0,NA,"post_correct",NA,76.1160714285714
163.84130130001,NA,"IA6LI11","2022_Jan_05_1149","Practice",9,"Target","Scramble","","",0,NA,"post_correct",NA,76.1160714285714
164.85952150001,1.12468231307036,"IA6LI11","2022_Jan_05_1149","Practice",10,"Fixation","Scramble","","",0,NA,"post_noResponse",NA,76.1160714285714
165.996921099999,1.31186382502027,"IA6LI11","2022_Jan_05_1149","Practice",10,"Picture","Scramble","","",0,NA,"post_noResponse",NA,76.1160714285714
167.310720000009,NA,"IA6LI11","2022_Jan_05_1149","Practice",10,"Target","Scramble","","",0,NA,"post_noResponse",NA,76.1160714285714
168.329126700002,1.28072088326309,"IA6LI11","2022_Jan_05_1149","Practice",11,"Fixation","Scramble","","",0,NA,"post_noResponse",NA,76.1160714285714
169.621607599998,1.37908108672499,"IA6LI11","2022_Jan_05_1149","Practice",11,"Picture","Scramble","","",0,NA,"post_noResponse",NA,76.1160714285714
170.980181899999,NA,"IA6LI11","2022_Jan_05_1149","Practice",11,"Target","Scramble","","",0,NA,"post_noResponse",NA,76.1160714285714
171.998907300003,1.08069255748336,"IA6LI11","2022_Jan_05_1149","Practice",12,"Fixation","Scramble","","",0,NA,"post_noResponse",NA,76.1160714285714
173.091035000005,1.34858614267081,"IA6LI11","2022_Jan_05_1149","Practice",12,"Picture","Scramble","","",0,NA,"post_noResponse",NA,76.1160714285714
174.416816800003,NA,"IA6LI11","2022_Jan_05_1149","Practice",12,"Target","Scramble","","",0,NA,"post_noResponse",NA,76.1160714285714
175.435294200011,1.08415384652498,"IA6LI11","2022_Jan_05_1149","Practice",13,"Fixation","Scramble","","",1,0.83709159999853,"post_noResponse",NA,76.1160714285714
176.531285500008,1.42679028675821,"IA6LI11","2022_Jan_05_1149","Practice",13,"Picture","Scramble","","",1,0.83709159999853,"post_noResponse",NA,76.1160714285714
177.952943800003,0.83709159999853,"IA6LI11","2022_Jan_05_1149","Practice",13,"Target","Scramble","","",1,0.83709159999853,"post_noResponse",NA,76.1160714285714
178.790035400002,0,"IA6LI11","2022_Jan_05_1149","Practice",13,"Response","Scramble","","",1,0.83709159999853,"post_noResponse",NA,76.1160714285714
178.822601500011,1.0757481058597,"IA6LI11","2022_Jan_05_1149","Practice",14,"Fixation","Scramble","","",0,NA,"post_correct",NA,76.1160714285714
179.913805600008,1.36281981128286,"IA6LI11","2022_Jan_05_1149","Practice",14,"Picture","Scramble","","",0,NA,"post_correct",NA,76.1160714285714
181.255908200008,NA,"IA6LI11","2022_Jan_05_1149","Practice",14,"Target","Scramble","","",0,NA,"post_correct",NA,76.1160714285714
182.273942700005,1.2113087837786,"IA6LI11","2022_Jan_05_1149","Practice",15,"Fixation","Scramble","","",1,0.930805900003179,"post_noResponse",NA,76.1160714285714
183.499912800005,1.01919722838099,"IA6LI11","2022_Jan_05_1149","Practice",15,"Picture","Scramble","","",1,0.930805900003179,"post_noResponse",NA,76.1160714285714
184.508434200005,0.930805900003179,"IA6LI11","2022_Jan_05_1149","Practice",15,"Target","Scramble","","",1,0.930805900003179,"post_noResponse",NA,76.1160714285714
185.439240100008,0,"IA6LI11","2022_Jan_05_1149","Practice",15,"Response","Scramble","","",1,0.930805900003179,"post_noResponse",NA,76.1160714285714
185.461248500011,1.06798262495324,"IA6LI11","2022_Jan_05_1149","Practice",16,"Fixation","Scramble","","",1,0.53519189999497,"post_correct",NA,76.1160714285714
186.557088600006,1.38305927347266,"IA6LI11","2022_Jan_05_1149","Practice",16,"Picture","Scramble","","",1,0.53519189999497,"post_correct",NA,76.1160714285714
187.927859600008,0.53519189999497,"IA6LI11","2022_Jan_05_1149","Practice",16,"Target","Scramble","","",1,0.53519189999497,"post_correct",NA,76.1160714285714
188.463051500003,0,"IA6LI11","2022_Jan_05_1149","Practice",16,"Response","Scramble","","",1,0.53519189999497,"post_correct",NA,76.1160714285714
188.4803751,1.36013056526585,"IA6LI11","2022_Jan_05_1149","Practice",17,"Fixation","Scramble","","",1,0.805940200007171,"post_correct",NA,76.1160714285714
189.859881100012,1.17085482887079,"IA6LI11","2022_Jan_05_1149","Practice",17,"Picture","Scramble","","",1,0.805940200007171,"post_correct",NA,76.1160714285714
191.01395600001,0.805940200007171,"IA6LI11","2022_Jan_05_1149","Practice",17,"Target","Scramble","","",1,0.805940200007171,"post_correct",NA,76.1160714285714
191.819896200017,0,"IA6LI11","2022_Jan_05_1149","Practice",17,"Response","Scramble","","",1,0.805940200007171,"post_correct",NA,76.1160714285714
191.860706500011,1.17513298173562,"IA6LI11","2022_Jan_05_1149","Practice",18,"Fixation","Scramble","","",0,NA,"post_correct",NA,76.1160714285714
193.061054200007,1.1954365345891,"IA6LI11","2022_Jan_05_1149","Practice",18,"Picture","Scramble","","",0,NA,"post_correct",NA,76.1160714285714
194.249954600004,NA,"IA6LI11","2022_Jan_05_1149","Practice",18,"Target","Scramble","","",0,NA,"post_correct",NA,76.1160714285714
195.268118000007,1.35610416678754,"IA6LI11","2022_Jan_05_1149","Practice",19,"Fixation","Scramble","","",1,0.376739999992424,"post_noResponse",NA,76.1160714285714
196.649674900007,1.29222773542887,"IA6LI11","2022_Jan_05_1149","Practice",19,"Picture","Scramble","","",1,0.376739999992424,"post_noResponse",NA,76.1160714285714
197.936239800008,0.376739999992424,"IA6LI11","2022_Jan_05_1149","Practice",19,"Target","Scramble","","",1,0.376739999992424,"post_noResponse",NA,76.1160714285714
198.3129798,0,"IA6LI11","2022_Jan_05_1149","Practice",19,"Response","Scramble","","",1,0.376739999992424,"post_noResponse",NA,76.1160714285714
213.766392800011,1.1870691198428,"IA6LI11","2022_Jan_05_1149","MainTask",0,"Fixation","neutral_man_woman","neutral_3","blue",0,NA,NA,NA,76.1160714285714
214.986071100007,1.05444170772491,"IA6LI11","2022_Jan_05_1149","MainTask",0,"Picture","neutral_man_woman","neutral_3","blue",0,NA,NA,NA,76.1160714285714
216.034576800012,NA,"IA6LI11","2022_Jan_05_1149","MainTask",0,"Target","neutral_man_woman","neutral_3","blue",0,NA,NA,NA,76.1160714285714
217.053835400002,1.21928738106467,"IA6LI11","2022_Jan_05_1149","MainTask",1,"Fixation","erotic_woman","woman_8","green",0,NA,"post_noResponse","post_neutral_man_woman",76.1160714285714
218.312060600001,1.18934720575568,"IA6LI11","2022_Jan_05_1149","MainTask",1,"Picture","erotic_woman","woman_8","green",0,NA,"post_noResponse","post_neutral_man_woman",76.1160714285714
219.4875703,NA,"IA6LI11","2022_Jan_05_1149","MainTask",1,"Target","erotic_woman","woman_8","green",0,NA,"post_noResponse","post_neutral_man_woman",76.1160714285714
220.510432399999,1.24621639864809,"IA6LI11","2022_Jan_05_1149","MainTask",2,"Fixation","erotic_man","man_1","green",1,0.770243299994036,"post_noResponse","post_erotic_woman",76.1160714285714
221.776986800003,1.1523781861877,"IA6LI11","2022_Jan_05_1149","MainTask",2,"Picture","erotic_man","man_1","green",1,0.770243299994036,"post_noResponse","post_erotic_woman",76.1160714285714
222.923664800008,0.770243299994036,"IA6LI11","2022_Jan_05_1149","MainTask",2,"Target","erotic_man","man_1","green",1,0.770243299994036,"post_noResponse","post_erotic_woman",76.1160714285714
223.693908100002,0,"IA6LI11","2022_Jan_05_1149","MainTask",2,"Response","erotic_man","man_1","green",1,0.770243299994036,"post_noResponse","post_erotic_woman",76.1160714285714
223.732416400002,1.10367867392574,"IA6LI11","2022_Jan_05_1149","MainTask",3,"Fixation","neutral_man_woman","neutral_6","blue",0,NA,"post_correct","post_erotic_man",76.1160714285714
224.868112299999,1.23289786864813,"IA6LI11","2022_Jan_05_1149","MainTask",3,"Picture","neutral_man_woman","neutral_6","blue",0,NA,"post_correct","post_erotic_man",76.1160714285714
226.092941300012,NA,"IA6LI11","2022_Jan_05_1149","MainTask",3,"Target","neutral_man_woman","neutral_6","blue",0,NA,"post_correct","post_erotic_man",76.1160714285714
227.112421800004,1.10070839677344,"IA6LI11","2022_Jan_05_1149","MainTask",4,"Fixation","tree","tree_3","yellow",0,NA,"post_noResponse","post_neutral_man_woman",76.1160714285714
228.2499866,1.47858808174561,"IA6LI11","2022_Jan_05_1149","MainTask",4,"Picture","tree","tree_3","yellow",0,NA,"post_noResponse","post_neutral_man_woman",76.1160714285714
229.729370700006,NA,"IA6LI11","2022_Jan_05_1149","MainTask",4,"Target","tree","tree_3","yellow",0,NA,"post_noResponse","post_neutral_man_woman",76.1160714285714
230.750942600003,1.36052128574483,"IA6LI11","2022_Jan_05_1149","MainTask",5,"Fixation","erotic_man","man_4","yellow",1,0.655074700000114,"post_noResponse","post_tree",76.1160714285714
232.148674800002,1.17945555684156,"IA6LI11","2022_Jan_05_1149","MainTask",5,"Picture","erotic_man","man_4","yellow",1,0.655074700000114,"post_noResponse","post_tree",76.1160714285714
233.315725600012,0.655074700000114,"IA6LI11","2022_Jan_05_1149","MainTask",5,"Target","erotic_man","man_4","yellow",1,0.655074700000114,"post_noResponse","post_tree",76.1160714285714
233.970800300012,0,"IA6LI11","2022_Jan_05_1149","MainTask",5,"Response","erotic_man","man_4","yellow",1,0.655074700000114,"post_noResponse","post_tree",76.1160714285714
234.00727110001,1.05837959096458,"IA6LI11","2022_Jan_05_1149","MainTask",6,"Fixation","erotic_woman","woman_6","green",0,NA,"post_correct","post_erotic_man",76.1160714285714
235.088824200007,1.1931101361227,"IA6LI11","2022_Jan_05_1149","MainTask",6,"Picture","erotic_woman","woman_6","green",0,NA,"post_correct","post_erotic_man",76.1160714285714
236.284468800004,NA,"IA6LI11","2022_Jan_05_1149","MainTask",6,"Target","erotic_woman","woman_6","green",0,NA,"post_correct","post_erotic_man",76.1160714285714
237.306228800007,1.10293626112195,"IA6LI11","2022_Jan_05_1149","MainTask",7,"Fixation","erotic_man","man_1","blue",0,NA,"post_noResponse","post_erotic_woman",76.1160714285714
238.458178500005,1.22976299653253,"IA6LI11","2022_Jan_05_1149","MainTask",7,"Picture","erotic_man","man_1","blue",0,NA,"post_noResponse","post_erotic_woman",76.1160714285714
239.687593200011,NA,"IA6LI11","2022_Jan_05_1149","MainTask",7,"Target","erotic_man","man_1","blue",0,NA,"post_noResponse","post_erotic_woman",76.1160714285714
240.707347300005,1.39603530188142,"IA6LI11","2022_Jan_05_1149","MainTask",8,"Fixation","neutral_couple","neutral_couple_3","red",1,0.811120300000766,"post_noResponse","post_erotic_man",76.1160714285714
242.141224000006,1.20570957176429,"IA6LI11","2022_Jan_05_1149","MainTask",8,"Picture","neutral_couple","neutral_couple_3","red",1,0.811120300000766,"post_noResponse","post_erotic_man",76.1160714285714
243.340702600006,0.811120300000766,"IA6LI11","2022_Jan_05_1149","MainTask",8,"Target","neutral_couple","neutral_couple_3","red",1,0.811120300000766,"post_noResponse","post_erotic_man",76.1160714285714
244.151822900007,0,"IA6LI11","2022_Jan_05_1149","MainTask",8,"Response","neutral_couple","neutral_couple_3","red",1,0.811120300000766,"post_noResponse","post_erotic_man",76.1160714285714
244.177417800005,1.36820153797277,"IA6LI11","2022_Jan_05_1149","MainTask",9,"Fixation","erotic_couple","couple_2","green",0,NA,"post_correct","post_neutral_couple",76.1160714285714
245.582239700001,1.09928972083251,"IA6LI11","2022_Jan_05_1149","MainTask",9,"Picture","erotic_couple","couple_2","green",0,NA,"post_correct","post_neutral_couple",76.1160714285714
246.6768018,NA,"IA6LI11","2022_Jan_05_1149","MainTask",9,"Target","erotic_couple","couple_2","green",0,NA,"post_correct","post_neutral_couple",76.1160714285714
247.696619900002,1.17995610730023,"IA6LI11","2022_Jan_05_1149","MainTask",10,"Fixation","neutral_man_woman","neutral_7","blue",0,NA,"post_noResponse","post_erotic_couple",76.1160714285714
248.910873800007,1.1751013590318,"IA6LI11","2022_Jan_05_1149","MainTask",10,"Picture","neutral_man_woman","neutral_7","blue",0,NA,"post_noResponse","post_erotic_couple",76.1160714285714
250.0795908,NA,"IA6LI11","2022_Jan_05_1149","MainTask",10,"Target","neutral_man_woman","neutral_7","blue",0,NA,"post_noResponse","post_erotic_couple",76.1160714285714
251.099564100004,1.04700058341187,"IA6LI11","2022_Jan_05_1149","MainTask",11,"Fixation","neutral_man_woman","neutral_2","yellow",1,0.712987700011581,"post_noResponse","post_neutral_man_woman",76.1160714285714
252.184794800007,1.39792682593301,"IA6LI11","2022_Jan_05_1149","MainTask",11,"Picture","neutral_man_woman","neutral_2","yellow",1,0.712987700011581,"post_noResponse","post_neutral_man_woman",76.1160714285714
253.582506800012,0.712987700011581,"IA6LI11","2022_Jan_05_1149","MainTask",11,"Target","neutral_man_woman","neutral_2","yellow",1,0.712987700011581,"post_noResponse","post_neutral_man_woman",76.1160714285714
254.295494500024,0,"IA6LI11","2022_Jan_05_1149","MainTask",11,"Response","neutral_man_woman","neutral_2","yellow",1,0.712987700011581,"post_noResponse","post_neutral_man_woman",76.1160714285714
254.323973200007,1.38563562111646,"IA6LI11","2022_Jan_05_1149","MainTask",12,"Fixation","neutral_couple","neutral_couple_1","green",0,NA,"post_correct","post_neutral_man_woman",76.1160714285714
255.750387100008,1.18969305802865,"IA6LI11","2022_Jan_05_1149","MainTask",12,"Picture","neutral_couple","neutral_couple_1","green",0,NA,"post_correct","post_neutral_man_woman",76.1160714285714
256.935423500006,NA,"IA6LI11","2022_Jan_05_1149","MainTask",12,"Target","neutral_couple","neutral_couple_1","green",0,NA,"post_correct","post_neutral_man_woman",76.1160714285714
257.954630500011,1.27722737975969,"IA6LI11","2022_Jan_05_1149","MainTask",13,"Fixation","erotic_couple","couple_3","red",1,0.917174400005024,"post_noResponse","post_neutral_couple",76.1160714285714
259.287920300005,1.02637135259422,"IA6LI11","2022_Jan_05_1149","MainTask",13,"Picture","erotic_couple","couple_3","red",1,0.917174400005024,"post_noResponse","post_neutral_couple",76.1160714285714
260.304698899999,0.917174400005024,"IA6LI11","2022_Jan_05_1149","MainTask",13,"Target","erotic_couple","couple_3","red",1,0.917174400005024,"post_noResponse","post_neutral_couple",76.1160714285714
261.221873300004,0,"IA6LI11","2022_Jan_05_1149","MainTask",13,"Response","erotic_couple","couple_3","red",1,0.917174400005024,"post_noResponse","post_neutral_couple",76.1160714285714
261.246380000011,1.23096326594108,"IA6LI11","2022_Jan_05_1149","MainTask",14,"Fixation","erotic_woman","woman_4","yellow",1,0.815803700010292,"post_correct","post_erotic_couple",76.1160714285714
262.526383900011,1.47645909617119,"IA6LI11","2022_Jan_05_1149","MainTask",14,"Picture","erotic_woman","woman_4","yellow",1,0.815803700010292,"post_correct","post_erotic_couple",76.1160714285714
263.991078000006,0.815803700010292,"IA6LI11","2022_Jan_05_1149","MainTask",14,"Target","erotic_woman","woman_4","yellow",1,0.815803700010292,"post_correct","post_erotic_couple",76.1160714285714
264.806881700016,0,"IA6LI11","2022_Jan_05_1149","MainTask",14,"Response","erotic_woman","woman_4","yellow",1,0.815803700010292,"post_correct","post_erotic_couple",76.1160714285714
264.827445300005,1.43519683009128,"IA6LI11","2022_Jan_05_1149","MainTask",15,"Fixation","erotic_man","man_2","red",1,0.808741300003021,"post_correct","post_erotic_woman",76.1160714285714
266.298083600006,1.02931658402882,"IA6LI11","2022_Jan_05_1149","MainTask",15,"Picture","erotic_man","man_2","red",1,0.808741300003021,"post_correct","post_erotic_woman",76.1160714285714
267.3273052,0.808741300003021,"IA6LI11","2022_Jan_05_1149","MainTask",15,"Target","erotic_man","man_2","red",1,0.808741300003021,"post_correct","post_erotic_woman",76.1160714285714
268.136046500003,0,"IA6LI11","2022_Jan_05_1149","MainTask",15,"Response","erotic_man","man_2","red",1,0.808741300003021,"post_correct","post_erotic_woman",76.1160714285714
268.163593000005,1.48085180668169,"IA6LI11","2022_Jan_05_1149","MainTask",16,"Fixation","positive_man_woman","positive_8","green",1,0.740517199999886,"post_correct","post_erotic_man",76.1160714285714
269.671984900007,1.05713886755434,"IA6LI11","2022_Jan_05_1149","MainTask",16,"Picture","positive_man_woman","positive_8","green",1,0.740517199999886,"post_correct","post_erotic_man",76.1160714285714
270.713338500005,0.740517199999886,"IA6LI11","2022_Jan_05_1149","MainTask",16,"Target","positive_man_woman","positive_8","green",1,0.740517199999886,"post_correct","post_erotic_man",76.1160714285714
271.453855700005,0,"IA6LI11","2022_Jan_05_1149","MainTask",16,"Response","positive_man_woman","positive_8","green",1,0.740517199999886,"post_correct","post_erotic_man",76.1160714285714
271.487466600011,1.10603104324499,"IA6LI11","2022_Jan_05_1149","MainTask",17,"Fixation","neutral_couple","neutral_couple_2","red",0,0.849037400010275,"post_correct","post_positive_man_woman",76.1160714285714
272.630950200008,1.34742291855747,"IA6LI11","2022_Jan_05_1149","MainTask",17,"Picture","neutral_couple","neutral_couple_2","red",0,0.849037400010275,"post_correct","post_positive_man_woman",76.1160714285714
273.96625730001,0.849037400010275,"IA6LI11","2022_Jan_05_1149","MainTask",17,"Target","neutral_couple","neutral_couple_2","red",0,0.849037400010275,"post_correct","post_positive_man_woman",76.1160714285714
274.81529470002,0,"IA6LI11","2022_Jan_05_1149","MainTask",17,"Response","neutral_couple","neutral_couple_2","red",0,0.849037400010275,"post_correct","post_positive_man_woman",76.1160714285714
274.840323199998,1.43829923873509,"IA6LI11","2022_Jan_05_1149","MainTask",18,"Fixation","neutral_man_woman","neutral_5","green",0,0.792496499998379,"post_error","post_neutral_couple",76.1160714285714
276.307602500005,1.44442188281206,"IA6LI11","2022_Jan_05_1149","MainTask",18,"Picture","neutral_man_woman","neutral_5","green",0,0.792496499998379,"post_error","post_neutral_couple",76.1160714285714
277.752736000009,0.792496499998379,"IA6LI11","2022_Jan_05_1149","MainTask",18,"Target","neutral_man_woman","neutral_5","green",0,0.792496499998379,"post_error","post_neutral_couple",76.1160714285714
278.545232500007,0,"IA6LI11","2022_Jan_05_1149","MainTask",18,"Response","neutral_man_woman","neutral_5","green",0,0.792496499998379,"post_error","post_neutral_couple",76.1160714285714
278.572361300001,1.17902277093297,"IA6LI11","2022_Jan_05_1149","MainTask",19,"Fixation","erotic_couple","couple_3","red",1,0.867836300007184,"post_error","post_neutral_man_woman",76.1160714285714
279.78254320001,1.13756661110104,"IA6LI11","2022_Jan_05_1149","MainTask",19,"Picture","erotic_couple","couple_3","red",1,0.867836300007184,"post_error","post_neutral_man_woman",76.1160714285714
280.905213400009,0.867836300007184,"IA6LI11","2022_Jan_05_1149","MainTask",19,"Target","erotic_couple","couple_3","red",1,0.867836300007184,"post_error","post_neutral_man_woman",76.1160714285714
281.773049700016,0,"IA6LI11","2022_Jan_05_1149","MainTask",19,"Response","erotic_couple","couple_3","red",1,0.867836300007184,"post_error","post_neutral_man_woman",76.1160714285714
281.796738600009,1.2692455001987,"IA6LI11","2022_Jan_05_1149","MainTask",20,"Fixation","erotic_couple","couple_4","yellow",1,0.623115700000199,"post_correct","post_erotic_couple",76.1160714285714
283.0942221,1.40106959193884,"IA6LI11","2022_Jan_05_1149","MainTask",20,"Picture","erotic_couple","couple_4","yellow",1,0.623115700000199,"post_correct","post_erotic_couple",76.1160714285714
284.491651500008,0.623115700000199,"IA6LI11","2022_Jan_05_1149","MainTask",20,"Target","erotic_couple","couple_4","yellow",1,0.623115700000199,"post_correct","post_erotic_couple",76.1160714285714
285.114767200008,0,"IA6LI11","2022_Jan_05_1149","MainTask",20,"Response","erotic_couple","couple_4","yellow",1,0.623115700000199,"post_correct","post_erotic_couple",76.1160714285714
285.148666400011,1.09852968510249,"IA6LI11","2022_Jan_05_1149","MainTask",21,"Fixation","neutral_man_woman","neutral_2","red",0,NA,"post_correct","post_erotic_couple",76.1160714285714
286.2832127,1.24724875304909,"IA6LI11","2022_Jan_05_1149","MainTask",21,"Picture","neutral_man_woman","neutral_2","red",0,NA,"post_correct","post_erotic_couple",76.1160714285714
287.527501400007,NA,"IA6LI11","2022_Jan_05_1149","MainTask",21,"Target","neutral_man_woman","neutral_2","red",0,NA,"post_correct","post_erotic_couple",76.1160714285714
288.54707130001,1.04846236695144,"IA6LI11","2022_Jan_05_1149","MainTask",22,"Fixation","tree","tree_2","red",0,NA,"post_noResponse","post_neutral_man_woman",76.1160714285714
289.631844400006,1.08504946844025,"IA6LI11","2022_Jan_05_1149","MainTask",22,"Picture","tree","tree_2","red",0,NA,"post_noResponse","post_neutral_man_woman",76.1160714285714
290.713407800009,NA,"IA6LI11","2022_Jan_05_1149","MainTask",22,"Target","tree","tree_2","red",0,NA,"post_noResponse","post_neutral_man_woman",76.1160714285714
291.7325862,1.25789699045411,"IA6LI11","2022_Jan_05_1149","MainTask",23,"Fixation","erotic_woman","woman_5","yellow",0,NA,"post_noResponse","post_tree",76.1160714285714
293.02202840001,1.12186547117471,"IA6LI11","2022_Jan_05_1149","MainTask",23,"Picture","erotic_woman","woman_5","yellow",0,NA,"post_noResponse","post_tree",76.1160714285714
294.149532800002,NA,"IA6LI11","2022_Jan_05_1149","MainTask",23,"Target","erotic_woman","woman_5","yellow",0,NA,"post_noResponse","post_tree",76.1160714285714
295.171759900011,1.01739431851732,"IA6LI11","2022_Jan_05_1149","MainTask",24,"Fixation","neutral_couple","neutral_couple_8","green",0,NA,"post_noResponse","post_erotic_woman",76.1160714285714
296.235843000002,1.20418712789511,"IA6LI11","2022_Jan_05_1149","MainTask",24,"Picture","neutral_couple","neutral_couple_8","green",0,NA,"post_noResponse","post_erotic_woman",76.1160714285714
297.435615300012,NA,"IA6LI11","2022_Jan_05_1149","MainTask",24,"Target","neutral_couple","neutral_couple_8","green",0,NA,"post_noResponse","post_erotic_woman",76.1160714285714
298.454920400007,1.35941952061979,"IA6LI11","2022_Jan_05_1149","MainTask",25,"Fixation","positive_man_woman","positive_7","red",1,0.816043800004991,"post_noResponse","post_neutral_couple",76.1160714285714
299.865945500002,1.00495087790589,"IA6LI11","2022_Jan_05_1149","MainTask",25,"Picture","positive_man_woman","positive_7","red",1,0.816043800004991,"post_noResponse","post_neutral_couple",76.1160714285714
300.855105300012,0.816043800004991,"IA6LI11","2022_Jan_05_1149","MainTask",25,"Target","positive_man_woman","positive_7","red",1,0.816043800004991,"post_noResponse","post_neutral_couple",76.1160714285714
301.671149100017,0,"IA6LI11","2022_Jan_05_1149","MainTask",25,"Response","positive_man_woman","positive_7","red",1,0.816043800004991,"post_noResponse","post_neutral_couple",76.1160714285714
301.69222170001,1.43838904805476,"IA6LI11","2022_Jan_05_1149","MainTask",26,"Fixation","positive_man_woman","positive_2","green",1,0.879719100004877,"post_correct","post_positive_man_woman",76.1160714285714
303.17457100001,1.37646650339986,"IA6LI11","2022_Jan_05_1149","MainTask",26,"Picture","positive_man_woman","positive_2","green",1,0.879719100004877,"post_correct","post_positive_man_woman",76.1160714285714
304.541694,0.879719100004877,"IA6LI11","2022_Jan_05_1149","MainTask",26,"Target","positive_man_woman","positive_2","green",1,0.879719100004877,"post_correct","post_positive_man_woman",76.1160714285714
305.421413100005,0,"IA6LI11","2022_Jan_05_1149","MainTask",26,"Response","positive_man_woman","positive_2","green",1,0.879719100004877,"post_correct","post_positive_man_woman",76.1160714285714
305.444657500004,1.44222255776426,"IA6LI11","2022_Jan_05_1149","MainTask",27,"Fixation","tree","tree_2","yellow",1,0.919712700007949,"post_correct","post_positive_man_woman",76.1160714285714
306.913159700009,1.32047276481163,"IA6LI11","2022_Jan_05_1149","MainTask",27,"Picture","tree","tree_2","yellow",1,0.919712700007949,"post_correct","post_positive_man_woman",76.1160714285714
308.228076600004,0.919712700007949,"IA6LI11","2022_Jan_05_1149","MainTask",27,"Target","tree","tree_2","yellow",1,0.919712700007949,"post_correct","post_positive_man_woman",76.1160714285714
309.147789300012,0,"IA6LI11","2022_Jan_05_1149","MainTask",27,"Response","tree","tree_2","yellow",1,0.919712700007949,"post_correct","post_positive_man_woman",76.1160714285714
309.181453900004,1.15903893366465,"IA6LI11","2022_Jan_05_1149","MainTask",28,"Fixation","erotic_woman","woman_3","blue",0,NA,"post_correct","post_tree",76.1160714285714
310.375933700008,1.12505927404365,"IA6LI11","2022_Jan_05_1149","MainTask",28,"Picture","erotic_woman","woman_3","blue",0,NA,"post_correct","post_tree",76.1160714285714
311.49728570001,NA,"IA6LI11","2022_Jan_05_1149","MainTask",28,"Target","erotic_woman","woman_3","blue",0,NA,"post_correct","post_tree",76.1160714285714
312.5166168,1.33687841623335,"IA6LI11","2022_Jan_05_1149","MainTask",29,"Fixation","neutral_man_woman","neutral_6","green",0,NA,"post_noResponse","post_erotic_woman",76.1160714285714
313.887158700003,1.24812991498549,"IA6LI11","2022_Jan_05_1149","MainTask",29,"Picture","neutral_man_woman","neutral_6","green",0,NA,"post_noResponse","post_erotic_woman",76.1160714285714
315.133661100001,NA,"IA6LI11","2022_Jan_05_1149","MainTask",29,"Target","neutral_man_woman","neutral_6","green",0,NA,"post_noResponse","post_erotic_woman",76.1160714285714
316.156656200008,1.15636402018018,"IA6LI11","2022_Jan_05_1149","MainTask",30,"Fixation","neutral_man_woman","neutral_4","green",0,NA,"post_noResponse","post_neutral_man_woman",76.1160714285714
317.338644500007,1.30171483338153,"IA6LI11","2022_Jan_05_1149","MainTask",30,"Picture","neutral_man_woman","neutral_4","green",0,NA,"post_noResponse","post_neutral_man_woman",76.1160714285714
318.636220300003,NA,"IA6LI11","2022_Jan_05_1149","MainTask",30,"Target","neutral_man_woman","neutral_4","green",0,NA,"post_noResponse","post_neutral_man_woman",76.1160714285714
319.659952600006,1.22097131350292,"IA6LI11","2022_Jan_05_1149","MainTask",31,"Fixation","erotic_man","man_6","blue",0,NA,"post_noResponse","post_neutral_man_woman",76.1160714285714
320.910410299999,1.01315834679082,"IA6LI11","2022_Jan_05_1149","MainTask",31,"Picture","erotic_man","man_6","blue",0,NA,"post_noResponse","post_neutral_man_woman",76.1160714285714
321.922741300004,NA,"IA6LI11","2022_Jan_05_1149","MainTask",31,"Target","erotic_man","man_6","blue",0,NA,"post_noResponse","post_neutral_man_woman",76.1160714285714
322.945034000004,1.07293637849312,"IA6LI11","2022_Jan_05_1149","MainTask",32,"Fixation","erotic_couple","couple_4","blue",1,0.740656800000579,"post_noResponse","post_erotic_man",76.1160714285714
324.048640500012,1.08952404844751,"IA6LI11","2022_Jan_05_1149","MainTask",32,"Picture","erotic_couple","couple_4","blue",1,0.740656800000579,"post_noResponse","post_erotic_man",76.1160714285714
325.142145300008,0.740656800000579,"IA6LI11","2022_Jan_05_1149","MainTask",32,"Target","erotic_couple","couple_4","blue",1,0.740656800000579,"post_noResponse","post_erotic_man",76.1160714285714
325.882802100009,0,"IA6LI11","2022_Jan_05_1149","MainTask",32,"Response","erotic_couple","couple_4","blue",1,0.740656800000579,"post_noResponse","post_erotic_man",76.1160714285714
325.912425700008,1.45614595949026,"IA6LI11","2022_Jan_05_1149","MainTask",33,"Fixation","tree","tree_3","blue",1,0.588183300002129,"post_correct","post_erotic_couple",76.1160714285714
327.411336200006,1.40386132021751,"IA6LI11","2022_Jan_05_1149","MainTask",33,"Picture","tree","tree_3","blue",1,0.588183300002129,"post_correct","post_erotic_couple",76.1160714285714
328.811714200012,0.588183300002129,"IA6LI11","2022_Jan_05_1149","MainTask",33,"Target","tree","tree_3","blue",1,0.588183300002129,"post_correct","post_erotic_couple",76.1160714285714
329.399897500014,0,"IA6LI11","2022_Jan_05_1149","MainTask",33,"Response","tree","tree_3","blue",1,0.588183300002129,"post_correct","post_erotic_couple",76.1160714285714
329.431432199999,1.41461680491987,"IA6LI11","2022_Jan_05_1149","MainTask",34,"Fixation","neutral_man_woman","neutral_7","blue",1,0.345649400012917,"post_correct","post_tree",76.1160714285714
330.871727100006,1.02958642737084,"IA6LI11","2022_Jan_05_1149","MainTask",34,"Picture","neutral_man_woman","neutral_7","blue",1,0.345649400012917,"post_correct","post_tree",76.1160714285714
331.881022100002,0.345649400012917,"IA6LI11","2022_Jan_05_1149","MainTask",34,"Target","neutral_man_woman","neutral_7","blue",1,0.345649400012917,"post_correct","post_tree",76.1160714285714
332.226671500015,0,"IA6LI11","2022_Jan_05_1149","MainTask",34,"Response","neutral_man_woman","neutral_7","blue",1,0.345649400012917,"post_correct","post_tree",76.1160714285714
332.254876600011,1.33499177232409,"IA6LI11","2022_Jan_05_1149","MainTask",35,"Fixation","neutral_couple","neutral_couple_4","blue",1,0.47685389999242,"post_correct","post_neutral_man_woman",76.1160714285714
333.638607200002,1.44659634191114,"IA6LI11","2022_Jan_05_1149","MainTask",35,"Picture","neutral_couple","neutral_couple_4","blue",1,0.47685389999242,"post_correct","post_neutral_man_woman",76.1160714285714
335.083730800005,0.47685389999242,"IA6LI11","2022_Jan_05_1149","MainTask",35,"Target","neutral_couple","neutral_couple_4","blue",1,0.47685389999242,"post_correct","post_neutral_man_woman",76.1160714285714
335.560584699997,0,"IA6LI11","2022_Jan_05_1149","MainTask",35,"Response","neutral_couple","neutral_couple_4","blue",1,0.47685389999242,"post_correct","post_neutral_man_woman",76.1160714285714
335.586941700007,1.26340103492859,"IA6LI11","2022_Jan_05_1149","MainTask",36,"Fixation","neutral_man_woman","neutral_4","green",0,NA,"post_correct","post_neutral_couple",76.1160714285714
336.866839200011,1.33949106850105,"IA6LI11","2022_Jan_05_1149","MainTask",36,"Picture","neutral_man_woman","neutral_4","green",0,NA,"post_correct","post_neutral_couple",76.1160714285714
338.202842800005,NA,"IA6LI11","2022_Jan_05_1149","MainTask",36,"Target","neutral_man_woman","neutral_4","green",0,NA,"post_correct","post_neutral_couple",76.1160714285714
339.2246934,1.30080162801876,"IA6LI11","2022_Jan_05_1149","MainTask",37,"Fixation","neutral_man_woman","neutral_7","red",1,0.494082799996249,"post_noResponse","post_neutral_man_woman",76.1160714285714
340.555104400002,1.48258471658331,"IA6LI11","2022_Jan_05_1149","MainTask",37,"Picture","neutral_man_woman","neutral_7","red",1,0.494082799996249,"post_noResponse","post_neutral_man_woman",76.1160714285714
342.022707199998,0.494082799996249,"IA6LI11","2022_Jan_05_1149","MainTask",37,"Target","neutral_man_woman","neutral_7","red",1,0.494082799996249,"post_noResponse","post_neutral_man_woman",76.1160714285714
342.516789999994,0,"IA6LI11","2022_Jan_05_1149","MainTask",37,"Response","neutral_man_woman","neutral_7","red",1,0.494082799996249,"post_noResponse","post_neutral_man_woman",76.1160714285714
342.542327200004,1.21725904607744,"IA6LI11","2022_Jan_05_1149","MainTask",38,"Fixation","tree","tree_6","blue",0,NA,"post_correct","post_neutral_man_woman",76.1160714285714
343.807169500011,1.08706627940357,"IA6LI11","2022_Jan_05_1149","MainTask",38,"Picture","tree","tree_6","blue",0,NA,"post_correct","post_neutral_man_woman",76.1160714285714
344.891733900004,NA,"IA6LI11","2022_Jan_05_1149","MainTask",38,"Target","tree","tree_6","blue",0,NA,"post_correct","post_neutral_man_woman",76.1160714285714
345.913822000002,1.33107266328983,"IA6LI11","2022_Jan_05_1149","MainTask",39,"Fixation","erotic_man","man_4","red",0,NA,"post_noResponse","post_tree",76.1160714285714
347.289886700004,1.18695187463799,"IA6LI11","2022_Jan_05_1149","MainTask",39,"Picture","erotic_man","man_4","red",0,NA,"post_noResponse","post_tree",76.1160714285714
348.461513700007,NA,"IA6LI11","2022_Jan_05_1149","MainTask",39,"Target","erotic_man","man_4","red",0,NA,"post_noResponse","post_tree",76.1160714285714
349.481052400006,1.12074318161234,"IA6LI11","2022_Jan_05_1149","MainTask",40,"Fixation","tree","tree_7","yellow",1,0.700591000000713,"post_noResponse","post_erotic_man",76.1160714285714
350.633442400009,1.38202899252431,"IA6LI11","2022_Jan_05_1149","MainTask",40,"Picture","tree","tree_7","yellow",1,0.700591000000713,"post_noResponse","post_erotic_man",76.1160714285714
352.014402000001,0.700591000000713,"IA6LI11","2022_Jan_05_1149","MainTask",40,"Target","tree","tree_7","yellow",1,0.700591000000713,"post_noResponse","post_erotic_man",76.1160714285714
352.714993000002,0,"IA6LI11","2022_Jan_05_1149","MainTask",40,"Response","tree","tree_7","yellow",1,0.700591000000713,"post_noResponse","post_erotic_man",76.1160714285714
352.738587500004,1.34324407170335,"IA6LI11","2022_Jan_05_1149","MainTask",41,"Fixation","neutral_couple","neutral_couple_4","red",0,NA,"post_correct","post_tree",76.1160714285714
354.101868900005,1.37335548825231,"IA6LI11","2022_Jan_05_1149","MainTask",41,"Picture","neutral_couple","neutral_couple_4","red",0,NA,"post_correct","post_tree",76.1160714285714
355.467209499999,NA,"IA6LI11","2022_Jan_05_1149","MainTask",41,"Target","neutral_couple","neutral_couple_4","red",0,NA,"post_correct","post_tree",76.1160714285714
356.488608300002,1.04530799963039,"IA6LI11","2022_Jan_05_1149","MainTask",42,"Fixation","positive_man_woman","positive_6","green",1,0.670985400007339,"post_noResponse","post_neutral_couple",76.1160714285714
357.571610800005,1.34757820078592,"IA6LI11","2022_Jan_05_1149","MainTask",42,"Picture","positive_man_woman","positive_6","green",1,0.670985400007339,"post_noResponse","post_neutral_couple",76.1160714285714
358.919991600007,0.670985400007339,"IA6LI11","2022_Jan_05_1149","MainTask",42,"Target","positive_man_woman","positive_6","green",1,0.670985400007339,"post_noResponse","post_neutral_couple",76.1160714285714
359.590977000014,0,"IA6LI11","2022_Jan_05_1149","MainTask",42,"Response","positive_man_woman","positive_6","green",1,0.670985400007339,"post_noResponse","post_neutral_couple",76.1160714285714
359.623581300009,1.22581790946844,"IA6LI11","2022_Jan_05_1149","MainTask",43,"Fixation","erotic_woman","woman_6","blue",0,NA,"post_correct","post_positive_man_woman",76.1160714285714
360.890429200008,1.13525344478392,"IA6LI11","2022_Jan_05_1149","MainTask",43,"Picture","erotic_woman","woman_6","blue",0,NA,"post_correct","post_positive_man_woman",76.1160714285714
362.022607000006,NA,"IA6LI11","2022_Jan_05_1149","MainTask",43,"Target","erotic_woman","woman_6","blue",0,NA,"post_correct","post_positive_man_woman",76.1160714285714
363.041988099998,1.09763557939348,"IA6LI11","2022_Jan_05_1149","MainTask",44,"Fixation","tree","tree_2","green",0,NA,"post_noResponse","post_erotic_woman",76.1160714285714
364.161063200008,1.16089108633298,"IA6LI11","2022_Jan_05_1149","MainTask",44,"Picture","tree","tree_2","green",0,NA,"post_noResponse","post_erotic_woman",76.1160714285714
365.308715899999,NA,"IA6LI11","2022_Jan_05_1149","MainTask",44,"Target","tree","tree_2","green",0,NA,"post_noResponse","post_erotic_woman",76.1160714285714
366.331878900004,1.18961869827468,"IA6LI11","2022_Jan_05_1149","MainTask",45,"Fixation","neutral_couple","neutral_couple_3","yellow",1,0.397425000002841,"post_noResponse","post_tree",76.1160714285714
367.544374300007,1.37179072619452,"IA6LI11","2022_Jan_05_1149","MainTask",45,"Picture","neutral_couple","neutral_couple_3","yellow",1,0.397425000002841,"post_noResponse","post_tree",76.1160714285714
368.9116564,0.397425000002841,"IA6LI11","2022_Jan_05_1149","MainTask",45,"Target","neutral_couple","neutral_couple_3","yellow",1,0.397425000002841,"post_noResponse","post_tree",76.1160714285714
369.309081400003,0,"IA6LI11","2022_Jan_05_1149","MainTask",45,"Response","neutral_couple","neutral_couple_3","yellow",1,0.397425000002841,"post_noResponse","post_tree",76.1160714285714
369.336020800009,1.15171134170399,"IA6LI11","2022_Jan_05_1149","MainTask",46,"Fixation","erotic_woman","woman_7","blue",0,0.935439199995017,"post_correct","post_neutral_couple",76.1160714285714
370.518070899998,1.1760939834433,"IA6LI11","2022_Jan_05_1149","MainTask",46,"Picture","erotic_woman","woman_7","blue",0,0.935439199995017,"post_correct","post_neutral_couple",76.1160714285714
371.697427100007,0.935439199995017,"IA6LI11","2022_Jan_05_1149","MainTask",46,"Target","erotic_woman","woman_7","blue",0,0.935439199995017,"post_correct","post_neutral_couple",76.1160714285714
372.632866300002,0,"IA6LI11","2022_Jan_05_1149","MainTask",46,"Response","erotic_woman","woman_7","blue",0,0.935439199995017,"post_correct","post_neutral_couple",76.1160714285714
372.655617299999,1.14751410935425,"IA6LI11","2022_Jan_05_1149","MainTask",47,"Fixation","erotic_man","man_5","blue",1,0.858321799998521,"post_error","post_erotic_woman",76.1160714285714
373.836558700001,1.03663022774103,"IA6LI11","2022_Jan_05_1149","MainTask",47,"Picture","erotic_man","man_5","blue",1,0.858321799998521,"post_error","post_erotic_woman",76.1160714285714
374.866676400008,0.858321799998521,"IA6LI11","2022_Jan_05_1149","MainTask",47,"Target","erotic_man","man_5","blue",1,0.858321799998521,"post_error","post_erotic_woman",76.1160714285714
375.724998200006,0,"IA6LI11","2022_Jan_05_1149","MainTask",47,"Response","erotic_man","man_5","blue",1,0.858321799998521,"post_error","post_erotic_woman",76.1160714285714
375.7534629,1.20077327709837,"IA6LI11","2022_Jan_05_1149","MainTask",48,"Fixation","neutral_couple","neutral_couple_6","yellow",1,0.684827799996128,"post_correct","post_erotic_man",76.1160714285714
377.002592300007,1.14407251681579,"IA6LI11","2022_Jan_05_1149","MainTask",48,"Picture","neutral_couple","neutral_couple_6","yellow",1,0.684827799996128,"post_correct","post_erotic_man",76.1160714285714
378.1359906,0.684827799996128,"IA6LI11","2022_Jan_05_1149","MainTask",48,"Target","neutral_couple","neutral_couple_6","yellow",1,0.684827799996128,"post_correct","post_erotic_man",76.1160714285714
378.820818399996,0,"IA6LI11","2022_Jan_05_1149","MainTask",48,"Response","neutral_couple","neutral_couple_6","yellow",1,0.684827799996128,"post_correct","post_erotic_man",76.1160714285714
378.843539300011,1.03625939153087,"IA6LI11","2022_Jan_05_1149","MainTask",49,"Fixation","neutral_couple","neutral_couple_7","yellow",1,0.796607299998868,"post_correct","post_neutral_couple",76.1160714285714
379.908639800007,1.21849674291549,"IA6LI11","2022_Jan_05_1149","MainTask",49,"Picture","neutral_couple","neutral_couple_7","yellow",1,0.796607299998868,"post_correct","post_neutral_couple",76.1160714285714
381.121863799999,0.796607299998868,"IA6LI11","2022_Jan_05_1149","MainTask",49,"Target","neutral_couple","neutral_couple_7","yellow",1,0.796607299998868,"post_correct","post_neutral_couple",76.1160714285714
381.918471099998,0,"IA6LI11","2022_Jan_05_1149","MainTask",49,"Response","neutral_couple","neutral_couple_7","yellow",1,0.796607299998868,"post_correct","post_neutral_couple",76.1160714285714
381.946537700001,1.44153448867498,"IA6LI11","2022_Jan_05_1149","MainTask",50,"Fixation","neutral_man_woman","neutral_7","yellow",1,0.408806200008257,"post_correct","post_neutral_couple",76.1160714285714
383.409563500012,1.00635307331339,"IA6LI11","2022_Jan_05_1149","MainTask",50,"Picture","neutral_man_woman","neutral_7","yellow",1,0.408806200008257,"post_correct","post_neutral_couple",76.1160714285714
384.408037700006,0.408806200008257,"IA6LI11","2022_Jan_05_1149","MainTask",50,"Target","neutral_man_woman","neutral_7","yellow",1,0.408806200008257,"post_correct","post_neutral_couple",76.1160714285714
384.816843900014,0,"IA6LI11","2022_Jan_05_1149","MainTask",50,"Response","neutral_man_woman","neutral_7","yellow",1,0.408806200008257,"post_correct","post_neutral_couple",76.1160714285714
384.844293600006,1.13328794691191,"IA6LI11","2022_Jan_05_1149","MainTask",51,"Fixation","erotic_couple","couple_5","blue",0,NA,"post_correct","post_neutral_man_woman",76.1160714285714
386.013076200004,1.33424012716127,"IA6LI11","2022_Jan_05_1149","MainTask",51,"Picture","erotic_couple","couple_5","blue",0,NA,"post_correct","post_neutral_man_woman",76.1160714285714
387.34385070001,NA,"IA6LI11","2022_Jan_05_1149","MainTask",51,"Target","erotic_couple","couple_5","blue",0,NA,"post_correct","post_neutral_man_woman",76.1160714285714
388.3628627,1.33738332324298,"IA6LI11","2022_Jan_05_1149","MainTask",52,"Fixation","positive_man_woman","positive_2","red",1,0.331585199994151,"post_noResponse","post_erotic_couple",76.1160714285714
389.734611300009,1.47972773777564,"IA6LI11","2022_Jan_05_1149","MainTask",52,"Picture","positive_man_woman","positive_2","red",1,0.331585199994151,"post_noResponse","post_erotic_couple",76.1160714285714
391.213582900004,0.331585199994151,"IA6LI11","2022_Jan_05_1149","MainTask",52,"Target","positive_man_woman","positive_2","red",1,0.331585199994151,"post_noResponse","post_erotic_couple",76.1160714285714
391.545168099998,0,"IA6LI11","2022_Jan_05_1149","MainTask",52,"Response","positive_man_woman","positive_2","red",1,0.331585199994151,"post_noResponse","post_erotic_couple",76.1160714285714
391.570746900004,1.08243689006026,"IA6LI11","2022_Jan_05_1149","MainTask",53,"Fixation","tree","tree_5","yellow",0,NA,"post_correct","post_positive_man_woman",76.1160714285714
392.685949100007,1.4727666629197,"IA6LI11","2022_Jan_05_1149","MainTask",53,"Picture","tree","tree_5","yellow",0,NA,"post_correct","post_positive_man_woman",76.1160714285714
394.149357700007,NA,"IA6LI11","2022_Jan_05_1149","MainTask",53,"Target","tree","tree_5","yellow",0,NA,"post_correct","post_positive_man_woman",76.1160714285714
395.170935700007,1.45861039913489,"IA6LI11","2022_Jan_05_1149","MainTask",54,"Fixation","positive_man_woman","positive_2","red",0,NA,"post_noResponse","post_tree",76.1160714285714
396.643900399999,1.45346272446698,"IA6LI11","2022_Jan_05_1149","MainTask",54,"Picture","positive_man_woman","positive_2","red",0,NA,"post_noResponse","post_tree",76.1160714285714
398.085939100012,NA,"IA6LI11","2022_Jan_05_1149","MainTask",54,"Target","positive_man_woman","positive_2","red",0,NA,"post_noResponse","post_tree",76.1160714285714
399.105827100007,1.36437118558765,"IA6LI11","2022_Jan_05_1149","MainTask",55,"Fixation","neutral_couple","neutral_couple_5","green",1,0.860228599995025,"post_noResponse","post_positive_man_woman",76.1160714285714
400.486520200007,1.29089262771264,"IA6LI11","2022_Jan_05_1149","MainTask",55,"Picture","neutral_couple","neutral_couple_5","green",1,0.860228599995025,"post_noResponse","post_positive_man_woman",76.1160714285714
401.771945800007,0.860228599995025,"IA6LI11","2022_Jan_05_1149","MainTask",55,"Target","neutral_couple","neutral_couple_5","green",1,0.860228599995025,"post_noResponse","post_positive_man_woman",76.1160714285714
402.632174400002,0,"IA6LI11","2022_Jan_05_1149","MainTask",55,"Response","neutral_couple","neutral_couple_5","green",1,0.860228599995025,"post_noResponse","post_positive_man_woman",76.1160714285714
402.658806300009,1.20932957384807,"IA6LI11","2022_Jan_05_1149","MainTask",56,"Fixation","positive_man_woman","positive_8","blue",0,NA,"post_correct","post_neutral_couple",76.1160714285714
403.923103000008,1.14924623780899,"IA6LI11","2022_Jan_05_1149","MainTask",56,"Picture","positive_man_woman","positive_8","blue",0,NA,"post_correct","post_neutral_couple",76.1160714285714
405.058376400004,NA,"IA6LI11","2022_Jan_05_1149","MainTask",56,"Target","positive_man_woman","positive_8","blue",0,NA,"post_correct","post_neutral_couple",76.1160714285714
406.078196900009,1.36638274744343,"IA6LI11","2022_Jan_05_1149","MainTask",57,"Fixation","neutral_couple","neutral_couple_1","red",1,0.596525900007691,"post_noResponse","post_positive_man_woman",76.1160714285714
407.471001500002,1.36943053093704,"IA6LI11","2022_Jan_05_1149","MainTask",57,"Picture","neutral_couple","neutral_couple_1","red",1,0.596525900007691,"post_noResponse","post_positive_man_woman",76.1160714285714
408.8283562,0.596525900007691,"IA6LI11","2022_Jan_05_1149","MainTask",57,"Target","neutral_couple","neutral_couple_1","red",1,0.596525900007691,"post_noResponse","post_positive_man_woman",76.1160714285714
409.424882100008,0,"IA6LI11","2022_Jan_05_1149","MainTask",57,"Response","neutral_couple","neutral_couple_1","red",1,0.596525900007691,"post_noResponse","post_positive_man_woman",76.1160714285714
409.452409900012,1.48741702177708,"IA6LI11","2022_Jan_05_1149","MainTask",58,"Fixation","tree","tree_2","green",1,0.887068000010913,"post_correct","post_neutral_couple",76.1160714285714
410.972504500009,1.4440081732666,"IA6LI11","2022_Jan_05_1149","MainTask",58,"Picture","tree","tree_2","green",1,0.887068000010913,"post_correct","post_neutral_couple",76.1160714285714
412.397810000009,0.887068000010913,"IA6LI11","2022_Jan_05_1149","MainTask",58,"Target","tree","tree_2","green",1,0.887068000010913,"post_correct","post_neutral_couple",76.1160714285714
413.28487800002,0,"IA6LI11","2022_Jan_05_1149","MainTask",58,"Response","tree","tree_2","green",1,0.887068000010913,"post_correct","post_neutral_couple",76.1160714285714
413.322901500011,1.17714919261669,"IA6LI11","2022_Jan_05_1149","MainTask",59,"Fixation","erotic_man","man_5","red",0,NA,"post_correct","post_tree",76.1160714285714
414.518342700001,1.19199540822906,"IA6LI11","2022_Jan_05_1149","MainTask",59,"Picture","erotic_man","man_5","red",0,NA,"post_correct","post_tree",76.1160714285714
415.700212700001,NA,"IA6LI11","2022_Jan_05_1149","MainTask",59,"Target","erotic_man","man_5","red",0,NA,"post_correct","post_tree",76.1160714285714
416.720359200001,1.04261321674934,"IA6LI11","2022_Jan_05_1149","MainTask",60,"Fixation","positive_man_woman","positive_7","yellow",1,0.729910099995323,"post_noResponse","post_erotic_man",76.1160714285714
417.790561000002,1.43857497804058,"IA6LI11","2022_Jan_05_1149","MainTask",60,"Picture","positive_man_woman","positive_7","yellow",1,0.729910099995323,"post_noResponse","post_erotic_man",76.1160714285714
419.220267600002,0.729910099995323,"IA6LI11","2022_Jan_05_1149","MainTask",60,"Target","positive_man_woman","positive_7","yellow",1,0.729910099995323,"post_noResponse","post_erotic_man",76.1160714285714
419.950177699997,0,"IA6LI11","2022_Jan_05_1149","MainTask",60,"Response","positive_man_woman","positive_7","yellow",1,0.729910099995323,"post_noResponse","post_erotic_man",76.1160714285714
419.973435000007,1.31880315521067,"IA6LI11","2022_Jan_05_1149","MainTask",61,"Fixation","positive_man_woman","positive_5","yellow",1,0.627798600005917,"post_correct","post_positive_man_woman",76.1160714285714
421.331035299998,1.15687372001175,"IA6LI11","2022_Jan_05_1149","MainTask",61,"Picture","positive_man_woman","positive_5","yellow",1,0.627798600005917,"post_correct","post_positive_man_woman",76.1160714285714
422.473077600007,0.627798600005917,"IA6LI11","2022_Jan_05_1149","MainTask",61,"Target","positive_man_woman","positive_5","yellow",1,0.627798600005917,"post_correct","post_positive_man_woman",76.1160714285714
423.100876200013,0,"IA6LI11","2022_Jan_05_1149","MainTask",61,"Response","positive_man_woman","positive_5","yellow",1,0.627798600005917,"post_correct","post_positive_man_woman",76.1160714285714
423.129816200002,1.32662373722431,"IA6LI11","2022_Jan_05_1149","MainTask",62,"Fixation","neutral_couple","neutral_couple_7","green",1,0.729703300006804,"post_correct","post_positive_man_woman",76.1160714285714
424.486283800012,1.07020876690973,"IA6LI11","2022_Jan_05_1149","MainTask",62,"Picture","neutral_couple","neutral_couple_7","green",1,0.729703300006804,"post_correct","post_positive_man_woman",76.1160714285714
425.542576000007,0.729703300006804,"IA6LI11","2022_Jan_05_1149","MainTask",62,"Target","neutral_couple","neutral_couple_7","green",1,0.729703300006804,"post_correct","post_positive_man_woman",76.1160714285714
426.272279300014,0,"IA6LI11","2022_Jan_05_1149","MainTask",62,"Response","neutral_couple","neutral_couple_7","green",1,0.729703300006804,"post_correct","post_positive_man_woman",76.1160714285714
426.295445200012,1.33818169208011,"IA6LI11","2022_Jan_05_1149","MainTask",63,"Fixation","positive_man_woman","positive_8","green",0,NA,"post_correct","post_neutral_couple",76.1160714285714
427.662757700004,1.34008101926181,"IA6LI11","2022_Jan_05_1149","MainTask",63,"Picture","positive_man_woman","positive_8","green",0,NA,"post_correct","post_neutral_couple",76.1160714285714
428.995004100012,NA,"IA6LI11","2022_Jan_05_1149","MainTask",63,"Target","positive_man_woman","positive_8","green",0,NA,"post_correct","post_neutral_couple",76.1160714285714
430.0253085,1.48986922679615,"IA6LI11","2022_Jan_05_1149","MainTask",64,"Fixation","positive_man_woman","positive_6","blue",0,NA,"post_noResponse","post_positive_man_woman",76.1160714285714
431.556344500001,1.48693194849324,"IA6LI11","2022_Jan_05_1149","MainTask",64,"Picture","positive_man_woman","positive_6","blue",0,NA,"post_noResponse","post_positive_man_woman",76.1160714285714
433.031662100009,NA,"IA6LI11","2022_Jan_05_1149","MainTask",64,"Target","positive_man_woman","positive_6","blue",0,NA,"post_noResponse","post_positive_man_woman",76.1160714285714
434.053485700002,1.4509337137588,"IA6LI11","2022_Jan_05_1149","MainTask",65,"Fixation","neutral_man_woman","neutral_6","yellow",0,NA,"post_noResponse","post_positive_man_woman",76.1160714285714
435.537849900007,1.35171115087448,"IA6LI11","2022_Jan_05_1149","MainTask",65,"Picture","neutral_man_woman","neutral_6","yellow",0,NA,"post_noResponse","post_positive_man_woman",76.1160714285714
436.884858800011,NA,"IA6LI11","2022_Jan_05_1149","MainTask",65,"Target","neutral_man_woman","neutral_6","yellow",0,NA,"post_noResponse","post_positive_man_woman",76.1160714285714
437.904566000012,1.23251450482059,"IA6LI11","2022_Jan_05_1149","MainTask",66,"Fixation","erotic_man","man_7","red",1,0.424499900007504,"post_noResponse","post_neutral_man_woman",76.1160714285714
439.157035299999,1.20591396961125,"IA6LI11","2022_Jan_05_1149","MainTask",66,"Picture","erotic_man","man_7","red",1,0.424499900007504,"post_noResponse","post_neutral_man_woman",76.1160714285714
440.354531200006,0.424499900007504,"IA6LI11","2022_Jan_05_1149","MainTask",66,"Target","erotic_man","man_7","red",1,0.424499900007504,"post_noResponse","post_neutral_man_woman",76.1160714285714
440.779031100014,0,"IA6LI11","2022_Jan_05_1149","MainTask",66,"Response","erotic_man","man_7","red",1,0.424499900007504,"post_noResponse","post_neutral_man_woman",76.1160714285714
440.807405600004,1.37306149952181,"IA6LI11","2022_Jan_05_1149","MainTask",67,"Fixation","erotic_man","man_2","yellow",1,0.891496900003403,"post_correct","post_erotic_man",76.1160714285714
442.224889200006,1.120732044237,"IA6LI11","2022_Jan_05_1149","MainTask",67,"Picture","erotic_man","man_2","yellow",1,0.891496900003403,"post_correct","post_erotic_man",76.1160714285714
443.340256800002,0.891496900003403,"IA6LI11","2022_Jan_05_1149","MainTask",67,"Target","erotic_man","man_2","yellow",1,0.891496900003403,"post_correct","post_erotic_man",76.1160714285714
444.231753700005,0,"IA6LI11","2022_Jan_05_1149","MainTask",67,"Response","erotic_man","man_2","yellow",1,0.891496900003403,"post_correct","post_erotic_man",76.1160714285714
444.264066800009,1.4473424806719,"IA6LI11","2022_Jan_05_1149","MainTask",68,"Fixation","neutral_couple","neutral_couple_6","red",0,NA,"post_correct","post_erotic_man",76.1160714285714
445.748865700007,1.46613305178105,"IA6LI11","2022_Jan_05_1149","MainTask",68,"Picture","neutral_couple","neutral_couple_6","red",0,NA,"post_correct","post_erotic_man",76.1160714285714
447.210091500005,NA,"IA6LI11","2022_Jan_05_1149","MainTask",68,"Target","neutral_couple","neutral_couple_6","red",0,NA,"post_correct","post_erotic_man",76.1160714285714
448.229531000004,1.08465505722265,"IA6LI11","2022_Jan_05_1149","MainTask",69,"Fixation","tree","tree_1","blue",1,0.597542699993937,"post_noResponse","post_neutral_couple",76.1160714285714
449.360344000001,1.3711518006768,"IA6LI11","2022_Jan_05_1149","MainTask",69,"Picture","tree","tree_1","blue",1,0.597542699993937,"post_noResponse","post_neutral_couple",76.1160714285714
450.729861900007,0.597542699993937,"IA6LI11","2022_Jan_05_1149","MainTask",69,"Target","tree","tree_1","blue",1,0.597542699993937,"post_noResponse","post_neutral_couple",76.1160714285714
451.327404600001,0,"IA6LI11","2022_Jan_05_1149","MainTask",69,"Response","tree","tree_1","blue",1,0.597542699993937,"post_noResponse","post_neutral_couple",76.1160714285714
451.350436500012,1.30406252365238,"IA6LI11","2022_Jan_05_1149","MainTask",70,"Fixation","erotic_man","man_8","blue",1,0.470810200000415,"post_correct","post_tree",76.1160714285714
452.684085800007,1.2710948034337,"IA6LI11","2022_Jan_05_1149","MainTask",70,"Picture","erotic_man","man_8","blue",1,0.470810200000415,"post_correct","post_tree",76.1160714285714
453.949162500008,0.470810200000415,"IA6LI11","2022_Jan_05_1149","MainTask",70,"Target","erotic_man","man_8","blue",1,0.470810200000415,"post_correct","post_tree",76.1160714285714
454.419972700008,0,"IA6LI11","2022_Jan_05_1149","MainTask",70,"Response","erotic_man","man_8","blue",1,0.470810200000415,"post_correct","post_tree",76.1160714285714
454.45437620001,1.39695695551311,"IA6LI11","2022_Jan_05_1149","MainTask",71,"Fixation","neutral_couple","neutral_couple_1","yellow",1,0.853685900001437,"post_correct","post_erotic_man",76.1160714285714
455.864046100003,1.20128613678031,"IA6LI11","2022_Jan_05_1149","MainTask",71,"Picture","neutral_couple","neutral_couple_1","yellow",1,0.853685900001437,"post_correct","post_erotic_man",76.1160714285714
457.051639099998,0.853685900001437,"IA6LI11","2022_Jan_05_1149","MainTask",71,"Target","neutral_couple","neutral_couple_1","yellow",1,0.853685900001437,"post_correct","post_erotic_man",76.1160714285714
457.905324999999,0,"IA6LI11","2022_Jan_05_1149","MainTask",71,"Response","neutral_couple","neutral_couple_1","yellow",1,0.853685900001437,"post_correct","post_erotic_man",76.1160714285714
457.94338550001,1.4430426968594,"IA6LI11","2022_Jan_05_1149","MainTask",72,"Fixation","erotic_man","man_8","blue",0,0.926697399991099,"post_correct","post_neutral_couple",76.1160714285714
459.4173878,1.01769572545706,"IA6LI11","2022_Jan_05_1149","MainTask",72,"Picture","erotic_man","man_8","blue",0,0.926697399991099,"post_correct","post_neutral_couple",76.1160714285714
460.42111950001,0.926697399991099,"IA6LI11","2022_Jan_05_1149","MainTask",72,"Target","erotic_man","man_8","blue",0,0.926697399991099,"post_correct","post_neutral_couple",76.1160714285714
461.347816900001,0,"IA6LI11","2022_Jan_05_1149","MainTask",72,"Response","erotic_man","man_8","blue",0,0.926697399991099,"post_correct","post_neutral_couple",76.1160714285714
461.379558300003,1.30897628745751,"IA6LI11","2022_Jan_05_1149","MainTask",73,"Fixation","neutral_man_woman","neutral_2","green",0,NA,"post_error","post_erotic_man",76.1160714285714
462.727350100002,1.02912231375051,"IA6LI11","2022_Jan_05_1149","MainTask",73,"Picture","neutral_man_woman","neutral_2","green",0,NA,"post_error","post_erotic_man",76.1160714285714
463.757207900009,NA,"IA6LI11","2022_Jan_05_1149","MainTask",73,"Target","neutral_man_woman","neutral_2","green",0,NA,"post_error","post_erotic_man",76.1160714285714
464.776786300004,1.37897117706263,"IA6LI11","2022_Jan_05_1149","MainTask",74,"Fixation","erotic_couple","couple_1","blue",1,0.69865469999786,"post_noResponse","post_neutral_man_woman",76.1160714285714
466.202929100007,1.06156998226873,"IA6LI11","2022_Jan_05_1149","MainTask",74,"Picture","erotic_couple","couple_1","blue",1,0.69865469999786,"post_noResponse","post_neutral_man_woman",76.1160714285714
467.24354380001,0.69865469999786,"IA6LI11","2022_Jan_05_1149","MainTask",74,"Target","erotic_couple","couple_1","blue",1,0.69865469999786,"post_noResponse","post_neutral_man_woman",76.1160714285714
467.942198500008,0,"IA6LI11","2022_Jan_05_1149","MainTask",74,"Response","erotic_couple","couple_1","blue",1,0.69865469999786,"post_noResponse","post_neutral_man_woman",76.1160714285714
467.968532400002,1.42582939632372,"IA6LI11","2022_Jan_05_1149","MainTask",75,"Fixation","erotic_woman","woman_6","red",1,0.496322300008615,"post_correct","post_erotic_couple",76.1160714285714
469.424897400007,1.35747096066066,"IA6LI11","2022_Jan_05_1149","MainTask",75,"Picture","erotic_woman","woman_6","red",1,0.496322300008615,"post_correct","post_erotic_couple",76.1160714285714
470.763193899998,0.496322300008615,"IA6LI11","2022_Jan_05_1149","MainTask",75,"Target","erotic_woman","woman_6","red",1,0.496322300008615,"post_correct","post_erotic_couple",76.1160714285714
471.259516200007,0,"IA6LI11","2022_Jan_05_1149","MainTask",75,"Response","erotic_woman","woman_6","red",1,0.496322300008615,"post_correct","post_erotic_couple",76.1160714285714
471.28313940001,1.28603267635847,"IA6LI11","2022_Jan_05_1149","MainTask",76,"Fixation","neutral_couple","neutral_couple_6","green",0,NA,"post_correct","post_erotic_woman",76.1160714285714
472.608912600001,1.01826385685126,"IA6LI11","2022_Jan_05_1149","MainTask",76,"Picture","neutral_couple","neutral_couple_6","green",0,NA,"post_correct","post_erotic_woman",76.1160714285714
473.615577200006,NA,"IA6LI11","2022_Jan_05_1149","MainTask",76,"Target","neutral_couple","neutral_couple_6","green",0,NA,"post_correct","post_erotic_woman",76.1160714285714
474.6368678,1.41347530527042,"IA6LI11","2022_Jan_05_1149","MainTask",77,"Fixation","erotic_woman","woman_7","yellow",1,0.679382200003602,"post_noResponse","post_neutral_couple",76.1160714285714
476.085701400007,1.00578523974516,"IA6LI11","2022_Jan_05_1149","MainTask",77,"Picture","erotic_woman","woman_7","yellow",1,0.679382200003602,"post_noResponse","post_neutral_couple",76.1160714285714
477.08488770001,0.679382200003602,"IA6LI11","2022_Jan_05_1149","MainTask",77,"Target","erotic_woman","woman_7","yellow",1,0.679382200003602,"post_noResponse","post_neutral_couple",76.1160714285714
477.764269900014,0,"IA6LI11","2022_Jan_05_1149","MainTask",77,"Response","erotic_woman","woman_7","yellow",1,0.679382200003602,"post_noResponse","post_neutral_couple",76.1160714285714
477.788429000007,1.4311827912271,"IA6LI11","2022_Jan_05_1149","MainTask",78,"Fixation","erotic_man","man_5","red",0,NA,"post_correct","post_erotic_woman",76.1160714285714
479.239360200008,1.13493492081746,"IA6LI11","2022_Jan_05_1149","MainTask",78,"Picture","erotic_man","man_5","red",0,NA,"post_correct","post_erotic_woman",76.1160714285714
480.371023600004,NA,"IA6LI11","2022_Jan_05_1149","MainTask",78,"Target","erotic_man","man_5","red",0,NA,"post_correct","post_erotic_woman",76.1160714285714
481.394168800005,1.14308781721784,"IA6LI11","2022_Jan_05_1149","MainTask",79,"Fixation","erotic_woman","woman_1","blue",1,0.363081499992404,"post_noResponse","post_erotic_man",76.1160714285714
482.575532700008,1.3524829638829,"IA6LI11","2022_Jan_05_1149","MainTask",79,"Picture","erotic_woman","woman_1","blue",1,0.363081499992404,"post_noResponse","post_erotic_man",76.1160714285714
483.924093300011,0.363081499992404,"IA6LI11","2022_Jan_05_1149","MainTask",79,"Target","erotic_woman","woman_1","blue",1,0.363081499992404,"post_noResponse","post_erotic_man",76.1160714285714
484.287174800003,0,"IA6LI11","2022_Jan_05_1149","MainTask",79,"Response","erotic_woman","woman_1","blue",1,0.363081499992404,"post_noResponse","post_erotic_man",76.1160714285714
484.3102048,1.43478979816161,"IA6LI11","2022_Jan_05_1149","MainTask",80,"Fixation","positive_man_woman","positive_4","yellow",1,0.69475369999418,"post_correct","post_erotic_woman",76.1160714285714
485.793035200011,1.06073390469611,"IA6LI11","2022_Jan_05_1149","MainTask",80,"Picture","positive_man_woman","positive_4","yellow",1,0.69475369999418,"post_correct","post_erotic_woman",76.1160714285714
486.843076400008,0.69475369999418,"IA6LI11","2022_Jan_05_1149","MainTask",80,"Target","positive_man_woman","positive_4","yellow",1,0.69475369999418,"post_correct","post_erotic_woman",76.1160714285714
487.537830100002,0,"IA6LI11","2022_Jan_05_1149","MainTask",80,"Response","positive_man_woman","positive_4","yellow",1,0.69475369999418,"post_correct","post_erotic_woman",76.1160714285714
487.5634078,1.38992220749856,"IA6LI11","2022_Jan_05_1149","MainTask",81,"Fixation","tree","tree_3","yellow",1,0.799394900008338,"post_correct","post_positive_man_woman",76.1160714285714
488.977955800001,1.39054945649891,"IA6LI11","2022_Jan_05_1149","MainTask",81,"Picture","tree","tree_3","yellow",1,0.799394900008338,"post_correct","post_positive_man_woman",76.1160714285714
490.362735000002,0.799394900008338,"IA6LI11","2022_Jan_05_1149","MainTask",81,"Target","tree","tree_3","yellow",1,0.799394900008338,"post_correct","post_positive_man_woman",76.1160714285714
491.16212990001,0,"IA6LI11","2022_Jan_05_1149","MainTask",81,"Response","tree","tree_3","yellow",1,0.799394900008338,"post_correct","post_positive_man_woman",76.1160714285714
491.187095000001,1.37001047419802,"IA6LI11","2022_Jan_05_1149","MainTask",82,"Fixation","erotic_couple","couple_8","blue",0,0.906345099996543,"post_correct","post_tree",76.1160714285714
492.587005699999,1.30483227013224,"IA6LI11","2022_Jan_05_1149","MainTask",82,"Picture","erotic_couple","couple_8","blue",0,0.906345099996543,"post_correct","post_tree",76.1160714285714
493.8826501,0.906345099996543,"IA6LI11","2022_Jan_05_1149","MainTask",82,"Target","erotic_couple","couple_8","blue",0,0.906345099996543,"post_correct","post_tree",76.1160714285714
494.788995199997,0,"IA6LI11","2022_Jan_05_1149","MainTask",82,"Response","erotic_couple","couple_8","blue",0,0.906345099996543,"post_correct","post_tree",76.1160714285714
494.819560100004,1.36472095566302,"IA6LI11","2022_Jan_05_1149","MainTask",83,"Fixation","neutral_couple","neutral_couple_3","yellow",1,0.682693599999766,"post_error","post_erotic_couple",76.1160714285714
496.217453000005,1.27132225901159,"IA6LI11","2022_Jan_05_1149","MainTask",83,"Picture","neutral_couple","neutral_couple_3","yellow",1,0.682693599999766,"post_error","post_erotic_couple",76.1160714285714
497.485290500001,0.682693599999766,"IA6LI11","2022_Jan_05_1149","MainTask",83,"Target","neutral_couple","neutral_couple_3","yellow",1,0.682693599999766,"post_error","post_erotic_couple",76.1160714285714
498.167984100001,0,"IA6LI11","2022_Jan_05_1149","MainTask",83,"Response","neutral_couple","neutral_couple_3","yellow",1,0.682693599999766,"post_error","post_erotic_couple",76.1160714285714
498.188437300007,1.39952370364681,"IA6LI11","2022_Jan_05_1149","MainTask",84,"Fixation","erotic_couple","couple_5","red",1,0.505312699999195,"post_correct","post_neutral_couple",76.1160714285714
499.607223900006,1.31962499352408,"IA6LI11","2022_Jan_05_1149","MainTask",84,"Picture","erotic_couple","couple_5","red",1,0.505312699999195,"post_correct","post_neutral_couple",76.1160714285714
500.921525099999,0.505312699999195,"IA6LI11","2022_Jan_05_1149","MainTask",84,"Target","erotic_couple","couple_5","red",1,0.505312699999195,"post_correct","post_neutral_couple",76.1160714285714
501.426837799998,0,"IA6LI11","2022_Jan_05_1149","MainTask",84,"Response","erotic_couple","couple_5","red",1,0.505312699999195,"post_correct","post_neutral_couple",76.1160714285714
501.458237400002,1.17333559990453,"IA6LI11","2022_Jan_05_1149","MainTask",85,"Fixation","erotic_woman","woman_1","yellow",1,0.600900399993407,"post_correct","post_erotic_couple",76.1160714285714
502.669042000009,1.46671403654695,"IA6LI11","2022_Jan_05_1149","MainTask",85,"Picture","erotic_woman","woman_1","yellow",1,0.600900399993407,"post_correct","post_erotic_couple",76.1160714285714
504.124124000009,0.600900399993407,"IA6LI11","2022_Jan_05_1149","MainTask",85,"Target","erotic_woman","woman_1","yellow",1,0.600900399993407,"post_correct","post_erotic_couple",76.1160714285714
504.725024400002,0,"IA6LI11","2022_Jan_05_1149","MainTask",85,"Response","erotic_woman","woman_1","yellow",1,0.600900399993407,"post_correct","post_erotic_couple",76.1160714285714
504.743638600004,1.3063622228728,"IA6LI11","2022_Jan_05_1149","MainTask",86,"Fixation","neutral_man_woman","neutral_8","yellow",1,0.754970900001354,"post_correct","post_erotic_woman",76.1160714285714
506.080207899999,1.04583611049602,"IA6LI11","2022_Jan_05_1149","MainTask",86,"Picture","neutral_man_woman","neutral_8","yellow",1,0.754970900001354,"post_correct","post_erotic_woman",76.1160714285714
507.126942100003,0.754970900001354,"IA6LI11","2022_Jan_05_1149","MainTask",86,"Target","neutral_man_woman","neutral_8","yellow",1,0.754970900001354,"post_correct","post_erotic_woman",76.1160714285714
507.881913000004,0,"IA6LI11","2022_Jan_05_1149","MainTask",86,"Response","neutral_man_woman","neutral_8","yellow",1,0.754970900001354,"post_correct","post_erotic_woman",76.1160714285714
507.913325100002,1.34533287534772,"IA6LI11","2022_Jan_05_1149","MainTask",87,"Fixation","erotic_man","man_6","yellow",1,0.4965058999951,"post_correct","post_neutral_man_woman",76.1160714285714
509.284945000007,1.22449444038848,"IA6LI11","2022_Jan_05_1149","MainTask",87,"Picture","erotic_man","man_6","yellow",1,0.4965058999951,"post_correct","post_neutral_man_woman",76.1160714285714
510.512775499999,0.4965058999951,"IA6LI11","2022_Jan_05_1149","MainTask",87,"Target","erotic_man","man_6","yellow",1,0.4965058999951,"post_correct","post_neutral_man_woman",76.1160714285714
511.009281399994,0,"IA6LI11","2022_Jan_05_1149","MainTask",87,"Response","erotic_man","man_6","yellow",1,0.4965058999951,"post_correct","post_neutral_man_woman",76.1160714285714
511.037154800011,1.23041495131871,"IA6LI11","2022_Jan_05_1149","MainTask",88,"Fixation","erotic_couple","couple_7","yellow",1,0.471824000007473,"post_correct","post_erotic_man",76.1160714285714
512.314725000004,1.05104348251213,"IA6LI11","2022_Jan_05_1149","MainTask",88,"Picture","erotic_couple","couple_7","yellow",1,0.471824000007473,"post_correct","post_erotic_man",76.1160714285714
513.365322600002,0.471824000007473,"IA6LI11","2022_Jan_05_1149","MainTask",88,"Target","erotic_couple","couple_7","yellow",1,0.471824000007473,"post_correct","post_erotic_man",76.1160714285714
513.837146600009,0,"IA6LI11","2022_Jan_05_1149","MainTask",88,"Response","erotic_couple","couple_7","yellow",1,0.471824000007473,"post_correct","post_erotic_man",76.1160714285714
513.868267700003,1.4620792210379,"IA6LI11","2022_Jan_05_1149","MainTask",89,"Fixation","neutral_couple","neutral_couple_6","green",0,NA,"post_correct","post_erotic_couple",76.1160714285714
515.350798200001,1.43039296832186,"IA6LI11","2022_Jan_05_1149","MainTask",89,"Picture","neutral_couple","neutral_couple_6","green",0,NA,"post_correct","post_erotic_couple",76.1160714285714
516.768158400009,NA,"IA6LI11","2022_Jan_05_1149","MainTask",89,"Target","neutral_couple","neutral_couple_6","green",0,NA,"post_correct","post_erotic_couple",76.1160714285714
517.787422400012,1.17181287814048,"IA6LI11","2022_Jan_05_1149","MainTask",90,"Fixation","tree","tree_5","red",0,NA,"post_noResponse","post_neutral_couple",76.1160714285714
518.991911900011,1.47769032757913,"IA6LI11","2022_Jan_05_1149","MainTask",90,"Picture","tree","tree_5","red",0,NA,"post_noResponse","post_neutral_couple",76.1160714285714
520.471383299999,NA,"IA6LI11","2022_Jan_05_1149","MainTask",90,"Target","tree","tree_5","red",0,NA,"post_noResponse","post_neutral_couple",76.1160714285714
521.490503500012,1.21269227893173,"IA6LI11","2022_Jan_05_1149","MainTask",91,"Fixation","erotic_man","man_8","red",1,0.489585600007558,"post_noResponse","post_tree",76.1160714285714
522.742539600004,1.28848231862424,"IA6LI11","2022_Jan_05_1149","MainTask",91,"Picture","erotic_man","man_8","red",1,0.489585600007558,"post_noResponse","post_tree",76.1160714285714
524.024206500006,0.489585600007558,"IA6LI11","2022_Jan_05_1149","MainTask",91,"Target","erotic_man","man_8","red",1,0.489585600007558,"post_noResponse","post_tree",76.1160714285714
524.513792100014,0,"IA6LI11","2022_Jan_05_1149","MainTask",91,"Response","erotic_man","man_8","red",1,0.489585600007558,"post_noResponse","post_tree",76.1160714285714
524.543278700003,1.08094297228261,"IA6LI11","2022_Jan_05_1149","MainTask",92,"Fixation","erotic_woman","woman_1","yellow",1,0.803968799998984,"post_correct","post_erotic_man",76.1160714285714
525.640212700004,1.21059367710021,"IA6LI11","2022_Jan_05_1149","MainTask",92,"Picture","erotic_woman","woman_1","yellow",1,0.803968799998984,"post_correct","post_erotic_man",76.1160714285714
526.843031600001,0.803968799998984,"IA6LI11","2022_Jan_05_1149","MainTask",92,"Target","erotic_woman","woman_1","yellow",1,0.803968799998984,"post_correct","post_erotic_man",76.1160714285714
527.6470004,0,"IA6LI11","2022_Jan_05_1149","MainTask",92,"Response","erotic_woman","woman_1","yellow",1,0.803968799998984,"post_correct","post_erotic_man",76.1160714285714
527.6837218,1.23779354592762,"IA6LI11","2022_Jan_05_1149","MainTask",93,"Fixation","erotic_man","man_8","yellow",1,0.609021500000381,"post_correct","post_erotic_woman",76.1160714285714
528.951152100009,1.29067190437752,"IA6LI11","2022_Jan_05_1149","MainTask",93,"Picture","erotic_man","man_8","yellow",1,0.609021500000381,"post_correct","post_erotic_woman",76.1160714285714
530.245796100004,0.609021500000381,"IA6LI11","2022_Jan_05_1149","MainTask",93,"Target","erotic_man","man_8","yellow",1,0.609021500000381,"post_correct","post_erotic_woman",76.1160714285714
530.854817600004,0,"IA6LI11","2022_Jan_05_1149","MainTask",93,"Response","erotic_man","man_8","yellow",1,0.609021500000381,"post_correct","post_erotic_woman",76.1160714285714
530.881333099998,1.36803452504742,"IA6LI11","2022_Jan_05_1149","MainTask",94,"Fixation","erotic_man","man_3","yellow",1,0.535525699990103,"post_correct","post_erotic_man",76.1160714285714
532.299890499999,1.37386640598551,"IA6LI11","2022_Jan_05_1149","MainTask",94,"Picture","erotic_man","man_3","yellow",1,0.535525699990103,"post_correct","post_erotic_man",76.1160714285714
533.665352199998,0.535525699990103,"IA6LI11","2022_Jan_05_1149","MainTask",94,"Target","erotic_man","man_3","yellow",1,0.535525699990103,"post_correct","post_erotic_man",76.1160714285714
534.200877899988,0,"IA6LI11","2022_Jan_05_1149","MainTask",94,"Response","erotic_man","man_3","yellow",1,0.535525699990103,"post_correct","post_erotic_man",76.1160714285714
534.235723500009,1.28918030617321,"IA6LI11","2022_Jan_05_1149","MainTask",95,"Fixation","tree","tree_8","blue",0,NA,"post_correct","post_erotic_man",76.1160714285714
535.554483300002,1.20066242982162,"IA6LI11","2022_Jan_05_1149","MainTask",95,"Picture","tree","tree_8","blue",0,NA,"post_correct","post_erotic_man",76.1160714285714
536.751317700007,NA,"IA6LI11","2022_Jan_05_1149","MainTask",95,"Target","tree","tree_8","blue",0,NA,"post_correct","post_erotic_man",76.1160714285714
537.770371100007,1.16917313135314,"IA6LI11","2022_Jan_05_1149","MainTask",96,"Fixation","positive_man_woman","positive_5","blue",0,NA,"post_noResponse","post_tree",76.1160714285714
538.996462200012,1.36151390003938,"IA6LI11","2022_Jan_05_1149","MainTask",96,"Picture","positive_man_woman","positive_5","blue",0,NA,"post_noResponse","post_tree",76.1160714285714
540.337573500001,NA,"IA6LI11","2022_Jan_05_1149","MainTask",96,"Target","positive_man_woman","positive_5","blue",0,NA,"post_noResponse","post_tree",76.1160714285714
541.359365800003,1.00143125340433,"IA6LI11","2022_Jan_05_1149","MainTask",97,"Fixation","erotic_man","man_7","blue",1,0.389396099999431,"post_noResponse","post_positive_man_woman",76.1160714285714
542.395089800004,1.44942997377038,"IA6LI11","2022_Jan_05_1149","MainTask",97,"Picture","erotic_man","man_7","blue",1,0.389396099999431,"post_noResponse","post_positive_man_woman",76.1160714285714
543.840437799998,0.389396099999431,"IA6LI11","2022_Jan_05_1149","MainTask",97,"Target","erotic_man","man_7","blue",1,0.389396099999431,"post_noResponse","post_positive_man_woman",76.1160714285714
544.229833899997,0,"IA6LI11","2022_Jan_05_1149","MainTask",97,"Response","erotic_man","man_7","blue",1,0.389396099999431,"post_noResponse","post_positive_man_woman",76.1160714285714
544.264404600006,1.28763642609485,"IA6LI11","2022_Jan_05_1149","MainTask",98,"Fixation","erotic_man","man_4","red",1,0.37706060000346,"post_correct","post_erotic_man",76.1160714285714
545.583281400002,1.44100986049703,"IA6LI11","2022_Jan_05_1149","MainTask",98,"Picture","erotic_man","man_4","red",1,0.37706060000346,"post_correct","post_erotic_man",76.1160714285714
547.009744399998,0.37706060000346,"IA6LI11","2022_Jan_05_1149","MainTask",98,"Target","erotic_man","man_4","red",1,0.37706060000346,"post_correct","post_erotic_man",76.1160714285714
547.386805000001,0,"IA6LI11","2022_Jan_05_1149","MainTask",98,"Response","erotic_man","man_4","red",1,0.37706060000346,"post_correct","post_erotic_man",76.1160714285714
547.417000100002,1.35817066722755,"IA6LI11","2022_Jan_05_1149","MainTask",99,"Fixation","erotic_man","man_4","yellow",1,0.660893599997507,"post_correct","post_erotic_man",76.1160714285714
548.806451800003,1.18559814089728,"IA6LI11","2022_Jan_05_1149","MainTask",99,"Picture","erotic_man","man_4","yellow",1,0.660893599997507,"post_correct","post_erotic_man",76.1160714285714
549.978919000001,0.660893599997507,"IA6LI11","2022_Jan_05_1149","MainTask",99,"Target","erotic_man","man_4","yellow",1,0.660893599997507,"post_correct","post_erotic_man",76.1160714285714
550.639812599999,0,"IA6LI11","2022_Jan_05_1149","MainTask",99,"Response","erotic_man","man_4","yellow",1,0.660893599997507,"post_correct","post_erotic_man",76.1160714285714
550.669978300008,1.22773347599872,"IA6LI11","2022_Jan_05_1149","MainTask",100,"Fixation","neutral_man_woman","neutral_5","blue",1,0.390871399999014,"post_correct","post_erotic_man",76.1160714285714
551.931750500007,1.18376410166457,"IA6LI11","2022_Jan_05_1149","MainTask",100,"Picture","neutral_man_woman","neutral_5","blue",1,0.390871399999014,"post_correct","post_erotic_man",76.1160714285714
553.115014100011,0.390871399999014,"IA6LI11","2022_Jan_05_1149","MainTask",100,"Target","neutral_man_woman","neutral_5","blue",1,0.390871399999014,"post_correct","post_erotic_man",76.1160714285714
553.50588550001,0,"IA6LI11","2022_Jan_05_1149","MainTask",100,"Response","neutral_man_woman","neutral_5","blue",1,0.390871399999014,"post_correct","post_erotic_man",76.1160714285714
553.534811400008,1.37007008687266,"IA6LI11","2022_Jan_05_1149","MainTask",101,"Fixation","erotic_woman","woman_7","green",1,0.774438599997666,"post_correct","post_neutral_man_woman",76.1160714285714
554.939447900004,1.2876852428944,"IA6LI11","2022_Jan_05_1149","MainTask",101,"Picture","erotic_woman","woman_7","green",1,0.774438599997666,"post_correct","post_neutral_man_woman",76.1160714285714
556.217426300005,0.774438599997666,"IA6LI11","2022_Jan_05_1149","MainTask",101,"Target","erotic_woman","woman_7","green",1,0.774438599997666,"post_correct","post_neutral_man_woman",76.1160714285714
556.991864900003,0,"IA6LI11","2022_Jan_05_1149","MainTask",101,"Response","erotic_woman","woman_7","green",1,0.774438599997666,"post_correct","post_neutral_man_woman",76.1160714285714
557.020441900007,1.48286764045987,"IA6LI11","2022_Jan_05_1149","MainTask",102,"Fixation","neutral_couple","neutral_couple_8","blue",0,NA,"post_correct","post_erotic_woman",76.1160714285714
558.524895499999,1.33353037440173,"IA6LI11","2022_Jan_05_1149","MainTask",102,"Picture","neutral_couple","neutral_couple_8","blue",0,NA,"post_correct","post_erotic_woman",76.1160714285714
559.8537813,NA,"IA6LI11","2022_Jan_05_1149","MainTask",102,"Target","neutral_couple","neutral_couple_8","blue",0,NA,"post_correct","post_erotic_woman",76.1160714285714
560.873260699998,1.33654676909787,"IA6LI11","2022_Jan_05_1149","MainTask",103,"Fixation","neutral_couple","neutral_couple_2","green",1,0.675616100008483,"post_noResponse","post_neutral_couple",76.1160714285714
562.256518200011,1.38626356013667,"IA6LI11","2022_Jan_05_1149","MainTask",103,"Picture","neutral_couple","neutral_couple_2","green",1,0.675616100008483,"post_noResponse","post_neutral_couple",76.1160714285714
563.640345100008,0.675616100008483,"IA6LI11","2022_Jan_05_1149","MainTask",103,"Target","neutral_couple","neutral_couple_2","green",1,0.675616100008483,"post_noResponse","post_neutral_couple",76.1160714285714
564.315961200016,0,"IA6LI11","2022_Jan_05_1149","MainTask",103,"Response","neutral_couple","neutral_couple_2","green",1,0.675616100008483,"post_noResponse","post_neutral_couple",76.1160714285714
564.343218000009,1.20742275317091,"IA6LI11","2022_Jan_05_1149","MainTask",104,"Fixation","neutral_couple","neutral_couple_1","green",1,0.542990800007829,"post_correct","post_neutral_couple",76.1160714285714
565.585606500012,1.3775132407087,"IA6LI11","2022_Jan_05_1149","MainTask",104,"Picture","neutral_couple","neutral_couple_1","green",1,0.542990800007829,"post_correct","post_neutral_couple",76.1160714285714
566.943078600001,0.542990800007829,"IA6LI11","2022_Jan_05_1149","MainTask",104,"Target","neutral_couple","neutral_couple_1","green",1,0.542990800007829,"post_correct","post_neutral_couple",76.1160714285714
567.486069400009,0,"IA6LI11","2022_Jan_05_1149","MainTask",104,"Response","neutral_couple","neutral_couple_1","green",1,0.542990800007829,"post_correct","post_neutral_couple",76.1160714285714
567.516817800002,1.37711011071741,"IA6LI11","2022_Jan_05_1149","MainTask",105,"Fixation","neutral_man_woman","neutral_5","blue",0,0.72606449999148,"post_correct","post_neutral_couple",76.1160714285714
568.914321500008,1.28189644192362,"IA6LI11","2022_Jan_05_1149","MainTask",105,"Picture","neutral_man_woman","neutral_5","blue",0,0.72606449999148,"post_correct","post_neutral_couple",76.1160714285714
570.195733600005,0.72606449999148,"IA6LI11","2022_Jan_05_1149","MainTask",105,"Target","neutral_man_woman","neutral_5","blue",0,0.72606449999148,"post_correct","post_neutral_couple",76.1160714285714
570.921798099997,0,"IA6LI11","2022_Jan_05_1149","MainTask",105,"Response","neutral_man_woman","neutral_5","blue",0,0.72606449999148,"post_correct","post_neutral_couple",76.1160714285714
570.952771000011,1.29778488795354,"IA6LI11","2022_Jan_05_1149","MainTask",106,"Fixation","erotic_couple","couple_6","green",1,0.678605699999025,"post_error","post_neutral_man_woman",76.1160714285714
572.293612699999,1.33372925838882,"IA6LI11","2022_Jan_05_1149","MainTask",106,"Picture","erotic_couple","couple_6","green",1,0.678605699999025,"post_error","post_neutral_man_woman",76.1160714285714
573.61522610001,0.678605699999025,"IA6LI11","2022_Jan_05_1149","MainTask",106,"Target","erotic_couple","couple_6","green",1,0.678605699999025,"post_error","post_neutral_man_woman",76.1160714285714
574.293831800009,0,"IA6LI11","2022_Jan_05_1149","MainTask",106,"Response","erotic_couple","couple_6","green",1,0.678605699999025,"post_error","post_neutral_man_woman",76.1160714285714
574.318386400002,1.36503248597109,"IA6LI11","2022_Jan_05_1149","MainTask",107,"Fixation","tree","tree_3","red",1,0.605076499996358,"post_correct","post_erotic_couple",76.1160714285714
575.704605300009,1.18870686411928,"IA6LI11","2022_Jan_05_1149","MainTask",107,"Picture","tree","tree_3","red",1,0.605076499996358,"post_correct","post_erotic_couple",76.1160714285714
576.884761500012,0.605076499996358,"IA6LI11","2022_Jan_05_1149","MainTask",107,"Target","tree","tree_3","red",1,0.605076499996358,"post_correct","post_erotic_couple",76.1160714285714
577.489838000008,0,"IA6LI11","2022_Jan_05_1149","MainTask",107,"Response","tree","tree_3","red",1,0.605076499996358,"post_correct","post_erotic_couple",76.1160714285714
577.52633600001,1.21200645289903,"IA6LI11","2022_Jan_05_1149","MainTask",108,"Fixation","positive_man_woman","positive_2","blue",1,0.349909399999888,"post_correct","post_tree",76.1160714285714
578.787460899999,1.39090949276548,"IA6LI11","2022_Jan_05_1149","MainTask",108,"Picture","positive_man_woman","positive_2","blue",1,0.349909399999888,"post_correct","post_tree",76.1160714285714
580.170818600003,0.349909399999888,"IA6LI11","2022_Jan_05_1149","MainTask",108,"Target","positive_man_woman","positive_2","blue",1,0.349909399999888,"post_correct","post_tree",76.1160714285714
580.520728000003,0,"IA6LI11","2022_Jan_05_1149","MainTask",108,"Response","positive_man_woman","positive_2","blue",1,0.349909399999888,"post_correct","post_tree",76.1160714285714
580.540288300006,1.44350995978712,"IA6LI11","2022_Jan_05_1149","MainTask",109,"Fixation","positive_man_woman","positive_5","blue",1,0.444873200001894,"post_correct","post_positive_man_woman",76.1160714285714
582.018771200004,1.23634839672578,"IA6LI11","2022_Jan_05_1149","MainTask",109,"Picture","positive_man_woman","positive_5","blue",1,0.444873200001894,"post_correct","post_positive_man_woman",76.1160714285714
583.239973600008,0.444873200001894,"IA6LI11","2022_Jan_05_1149","MainTask",109,"Target","positive_man_woman","positive_5","blue",1,0.444873200001894,"post_correct","post_positive_man_woman",76.1160714285714
583.68484680001,0,"IA6LI11","2022_Jan_05_1149","MainTask",109,"Response","positive_man_woman","positive_5","blue",1,0.444873200001894,"post_correct","post_positive_man_woman",76.1160714285714
583.709652000005,1.4404536945491,"IA6LI11","2022_Jan_05_1149","MainTask",110,"Fixation","tree","tree_1","green",1,0.658830199987278,"post_correct","post_positive_man_woman",76.1160714285714
585.180943400002,1.3970623199612,"IA6LI11","2022_Jan_05_1149","MainTask",110,"Picture","tree","tree_1","green",1,0.658830199987278,"post_correct","post_positive_man_woman",76.1160714285714
586.576062000007,0.658830199987278,"IA6LI11","2022_Jan_05_1149","MainTask",110,"Target","tree","tree_1","green",1,0.658830199987278,"post_correct","post_positive_man_woman",76.1160714285714
587.234892199994,0,"IA6LI11","2022_Jan_05_1149","MainTask",110,"Response","tree","tree_1","green",1,0.658830199987278,"post_correct","post_positive_man_woman",76.1160714285714
587.267504700008,1.3838683454698,"IA6LI11","2022_Jan_05_1149","MainTask",111,"Fixation","neutral_man_woman","neutral_1","yellow",1,0.680223599993042,"post_correct","post_tree",76.1160714285714
588.693823900001,1.22136280007721,"IA6LI11","2022_Jan_05_1149","MainTask",111,"Picture","neutral_man_woman","neutral_1","yellow",1,0.680223599993042,"post_correct","post_tree",76.1160714285714
589.912077100002,0.680223599993042,"IA6LI11","2022_Jan_05_1149","MainTask",111,"Target","neutral_man_woman","neutral_1","yellow",1,0.680223599993042,"post_correct","post_tree",76.1160714285714
590.592300699995,0,"IA6LI11","2022_Jan_05_1149","MainTask",111,"Response","neutral_man_woman","neutral_1","yellow",1,0.680223599993042,"post_correct","post_tree",76.1160714285714
590.6150777,30,"IA6LI11","2022_Jan_05_1149","Break",0,"break","Scramble","","",1,0.865773800003808,"post_noResponse",NA,76.1160714285714
620.942643300004,1.06955906593582,"IA6LI11","2022_Jan_05_1149","Break",0,"Fixation","Scramble","","",1,0.865773800003808,"post_noResponse",NA,76.1160714285714
622.039463400011,1.1436550978519,"IA6LI11","2022_Jan_05_1149","Break",0,"Picture","Scramble","","",1,0.865773800003808,"post_noResponse",NA,76.1160714285714
623.173125600006,0.865773800003808,"IA6LI11","2022_Jan_05_1149","Break",0,"Target","Scramble","","",1,0.865773800003808,"post_noResponse",NA,76.1160714285714
624.03889940001,0,"IA6LI11","2022_Jan_05_1149","Break",0,"Response","Scramble","","",1,0.865773800003808,"post_noResponse",NA,76.1160714285714
624.059353600009,1.36901891086994,"IA6LI11","2022_Jan_05_1149","Practice",20,"Fixation","Scramble","","",1,0.968944299995201,"post_correct",NA,76.1160714285714
625.450589700005,1.35623976488538,"IA6LI11","2022_Jan_05_1149","Practice",20,"Picture","Scramble","","",1,0.968944299995201,"post_correct",NA,76.1160714285714
626.792859699999,0.968944299995201,"IA6LI11","2022_Jan_05_1149","Practice",20,"Target","Scramble","","",1,0.968944299995201,"post_correct",NA,76.1160714285714
627.761803999994,0,"IA6LI11","2022_Jan_05_1149","Practice",20,"Response","Scramble","","",1,0.968944299995201,"post_correct",NA,76.1160714285714
627.77910520001,1.21728949484444,"IA6LI11","2022_Jan_05_1149","Practice",21,"Fixation","Scramble","","",0,NA,"post_correct",NA,76.1160714285714
629.015000800006,1.21462895736284,"IA6LI11","2022_Jan_05_1149","Practice",21,"Picture","Scramble","","",0,NA,"post_correct",NA,76.1160714285714
630.229068200002,NA,"IA6LI11","2022_Jan_05_1149","Practice",21,"Target","Scramble","","",0,NA,"post_correct",NA,76.1160714285714
631.246494000006,1.32933279230025,"IA6LI11","2022_Jan_05_1149","Practice",22,"Fixation","Scramble","","",1,0.421688300004462,"post_noResponse",NA,76.1160714285714
632.592082800009,1.47091210819037,"IA6LI11","2022_Jan_05_1149","Practice",22,"Picture","Scramble","","",1,0.421688300004462,"post_noResponse",NA,76.1160714285714
634.048580300005,0.421688300004462,"IA6LI11","2022_Jan_05_1149","Practice",22,"Target","Scramble","","",1,0.421688300004462,"post_noResponse",NA,76.1160714285714
634.470268600009,0,"IA6LI11","2022_Jan_05_1149","Practice",22,"Response","Scramble","","",1,0.421688300004462,"post_noResponse",NA,76.1160714285714
634.501633200009,1.1474021833273,"IA6LI11","2022_Jan_05_1149","Practice",23,"Fixation","Scramble","","",1,0.550130999996327,"post_correct",NA,76.1160714285714
635.662366200006,1.21018534966733,"IA6LI11","2022_Jan_05_1149","Practice",23,"Picture","Scramble","","",1,0.550130999996327,"post_correct",NA,76.1160714285714
636.868508600004,0.550130999996327,"IA6LI11","2022_Jan_05_1149","Practice",23,"Target","Scramble","","",1,0.550130999996327,"post_correct",NA,76.1160714285714
637.4186396,0,"IA6LI11","2022_Jan_05_1149","Practice",23,"Response","Scramble","","",1,0.550130999996327,"post_correct",NA,76.1160714285714
637.420312500006,1.23477122504673,"IA6LI11","2022_Jan_05_1149","Practice",24,"Fixation","Scramble","","",1,0.567441799998051,"post_correct",NA,76.1160714285714
638.682214400003,1.24331791570408,"IA6LI11","2022_Jan_05_1149","Practice",24,"Picture","Scramble","","",1,0.567441799998051,"post_correct",NA,76.1160714285714
639.920364500009,0.567441799998051,"IA6LI11","2022_Jan_05_1149","Practice",24,"Target","Scramble","","",1,0.567441799998051,"post_correct",NA,76.1160714285714
640.487806300007,0,"IA6LI11","2022_Jan_05_1149","Practice",24,"Response","Scramble","","",1,0.567441799998051,"post_correct",NA,76.1160714285714
640.506328500007,1.17556621976577,"IA6LI11","2022_Jan_05_1149","Practice",25,"Fixation","Scramble","","",1,0.732404199996381,"post_correct",NA,76.1160714285714
641.697285200004,1.20935109960089,"IA6LI11","2022_Jan_05_1149","Practice",25,"Picture","Scramble","","",1,0.732404199996381,"post_correct",NA,76.1160714285714
642.889501700003,0.732404199996381,"IA6LI11","2022_Jan_05_1149","Practice",25,"Target","Scramble","","",1,0.732404199996381,"post_correct",NA,76.1160714285714
643.621905899999,0,"IA6LI11","2022_Jan_05_1149","Practice",25,"Response","Scramble","","",1,0.732404199996381,"post_correct",NA,76.1160714285714
643.652957900005,1.40048834987884,"IA6LI11","2022_Jan_05_1149","Practice",26,"Fixation","Scramble","","",1,0.666236799996113,"post_correct",NA,76.1160714285714
645.0622688,1.42373360641236,"IA6LI11","2022_Jan_05_1149","Practice",26,"Picture","Scramble","","",1,0.666236799996113,"post_correct",NA,76.1160714285714
646.475888800007,0.666236799996113,"IA6LI11","2022_Jan_05_1149","Practice",26,"Target","Scramble","","",1,0.666236799996113,"post_correct",NA,76.1160714285714
647.142125600003,0,"IA6LI11","2022_Jan_05_1149","Practice",26,"Response","Scramble","","",1,0.666236799996113,"post_correct",NA,76.1160714285714
647.161771600004,1.25437744408793,"IA6LI11","2022_Jan_05_1149","Practice",27,"Fixation","Scramble","","",0,0.650898600011715,"post_correct",NA,76.1160714285714
648.4316119,1.26216578997242,"IA6LI11","2022_Jan_05_1149","Practice",27,"Picture","Scramble","","",0,0.650898600011715,"post_correct",NA,76.1160714285714
649.6952131,0.650898600011715,"IA6LI11","2022_Jan_05_1149","Practice",27,"Target","Scramble","","",0,0.650898600011715,"post_correct",NA,76.1160714285714
650.346111700012,0,"IA6LI11","2022_Jan_05_1149","Practice",27,"Response","Scramble","","",0,0.650898600011715,"post_correct",NA,76.1160714285714
650.3643343,1.36595918148867,"IA6LI11","2022_Jan_05_1149","Practice",28,"Fixation","Scramble","","",1,0.610253899998497,"post_error",NA,76.1160714285714
651.73933370001,1.42842260811,"IA6LI11","2022_Jan_05_1149","Practice",28,"Picture","Scramble","","",1,0.610253899998497,"post_error",NA,76.1160714285714
653.148038700005,0.610253899998497,"IA6LI11","2022_Jan_05_1149","Practice",28,"Target","Scramble","","",1,0.610253899998497,"post_error",NA,76.1160714285714
653.758292600004,0,"IA6LI11","2022_Jan_05_1149","Practice",28,"Response","Scramble","","",1,0.610253899998497,"post_error",NA,76.1160714285714
653.783978700012,1.31956691279441,"IA6LI11","2022_Jan_05_1149","Practice",29,"Fixation","Scramble","","",1,0.615843799998402,"post_correct",NA,76.1160714285714
655.13006190001,1.26150469525068,"IA6LI11","2022_Jan_05_1149","Practice",29,"Picture","Scramble","","",1,0.615843799998402,"post_correct",NA,76.1160714285714
656.384064099999,0.615843799998402,"IA6LI11","2022_Jan_05_1149","Practice",29,"Target","Scramble","","",1,0.615843799998402,"post_correct",NA,76.1160714285714
656.999907899997,0,"IA6LI11","2022_Jan_05_1149","Practice",29,"Response","Scramble","","",1,0.615843799998402,"post_correct",NA,76.1160714285714
657.019957900004,1.08311672352764,"IA6LI11","2022_Jan_05_1149","Practice",30,"Fixation","Scramble","","",1,0.543373600012274,"post_correct",NA,76.1160714285714
658.111964600001,1.13793146470785,"IA6LI11","2022_Jan_05_1149","Practice",30,"Picture","Scramble","","",1,0.543373600012274,"post_correct",NA,76.1160714285714
659.236497000005,0.543373600012274,"IA6LI11","2022_Jan_05_1149","Practice",30,"Target","Scramble","","",1,0.543373600012274,"post_correct",NA,76.1160714285714
659.779870600017,0,"IA6LI11","2022_Jan_05_1149","Practice",30,"Response","Scramble","","",1,0.543373600012274,"post_correct",NA,76.1160714285714
659.870801800003,1.1859837446978,"IA6LI11","2022_Jan_05_1149","MainTask",112,"Fixation","tree","tree_2","red",1,0.550086599992937,"post_correct","post_neutral_man_woman",76.1160714285714
661.093842800008,1.45508995244357,"IA6LI11","2022_Jan_05_1149","MainTask",112,"Picture","tree","tree_2","red",1,0.550086599992937,"post_correct","post_neutral_man_woman",76.1160714285714
662.5392249,0.550086599992937,"IA6LI11","2022_Jan_05_1149","MainTask",112,"Target","tree","tree_2","red",1,0.550086599992937,"post_correct","post_neutral_man_woman",76.1160714285714
663.089311499993,0,"IA6LI11","2022_Jan_05_1149","MainTask",112,"Response","tree","tree_2","red",1,0.550086599992937,"post_correct","post_neutral_man_woman",76.1160714285714
663.110970000009,1.20661691717305,"IA6LI11","2022_Jan_05_1149","MainTask",113,"Fixation","erotic_man","man_7","green",1,0.577356000008876,"post_correct","post_tree",76.1160714285714
664.345562000002,1.31642994219216,"IA6LI11","2022_Jan_05_1149","MainTask",113,"Picture","erotic_man","man_7","green",1,0.577356000008876,"post_correct","post_tree",76.1160714285714
665.658440800005,0.577356000008876,"IA6LI11","2022_Jan_05_1149","MainTask",113,"Target","erotic_man","man_7","green",1,0.577356000008876,"post_correct","post_tree",76.1160714285714
666.235796800014,0,"IA6LI11","2022_Jan_05_1149","MainTask",113,"Response","erotic_man","man_7","green",1,0.577356000008876,"post_correct","post_tree",76.1160714285714
666.260637900006,1.23460778553696,"IA6LI11","2022_Jan_05_1149","MainTask",114,"Fixation","erotic_man","man_2","yellow",1,0.492032900001504,"post_correct","post_erotic_man",76.1160714285714
667.544425300002,1.44221585600409,"IA6LI11","2022_Jan_05_1149","MainTask",114,"Picture","erotic_man","man_2","yellow",1,0.492032900001504,"post_correct","post_erotic_man",76.1160714285714
668.977880000006,0.492032900001504,"IA6LI11","2022_Jan_05_1149","MainTask",114,"Target","erotic_man","man_2","yellow",1,0.492032900001504,"post_correct","post_erotic_man",76.1160714285714
669.469912900008,0,"IA6LI11","2022_Jan_05_1149","MainTask",114,"Response","erotic_man","man_2","yellow",1,0.492032900001504,"post_correct","post_erotic_man",76.1160714285714
669.497549000007,1.07199898486112,"IA6LI11","2022_Jan_05_1149","MainTask",115,"Fixation","tree","tree_2","yellow",1,0.769488100006129,"post_correct","post_erotic_man",76.1160714285714
670.597453599999,1.18901219158862,"IA6LI11","2022_Jan_05_1149","MainTask",115,"Picture","tree","tree_2","yellow",1,0.769488100006129,"post_correct","post_erotic_man",76.1160714285714
671.780241300003,0.769488100006129,"IA6LI11","2022_Jan_05_1149","MainTask",115,"Target","tree","tree_2","yellow",1,0.769488100006129,"post_correct","post_erotic_man",76.1160714285714
672.549729400009,0,"IA6LI11","2022_Jan_05_1149","MainTask",115,"Response","tree","tree_2","yellow",1,0.769488100006129,"post_correct","post_erotic_man",76.1160714285714
672.587765400007,1.34590355352717,"IA6LI11","2022_Jan_05_1149","MainTask",116,"Fixation","erotic_woman","woman_4","yellow",1,0.644892800002708,"post_correct","post_tree",76.1160714285714
673.9831787,1.38070590369207,"IA6LI11","2022_Jan_05_1149","MainTask",116,"Picture","erotic_woman","woman_4","yellow",1,0.644892800002708,"post_correct","post_tree",76.1160714285714
675.349953800003,0.644892800002708,"IA6LI11","2022_Jan_05_1149","MainTask",116,"Target","erotic_woman","woman_4","yellow",1,0.644892800002708,"post_correct","post_tree",76.1160714285714
675.994846600006,0,"IA6LI11","2022_Jan_05_1149","MainTask",116,"Response","erotic_woman","woman_4","yellow",1,0.644892800002708,"post_correct","post_tree",76.1160714285714
676.025446200001,1.35822862685009,"IA6LI11","2022_Jan_05_1149","MainTask",117,"Fixation","neutral_couple","neutral_couple_1","blue",0,NA,"post_correct","post_erotic_woman",76.1160714285714
677.404926700008,1.45202610951098,"IA6LI11","2022_Jan_05_1149","MainTask",117,"Picture","neutral_couple","neutral_couple_1","blue",0,NA,"post_correct","post_erotic_woman",76.1160714285714
678.852727999998,NA,"IA6LI11","2022_Jan_05_1149","MainTask",117,"Target","neutral_couple","neutral_couple_1","blue",0,NA,"post_correct","post_erotic_woman",76.1160714285714
679.872172600008,1.02775755454378,"IA6LI11","2022_Jan_05_1149","MainTask",118,"Fixation","erotic_woman","woman_4","blue",1,0.436196399998153,"post_noResponse","post_neutral_couple",76.1160714285714
680.931102300005,1.43943424242891,"IA6LI11","2022_Jan_05_1149","MainTask",118,"Picture","erotic_woman","woman_4","blue",1,0.436196399998153,"post_noResponse","post_neutral_couple",76.1160714285714
682.355686700001,0.436196399998153,"IA6LI11","2022_Jan_05_1149","MainTask",118,"Target","erotic_woman","woman_4","blue",1,0.436196399998153,"post_noResponse","post_neutral_couple",76.1160714285714
682.791883099999,0,"IA6LI11","2022_Jan_05_1149","MainTask",118,"Response","erotic_woman","woman_4","blue",1,0.436196399998153,"post_noResponse","post_neutral_couple",76.1160714285714
682.825602199999,1.27899026901957,"IA6LI11","2022_Jan_05_1149","MainTask",119,"Fixation","neutral_man_woman","neutral_1","green",1,0.674719999995432,"post_correct","post_erotic_woman",76.1160714285714
684.127287100011,1.13439422016017,"IA6LI11","2022_Jan_05_1149","MainTask",119,"Picture","neutral_man_woman","neutral_1","green",1,0.674719999995432,"post_correct","post_erotic_woman",76.1160714285714
685.258071900011,0.674719999995432,"IA6LI11","2022_Jan_05_1149","MainTask",119,"Target","neutral_man_woman","neutral_1","green",1,0.674719999995432,"post_correct","post_erotic_woman",76.1160714285714
